Time;left pressure 1[N/cm²];left pressure 2[N/cm²];left pressure 3[N/cm²];left pressure 4[N/cm²];left pressure 5[N/cm²];left pressure 6[N/cm²];left pressure 7[N/cm²];left pressure 8[N/cm²];left pressure 9[N/cm²];left pressure 10[N/cm²];left pressure 11[N/cm²];left pressure 12[N/cm²];left pressure 13[N/cm²];left pressure 14[N/cm²];left pressure 15[N/cm²];left pressure 16[N/cm²];left acceleration X[g];left acceleration Y[g];left acceleration Z[g];left angular X[dps];left angular Y[dps];left angular Z[dps];left total force[N];left center of pressure X[-0.5...+0.5];left center of pressure Y[-0.5...+0.5];right pressure 1[N/cm²];right pressure 2[N/cm²];right pressure 3[N/cm²];right pressure 4[N/cm²];right pressure 5[N/cm²];right pressure 6[N/cm²];right pressure 7[N/cm²];right pressure 8[N/cm²];right pressure 9[N/cm²];right pressure 10[N/cm²];right pressure 11[N/cm²];right pressure 12[N/cm²];right pressure 13[N/cm²];right pressure 14[N/cm²];right pressure 15[N/cm²];right pressure 16[N/cm²];right acceleration X[g];right acceleration Y[g];right acceleration Z[g];right angular X[dps];right angular Y[dps];right angular Z[dps];right total force[N];right center of pressure X[-0.5...+0.5];right center of pressure Y[-0.5...+0.5]
0.0;8.75;8.75;4.75;7.75;0.75;3.5;0.0;0.5;0.0;0.0;0.0;0.5;0.25;0.0;0.0;0.0;-0.202637;0.041992;0.987305;-0.91;2.87;1.26;339.0;-0.307852;-0.08997;1.0;1.5;0.75;1.0;0.25;0.25;0.0;0.5;0.0;0.5;0.25;0.25;0.0;0.5;0.5;0.5;-0.237305;-0.003418;0.989746;-1.33;-4.48;1.61;73.0;-0.111803;-0.097362
0.01;8.75;8.75;4.75;7.75;0.75;3.5;0.0;0.5;0.0;0.0;0.0;0.5;0.25;0.0;0.0;0.0;-0.202637;0.041992;0.987305;-0.91;2.87;1.26;339.0;-0.307852;-0.08997;1.0;1.0;0.75;0.25;0.25;0.5;0.0;0.5;0.0;0.5;0.25;0.25;0.0;0.5;0.25;0.5;-0.237305;-0.004395;0.98877;-1.33;-4.13;1.19;61.0;-0.091248;-0.084614
0.02;8.75;8.75;4.75;7.75;0.75;3.5;0.0;0.5;0.0;0.0;0.0;0.5;0.25;0.0;0.0;0.0;-0.202637;0.041992;0.987305;-0.91;2.87;1.26;339.0;-0.307852;-0.08997;0.5;0.75;0.75;0.25;0.5;0.25;0.0;0.5;0.0;0.5;0.25;0.25;0.0;0.5;0.5;0.25;-0.238281;-0.008789;0.984863;-1.26;-3.78;0.35;55.0;-0.039303;-0.077693
0.03;8.75;8.75;4.75;7.75;0.75;3.5;0.0;0.5;0.0;0.0;0.0;0.5;0.25;0.0;0.0;0.0;-0.202637;0.041992;0.987305;-0.91;2.87;1.26;339.0;-0.307852;-0.08997;0.5;1.0;1.25;0.75;0.75;0.25;0.0;0.25;0.0;0.5;0.25;0.25;0.0;0.25;0.0;0.5;-0.23877;-0.003418;0.992188;-1.05;-2.87;1.33;61.0;-0.138475;-0.067888
0.04;8.75;8.75;4.75;7.75;0.75;3.5;0.0;0.5;0.0;0.0;0.0;0.5;0.25;0.0;0.0;0.0;-0.202637;0.041992;0.987305;-0.91;2.87;1.26;339.0;-0.307852;-0.08997;1.25;1.5;0.75;0.75;0.25;0.0;0.0;0.0;0.0;0.25;0.25;0.0;0.0;0.0;0.0;0.5;-0.239258;0.000977;0.983398;-0.98;-2.24;1.61;49.0;0.0;0.0
0.05;8.75;8.75;4.75;7.75;0.75;3.5;0.0;0.5;0.0;0.0;0.0;0.5;0.25;0.0;0.0;0.0;-0.202637;0.041992;0.987305;-0.91;2.87;1.26;339.0;-0.307852;-0.08997;1.5;1.75;1.0;0.75;0.0;0.0;0.0;0.0;0.0;0.0;0.0;0.0;0.0;0.0;0.0;0.25;-0.241211;-0.011719;0.988281;-0.84;-1.19;0.84;48.0;0.0;0.0
0.06;8.75;8.75;4.75;7.75;0.75;3.5;0.0;0.5;0.0;0.0;0.0;0.5;0.25;0.0;0.0;0.0;-0.202637;0.041992;0.987305;-0.91;2.87;1.26;339.0;-0.307852;-0.08997;1.75;2.0;1.25;0.5;0.25;0.0;0.0;0.25;0.0;0.25;0.0;0.0;0.0;0.25;0.0;0.0;-0.238281;-0.001953;0.981445;-0.63;-0.84;1.33;61.0;-0.284696;-0.02749
0.07;8.75;9.0;4.75;7.5;0.75;3.5;0.0;0.75;0.0;0.0;0.25;0.5;0.25;0.0;0.0;0.0;-0.197754;0.04248;0.984375;-1.26;2.94;1.26;344.0;-0.30197;-0.092681;1.0;2.0;1.0;0.75;0.25;0.0;0.0;0.25;0.0;0.25;0.0;0.25;0.0;0.5;0.0;0.0;-0.238281;-0.007324;0.987305;-0.77;-0.63;1.26;59.0;-0.22782;-0.061694
0.08;8.5;8.875;4.875;7.625;0.75;3.125;0.0;0.625;0.0;0.0;0.25;0.5;0.25;0.0;0.0;0.0;-0.2004395;0.04174799999999999;0.986328;-1.26;2.9749999999999996;1.225;338.0;-0.30389;-0.09009;0.5;2.0;1.0;0.5;0.5;0.0;0.0;0.25;0.0;0.5;0.0;0.0;0.0;0.25;0.25;0.0;-0.244629;-0.007812;0.983398;-0.77;-0.7;0.98;54.0;-0.198766;-0.056964
0.09;8.25;8.75;5.0;7.75;0.75;2.75;0.0;0.5;0.0;0.0;0.25;0.5;0.25;0.0;0.0;0.0;-0.203125;0.041016;0.988281;-1.26;3.01;1.19;332.0;-0.30581;-0.087499;0.75;1.5;1.0;0.5;0.5;0.25;0.0;0.25;0.0;0.5;0.25;0.0;0.0;0.0;0.0;0.0;-0.242676;-0.005859;0.984375;-0.42;-0.63;1.12;53.0;-0.21933;-0.061174
0.1;8.25;8.75;5.0;7.5;0.75;3.75;0.0;0.5;0.0;0.0;0.0;0.5;0.25;0.0;0.0;0.0;-0.194336;0.043457;0.989746;-1.26;2.94;1.19;337.0;-0.305187;-0.091753;0.75;1.25;0.5;0.5;0.25;0.25;0.0;0.25;0.0;0.25;0.0;0.25;0.0;0.0;0.0;0.0;-0.231445;-0.001953;0.981934;-0.49;-0.91;1.19;41.0;0.0;0.0
0.11;8.25;8.75;4.75;7.75;0.75;3.25;0.0;0.5;0.0;0.0;0.25;0.25;0.25;0.0;0.0;0.0;-0.203125;0.044434;0.989746;-0.98;2.8;1.12;332.0;-0.307566;-0.090128;0.5;1.75;0.75;0.75;0.0;0.5;0.0;0.0;0.0;0.25;0.0;0.0;0.0;0.25;0.0;0.0;-0.239746;-0.00293;0.986816;-0.56;-1.12;0.91;44.0;0.0;0.0
0.12;8.0;8.5;4.0;7.25;0.5;3.25;0.0;0.5;0.0;0.0;0.0;0.25;0.0;0.0;0.0;0.0;-0.198242;0.043457;0.989258;-1.19;2.66;1.19;308.0;-0.316189;-0.092035;0.5;2.25;0.75;1.0;0.25;0.0;0.0;0.25;0.0;0.25;0.25;0.0;0.0;0.25;0.0;0.0;-0.240234;-0.001953;0.984375;-0.63;-1.33;0.91;54.0;-0.243331;-0.095995
0.13;7.75;8.75;4.0;7.25;0.5;3.25;0.0;0.5;0.0;0.0;0.0;0.5;0.0;0.0;0.0;0.0;-0.193359;0.044922;0.984863;-1.12;2.73;1.19;310.0;-0.31211;-0.09566;0.75;2.25;0.5;1.0;0.5;0.0;0.0;0.0;0.0;0.25;0.0;0.0;0.0;0.0;0.0;0.25;-0.234375;-0.002441;0.980957;-0.7;-1.54;0.77;50.0;0.0;0.0
0.14;7.5;8.75;4.25;7.25;0.5;3.25;0.0;0.5;0.0;0.0;0.0;0.5;0.25;0.0;0.0;0.0;-0.196289;0.041992;0.978027;-1.4;2.73;1.19;312.0;-0.307957;-0.098038;1.25;2.5;1.0;1.25;0.25;0.25;0.0;0.0;0.0;0.25;0.0;0.25;0.0;0.0;0.0;0.25;-0.237793;0.0;0.983887;-0.98;-1.68;0.7;67.0;-0.28537;-0.083916
0.15;8.25;8.75;4.25;7.5;0.5;2.25;0.0;0.5;0.0;0.0;0.0;0.5;0.0;0.0;0.0;0.0;-0.195312;0.045898;0.992188;-1.47;2.59;1.26;310.0;-0.318062;-0.086357;1.25;2.25;1.25;1.0;0.25;0.25;0.0;0.25;0.0;0.25;0.25;0.0;0.0;0.0;0.0;0.0;-0.232422;-0.008789;0.985352;-1.4;-1.61;0.63;67.0;-0.277807;-0.074647
0.16;8.5;8.75;4.0;7.25;0.25;2.75;0.0;0.5;0.0;0.0;0.0;0.25;0.0;0.0;0.0;0.0;-0.202637;0.041016;0.990234;-1.47;2.66;1.19;307.0;-0.322444;-0.087768;1.75;2.5;1.0;1.0;0.5;0.0;0.0;0.25;0.0;0.25;0.0;0.0;0.0;0.25;0.25;0.0;-0.238281;-0.003906;0.986816;-1.47;-1.47;0.7;73.0;-0.264831;-0.051856
0.17;8.25;8.75;5.0;7.5;0.25;3.25;0.0;0.5;0.0;0.0;0.0;0.25;0.25;0.0;0.0;0.25;-0.197266;0.038086;0.98584;-1.33;2.59;1.33;325.0;-0.311561;-0.090686;1.75;3.0;1.25;1.25;0.5;0.25;0.0;0.25;0.25;0.5;0.0;0.25;0.0;0.25;0.0;0.0;-0.23877;-0.001953;0.985352;-1.4;-1.33;0.63;90.0;-0.244156;-0.05594
0.18;8.0;8.75;4.75;7.75;0.5;3.25;0.0;0.5;0.0;0.0;0.0;0.25;0.0;0.0;0.0;0.25;-0.204102;0.043945;0.982422;-1.26;2.45;1.33;324.0;-0.312586;-0.09114;2.0;2.75;0.75;1.5;0.25;0.25;0.0;0.5;0.0;0.5;0.0;0.25;0.0;0.25;0.0;0.25;-0.242188;-0.008789;0.985352;-1.26;-1.19;0.77;87.0;-0.247017;-0.094001
0.19;8.25;8.75;4.5;7.25;0.5;2.75;0.0;0.0;0.0;0.0;0.0;0.25;0.0;0.0;0.0;0.0;-0.196777;0.047852;0.990723;-1.12;2.45;1.33;305.0;-0.326305;-0.078178;2.25;2.5;1.0;2.0;0.25;0.5;0.0;0.25;0.0;0.5;0.0;0.0;0.0;0.25;0.0;0.25;-0.240234;-0.008301;0.984863;-1.05;-1.05;0.84;92.0;-0.268261;-0.077395
0.2;8.25;8.75;4.75;7.25;0.5;2.75;0.0;0.25;0.0;0.0;0.0;0.25;0.25;0.0;0.0;0.0;-0.201172;0.038086;0.991211;-1.19;2.52;1.19;313.0;-0.319169;-0.082735;2.5;4.25;1.0;2.0;0.25;0.25;0.0;0.25;0.0;0.25;0.0;0.0;0.0;0.25;0.0;0.0;-0.240723;-0.01123;0.97998;-0.91;-0.84;0.84;103.0;-0.314993;-0.081508
0.21;8.0;8.75;4.5;7.25;0.5;2.75;0.0;0.5;0.0;0.0;0.0;0.25;0.25;0.0;0.0;0.0;-0.200684;0.037598;0.98291;-1.05;2.31;1.4;312.0;-0.315548;-0.089044;2.5;3.75;1.25;2.0;0.25;0.25;0.0;0.5;0.0;0.5;0.25;0.25;0.0;0.5;0.0;0.0;-0.238281;-0.004395;0.985352;-0.84;-0.84;0.91;113.0;-0.254108;-0.081804
0.22;8.5;8.75;4.5;7.25;0.75;3.25;0.0;0.5;0.0;0.0;0.0;0.25;0.25;0.0;0.0;0.0;-0.195312;0.04248;0.992676;-0.98;2.17;1.26;324.0;-0.312849;-0.087811;2.75;4.0;1.5;1.75;0.25;0.5;0.0;0.5;0.0;0.5;0.25;0.0;0.0;0.25;0.0;0.0;-0.23291;-0.006836;0.987793;-0.77;-0.7;0.84;116.0;-0.278283;-0.076607
0.23;8.75;8.5;4.5;7.25;0.5;2.75;0.0;0.5;0.0;0.0;0.0;0.25;0.25;0.0;0.0;0.0;-0.199707;0.041504;0.990723;-0.7;1.68;1.33;317.0;-0.316846;-0.084096;2.25;3.5;1.75;1.75;0.25;0.25;0.0;0.5;0.0;0.25;0.0;0.0;0.0;0.5;0.0;0.0;-0.230957;-0.003418;0.980957;-0.63;-0.56;0.91;104.0;-0.280181;-0.070218
0.24;7.75;8.5;4.5;7.75;0.5;2.25;0.0;0.5;0.0;0.0;0.0;0.0;0.0;0.0;0.0;0.0;-0.201172;0.041504;0.986328;-0.7;1.61;1.33;303.0;-0.323752;-0.085187;2.0;3.5;1.75;2.0;0.25;0.25;0.0;0.5;0.0;0.0;0.0;0.0;0.0;0.25;0.0;0.0;-0.23877;-0.003906;0.986816;-0.49;-0.56;1.05;100.0;-0.303307;-0.08633
0.25;7.75;8.75;4.25;7.5;0.25;2.75;0.0;0.5;0.0;0.0;0.0;0.25;0.0;0.0;0.0;0.0;-0.200684;0.04248;0.994629;-0.42;1.26;1.4;305.0;-0.319794;-0.091993;3.5;4.0;1.75;2.0;0.25;0.25;0.0;0.0;0.0;0.0;0.25;0.0;0.0;0.0;0.0;0.25;-0.23584;0.0;0.987305;-0.42;-0.63;0.91;113.0;-0.331737;-0.053779
0.26;8.0;8.75;4.75;7.25;0.25;3.0;0.0;0.5;0.0;0.0;0.0;0.25;0.0;0.0;0.0;0.0;-0.195312;0.041016;0.98584;-0.28;0.98;1.4;312.0;-0.318463;-0.087881;2.75;3.0;1.5;2.0;0.25;0.25;0.0;0.0;0.0;0.5;0.25;0.0;0.0;0.0;0.0;0.0;-0.240723;-0.005859;0.982422;-0.42;-0.56;0.77;99.0;-0.302268;-0.050643
0.27;8.0;8.5;4.75;7.25;0.0;2.5;0.0;0.5;0.0;0.0;0.0;0.0;0.25;0.0;0.0;0.0;-0.196777;0.041992;0.987793;-0.14;0.84;1.33;302.0;-0.323116;-0.086338;2.75;3.75;1.5;2.0;0.5;0.25;0.0;0.0;0.0;0.25;0.0;0.0;0.0;0.5;0.0;0.0;-0.234863;-0.003418;0.98584;-0.21;-0.7;0.91;107.0;-0.302662;-0.047576
0.28;8.25;8.75;5.0;7.25;0.0;3.25;0.0;0.5;0.0;0.0;0.0;0.0;0.25;0.0;0.0;0.0;-0.195312;0.04248;0.97998;-0.28;0.98;1.4;317.0;-0.319847;-0.08839;3.25;3.5;1.75;1.5;0.5;0.25;0.0;0.0;0.0;0.0;0.0;0.0;0.0;0.0;0.0;0.0;-0.241211;-0.007324;0.988281;0.07;-0.84;0.84;101.0;-0.345408;-0.036802
0.29;8.5;8.75;4.75;7.5;0.25;3.25;0.0;0.25;0.0;0.0;0.0;0.25;0.0;0.0;0.0;0.0;-0.20166;0.043457;0.987305;-0.14;0.77;1.47;319.0;-0.321524;-0.084164;3.75;4.25;1.75;1.5;0.25;0.25;0.0;0.0;0.0;0.25;0.0;0.0;0.0;0.0;0.0;0.0;-0.237305;-0.005859;0.984863;0.21;-0.91;0.84;112.0;-0.344368;-0.038003
0.3;8.5;8.75;4.5;7.75;0.5;2.75;0.0;0.5;0.0;0.0;0.0;0.25;0.0;0.0;0.0;0.0;-0.196777;0.041504;0.98291;-0.0;0.7;1.33;320.0;-0.319436;-0.08592;2.5;4.25;1.5;1.5;0.25;0.25;0.0;0.0;0.0;0.25;0.0;0.0;0.0;0.0;0.0;0.0;-0.237305;-0.000488;0.982422;0.28;-0.98;0.91;97.0;-0.33925;-0.059237
0.31;8.5;8.75;4.25;7.75;0.5;2.75;0.0;0.5;0.0;0.0;0.0;0.25;0.0;0.0;0.0;0.0;-0.208984;0.035645;0.988281;0.28;0.21;1.26;317.0;-0.319871;-0.087331;2.5;4.25;0.75;1.75;0.25;0.5;0.0;0.0;0.0;0.25;0.25;0.0;0.0;0.25;0.0;0.0;-0.235352;-0.000488;0.977539;0.07;-0.98;0.98;99.0;-0.310415;-0.077017
0.32;8.5;8.75;4.0;7.5;0.5;2.75;0.0;0.5;0.0;0.0;0.0;0.25;0.25;0.0;0.0;0.0;-0.19873;0.039062;0.990234;0.84;-0.7;1.4;314.0;-0.317464;-0.090046;3.25;3.75;1.0;2.25;0.25;0.5;0.0;0.0;0.0;0.25;0.0;0.25;0.0;0.25;0.0;0.0;-0.233887;-0.005371;0.980957;-0.14;-1.12;0.91;109.0;-0.310534;-0.068388
0.33;8.25;8.75;4.25;7.25;0.0;2.0;0.0;0.25;0.0;0.0;0.0;0.0;0.0;0.0;0.0;0.0;-0.195801;0.041504;0.990234;0.98;-0.91;1.19;291.0;-0.335458;-0.079004;3.25;4.5;1.5;2.0;0.25;0.5;0.0;0.0;0.0;0.5;0.0;0.0;0.0;0.0;0.0;0.0;-0.238281;0.000977;0.98584;-0.28;-1.05;0.77;116.0;-0.32648;-0.060105
0.34;8.5;8.75;5.0;7.25;0.0;2.25;0.0;0.0;0.0;0.0;0.0;0.0;0.0;0.0;0.0;0.0;-0.195312;0.04248;0.987793;1.26;-1.68;1.19;300.0;-0.33643;-0.071215;3.5;4.75;1.75;2.0;0.25;0.25;0.0;0.25;0.0;0.25;0.0;0.0;0.0;0.0;0.0;0.0;-0.233887;-0.001465;0.98584;-0.42;-1.19;0.77;122.0;-0.333912;-0.063063
0.35;8.5;8.75;5.0;7.5;0.25;2.5;0.0;0.25;0.0;0.0;0.0;0.25;0.0;0.0;0.0;0.0;-0.197754;0.049316;0.984375;0.98;-1.61;1.19;314.0;-0.325096;-0.078262;3.75;4.5;1.75;2.5;0.5;0.25;0.0;0.25;0.0;0.25;0.25;0.0;0.0;0.0;0.0;0.0;-0.233887;0.001465;0.984375;-0.35;-1.12;0.84;132.0;-0.317965;-0.063079
0.36;8.25;8.75;4.75;7.25;0.0;2.25;0.0;0.5;0.0;0.0;0.0;0.25;0.0;0.0;0.0;0.0;-0.1875;0.04834;0.98584;0.56;-1.05;1.19;305.0;-0.324786;-0.083051;4.0;4.75;1.75;2.75;0.25;0.25;0.0;0.25;0.0;0.25;0.0;0.0;0.0;0.25;0.0;0.0;-0.236328;-0.000977;0.980957;-0.42;-1.12;0.91;136.0;-0.323059;-0.062577
0.37;8.5;8.75;5.5;7.25;0.0;2.25;0.0;0.5;0.0;0.0;0.0;0.5;0.0;0.0;0.0;0.0;-0.18457;0.047852;0.98584;0.35;-0.56;1.26;317.0;-0.319874;-0.079074;4.25;4.5;2.0;2.75;0.25;0.5;0.0;0.0;0.0;0.0;0.0;0.0;0.0;0.25;0.0;0.0;-0.239258;-0.008789;0.984863;-0.49;-1.12;0.77;136.0;-0.336645;-0.052749
0.38;8.5;8.75;4.75;7.25;0.5;2.25;0.0;0.5;0.0;0.0;0.0;0.25;0.0;0.0;0.0;0.0;-0.190918;0.046875;0.984375;-0.07;-0.35;1.19;312.0;-0.322173;-0.079272;3.5;4.5;1.75;2.75;0.5;0.5;0.0;0.25;0.0;0.25;0.0;0.25;0.0;0.0;0.0;0.25;-0.234863;0.000977;0.987793;-0.42;-0.98;0.77;136.0;-0.306866;-0.078393
0.39;8.75;8.75;4.25;7.25;0.0;2.0;0.0;0.5;0.0;0.0;0.0;0.0;0.0;0.0;0.0;0.0;-0.19043;0.04248;0.98877;-0.35;0.14;1.26;299.0;-0.332781;-0.079665;3.75;4.5;1.5;3.0;0.5;0.25;0.0;0.0;0.0;0.25;0.0;0.0;0.0;0.0;0.0;0.0;-0.234375;-0.006348;0.976562;-0.42;-1.12;0.77;129.0;-0.3362;-0.062546
0.4;8.5;8.75;4.25;7.25;0.0;2.25;0.0;0.0;0.0;0.0;0.0;0.0;0.0;0.0;0.0;0.0;-0.193848;0.047852;0.989258;-0.63;0.07;1.19;293.0;-0.338288;-0.075416;4.25;4.5;1.75;3.0;0.5;0.25;0.0;0.0;0.0;0.25;0.25;0.0;0.0;0.0;0.0;0.0;-0.23291;-0.005371;0.976562;-0.63;-1.05;0.91;138.0;-0.327467;-0.054801
0.41;8.25;8.75;4.25;7.25;0.25;2.0;0.0;0.0;0.0;0.0;0.0;0.0;0.0;0.0;0.0;0.0;-0.192871;0.04248;0.987793;-1.19;0.7;1.19;290.0;-0.33751;-0.074043;4.25;5.0;2.0;2.75;0.5;0.25;0.0;0.25;0.0;0.0;0.0;0.0;0.0;0.25;0.0;0.0;-0.234863;-0.001953;0.983887;-0.84;-1.05;0.91;143.0;-0.330625;-0.058487
0.42;8.5;8.75;4.25;7.25;0.25;1.75;0.0;0.25;0.0;0.0;0.0;0.0;0.0;0.0;0.0;0.0;-0.18457;0.04248;0.988281;-1.75;1.33;1.12;294.0;-0.335761;-0.074646;4.25;5.25;2.0;3.25;0.5;0.25;0.0;0.25;0.0;0.0;0.0;0.0;0.0;0.25;0.0;0.0;-0.23877;-0.006836;0.981445;-0.98;-0.91;0.77;150.0;-0.330394;-0.065545
0.43;8.0;8.5;4.25;7.0;0.5;2.0;0.0;0.0;0.0;0.0;0.0;0.25;0.0;0.0;0.0;0.0;-0.189941;0.046387;0.983398;-2.03;1.61;1.12;288.0;-0.330395;-0.074236;4.5;5.25;2.25;3.5;0.5;0.5;0.0;0.25;0.0;0.0;0.0;0.0;0.0;0.0;0.0;0.0;-0.240723;-0.00293;0.980957;-1.05;-1.12;0.84;158.0;-0.336121;-0.069223
0.44;8.0;8.25;4.25;6.75;0.25;1.75;0.0;0.0;0.0;0.0;0.0;0.0;0.0;0.0;0.0;0.0;-0.19043;0.041504;0.98291;-2.66;2.03;1.12;276.0;-0.338314;-0.069676;4.5;5.25;2.5;3.5;0.5;0.25;0.0;0.0;0.0;0.0;0.0;0.25;0.0;0.0;0.0;0.0;-0.233398;-0.00293;0.986816;-1.05;-1.12;0.84;157.0;-0.336666;-0.059776
0.45;7.75;8.25;3.75;6.25;0.0;1.25;0.0;0.0;0.0;0.0;0.0;0.0;0.0;0.0;0.0;0.0;-0.187988;0.047363;0.984863;-3.22;2.52;1.12;256.0;-0.34586;-0.068792;4.5;5.5;2.25;3.75;0.75;0.0;0.0;0.0;0.0;0.0;0.0;0.0;0.0;0.25;0.0;0.0;-0.23291;-0.006348;0.983887;-1.12;-1.19;0.91;159.0;-0.336734;-0.054437
0.46;7.75;8.0;3.75;6.25;0.0;1.25;0.0;0.0;0.0;0.0;0.0;0.0;0.0;0.0;0.0;0.0;-0.196289;0.050293;0.981445;-3.71;2.94;1.05;254.0;-0.345273;-0.067985;5.0;5.5;3.0;4.0;0.75;0.25;0.0;0.0;0.0;0.0;0.0;0.0;0.0;0.0;0.0;0.0;-0.229004;-0.000977;0.980469;-1.26;-1.54;0.91;174.0;-0.340462;-0.051859
0.47;7.75;7.5;3.75;6.0;0.25;1.5;0.0;0.0;0.0;0.0;0.0;0.25;0.0;0.0;0.0;0.0;-0.193848;0.049316;0.978027;-4.48;3.71;1.19;255.0;-0.335354;-0.067701;5.25;5.75;2.75;4.25;0.75;0.5;0.0;0.25;0.0;0.0;0.0;0.0;0.0;0.0;0.0;0.0;-0.231445;-0.005859;0.987793;-0.98;-1.54;0.91;185.0;-0.333748;-0.064772
0.48;7.5;7.25;3.75;6.0;0.25;1.25;0.0;0.0;0.0;0.0;0.0;0.25;0.0;0.0;0.0;0.0;-0.186523;0.04248;0.979004;-5.11;4.76;1.33;248.0;-0.335851;-0.066492;5.25;5.75;3.25;4.5;0.75;0.5;0.0;0.0;0.0;0.25;0.0;0.0;0.0;0.0;0.0;0.0;-0.234375;-0.001953;0.982422;-0.84;-1.68;1.12;191.0;-0.330021;-0.055217
0.49;7.25;7.25;3.75;6.0;0.0;1.25;0.0;0.0;0.0;0.0;0.0;0.0;0.0;0.0;0.0;0.0;-0.200684;0.038574;0.991211;-5.11;5.53;1.4;241.0;-0.342856;-0.067253;5.5;6.0;3.25;4.5;0.75;0.75;0.0;0.0;0.0;0.25;0.0;0.0;0.0;0.0;0.0;0.0;-0.234863;-0.003418;0.986328;-0.77;-1.82;0.98;198.0;-0.329586;-0.057167
0.5;7.0;7.0;3.0;5.5;0.0;1.25;0.0;0.0;0.0;0.0;0.0;0.0;0.0;0.0;0.0;0.0;-0.191406;0.044922;0.991211;-4.76;4.9;1.26;223.0;-0.345414;-0.070014;5.5;6.75;4.0;4.5;0.75;0.5;0.0;0.0;0.0;0.0;0.0;0.25;0.0;0.0;0.0;0.0;-0.229492;-0.003418;0.989258;-0.21;-1.96;1.12;210.0;-0.33223;-0.056659
0.51;7.0;6.5;3.25;5.0;0.25;0.75;0.0;0.0;0.0;0.0;0.0;0.0;0.0;0.0;0.0;0.0;-0.193848;0.041016;0.98291;-4.62;4.97;1.61;214.0;-0.346322;-0.056351;6.0;7.0;4.25;5.25;0.75;0.5;0.0;0.0;0.0;0.0;0.0;0.0;0.0;0.0;0.0;0.0;-0.235352;-0.00293;0.986328;0.77;-2.24;1.54;224.0;-0.338096;-0.055603
0.52;6.25;6.25;2.5;5.0;0.25;0.75;0.0;0.0;0.0;0.0;0.0;0.25;0.0;0.0;0.0;0.0;-0.191406;0.039062;0.990723;-4.62;5.32;1.54;200.0;-0.339938;-0.069537;6.25;7.5;4.5;5.5;0.75;0.75;0.0;0.25;0.0;0.0;0.0;0.0;0.0;0.0;0.0;0.0;-0.237305;-0.003418;0.985352;1.19;-2.31;1.61;242.0;-0.332219;-0.063211
0.53;6.0;6.25;2.25;4.5;0.0;0.5;0.0;0.0;0.0;0.0;0.0;0.0;0.0;0.0;0.0;0.0;-0.197266;0.037598;0.987793;-4.69;5.74;1.47;182.0;-0.354376;-0.065841;6.5;7.5;4.5;5.75;0.75;0.75;0.0;0.25;0.0;0.0;0.0;0.25;0.0;0.0;0.0;0.0;-0.236328;-0.002441;0.981934;1.33;-2.1;1.75;249.0;-0.327199;-0.065455
0.54;5.75;5.75;2.5;4.25;0.0;0.5;0.0;0.0;0.0;0.0;0.0;0.0;0.0;0.0;0.0;0.0;-0.196289;0.038574;0.986328;-4.69;6.37;1.61;176.0;-0.351887;-0.061273;6.5;8.0;4.5;7.0;0.75;1.0;0.0;0.25;0.0;0.0;0.0;0.0;0.0;0.0;0.0;0.0;-0.227539;-0.003418;0.981934;0.98;-1.89;1.82;266.0;-0.32998;-0.074418
0.55;5.75;5.75;2.0;3.5;0.0;0.5;0.0;0.0;0.0;0.0;0.0;0.0;0.0;0.0;0.0;0.0;-0.202637;0.041504;0.98877;-4.48;7.84;1.68;163.0;-0.357553;-0.058441;6.5;8.5;4.75;7.25;0.25;0.25;0.0;0.25;0.0;0.0;0.0;0.0;0.0;0.0;0.0;0.0;-0.22998;-0.00293;0.98291;0.56;-1.68;1.75;263.0;-0.339297;-0.072691
0.56;5.25;5.25;1.5;3.25;0.25;0.25;0.0;0.0;0.0;0.0;0.0;0.0;0.0;0.0;0.0;0.0;-0.194336;0.040039;0.980469;-4.62;7.42;1.75;147.0;-0.358285;-0.057359;6.75;9.0;5.25;7.5;0.25;0.5;0.0;0.25;0.0;0.0;0.0;0.0;0.0;0.0;0.0;0.0;-0.237305;-0.002441;0.983887;1.19;-1.89;1.68;279.0;-0.337527;-0.07275
0.57;4.75;4.75;1.25;3.25;0.25;0.25;0.0;0.0;0.0;0.0;0.0;0.0;0.0;0.0;0.0;0.0;-0.189941;0.038086;0.980469;-4.97;7.84;1.82;135.0;-0.356641;-0.062558;7.5;9.5;5.25;7.75;0.75;0.75;0.0;0.25;0.0;0.0;0.0;0.0;0.0;0.0;0.0;0.0;-0.23291;-0.007324;0.994629;2.24;-1.96;1.75;301.0;-0.334698;-0.070455
0.58;4.25;4.5;1.75;2.75;0.0;0.25;0.0;0.0;0.0;0.0;0.0;0.0;0.0;0.0;0.0;0.0;-0.201172;0.039062;0.973633;-5.39;9.1;1.82;126.0;-0.357543;-0.057123;7.75;9.75;5.5;7.75;0.75;1.25;0.0;0.25;0.0;0.0;0.0;0.25;0.0;0.0;0.0;0.0;-0.231934;-0.000488;0.991211;2.38;-1.89;1.68;315.0;-0.328152;-0.073373
0.59;4.25;4.5;1.25;2.25;0.0;0.5;0.0;0.0;0.0;0.0;0.0;0.0;0.0;0.0;0.0;0.0;-0.205078;0.037109;0.97998;-5.74;9.73;2.03;118.0;-0.360165;-0.060862;7.75;9.75;5.5;8.0;0.75;1.0;0.0;0.25;0.0;0.0;0.0;0.25;0.0;0.0;0.0;0.0;-0.229004;0.007812;0.984375;2.1;-1.82;1.82;315.0;-0.329218;-0.073004
0.6;3.0;4.0;0.75;2.0;0.25;0.5;0.0;0.0;0.0;0.0;0.0;0.0;0.0;0.0;0.0;0.0;-0.206543;0.039551;0.977539;-5.25;9.94;2.03;97.0;-0.353236;-0.077456;8.25;10.25;5.75;8.0;0.75;1.0;0.0;0.25;0.0;0.0;0.0;0.0;0.0;0.0;0.0;0.0;-0.226562;-0.004395;0.980957;1.4;-1.75;1.68;324.0;-0.334944;-0.068624
0.61;1.25;3.0;0.75;1.5;0.25;0.25;0.0;0.0;0.0;0.0;0.0;0.0;0.0;0.0;0.0;0.0;-0.20752;0.033691;0.97168;-5.25;9.66;2.17;65.0;-0.344958;-0.094661;9.0;9.75;6.25;8.5;0.5;1.25;0.0;0.25;0.0;0.0;0.0;0.0;0.0;0.0;0.0;0.0;-0.221191;-0.000488;0.982422;0.56;-1.82;1.54;337.0;-0.333821;-0.066078
0.62;0.75;2.5;0.5;0.75;0.0;0.0;0.0;0.0;0.0;0.0;0.0;0.0;0.0;0.0;0.0;0.0;-0.191895;0.038086;0.979004;-4.97;9.31;2.1;41.0;0.0;0.0;9.0;9.75;6.5;8.75;0.75;1.75;0.0;0.5;0.0;0.0;0.0;0.0;0.0;0.0;0.0;0.0;-0.229492;-0.005371;0.985352;0.21;-1.68;1.68;353.0;-0.325796;-0.071295
0.63;0.5;1.0;0.5;0.5;0.0;0.25;0.0;0.0;0.0;0.0;0.0;0.0;0.0;0.0;0.0;0.0;-0.199707;0.035156;0.998535;-4.06;8.47;2.1;26.0;0.0;0.0;9.0;11.0;6.75;9.0;0.75;2.0;0.0;0.5;0.0;0.0;0.0;0.0;0.0;0.0;0.0;0.0;-0.232422;-0.003418;0.980957;-0.14;-1.47;1.75;371.0;-0.326536;-0.075267
0.64;0.5;1.0;0.5;0.25;0.0;0.25;0.0;0.0;0.0;0.0;0.0;0.0;0.0;0.0;0.0;0.0;-0.189453;0.023926;0.995117;-3.71;7.42;2.24;23.0;0.0;0.0;9.25;11.25;7.0;9.0;0.25;2.25;0.0;0.25;0.0;0.0;0.0;0.0;0.0;0.0;0.0;0.0;-0.229492;-0.002441;0.984863;-0.14;-1.19;1.75;372.0;-0.331597;-0.07369
0.65;0.5;0.75;0.25;0.25;0.0;0.0;0.0;0.0;0.0;0.0;0.0;0.0;0.0;0.0;0.0;0.0;-0.220703;0.033203;1.002441;-4.2;7.28;2.45;16.0;0.0;0.0;9.25;11.25;7.0;9.0;0.25;2.25;0.0;0.25;0.0;0.0;0.0;0.25;0.0;0.0;0.0;0.0;-0.230469;0.000977;0.981934;-0.28;-1.12;1.47;375.0;-0.328113;-0.075118
0.66;0.5;0.75;0.25;0.5;0.0;0.0;0.0;0.0;0.0;0.0;0.0;0.0;0.0;0.0;0.0;0.0;-0.245605;0.007812;0.990234;-5.39;7.0;5.46;19.0;0.0;0.0;9.5;11.0;7.0;9.0;0.75;2.5;0.0;0.5;0.0;0.0;0.0;0.25;0.0;0.0;0.0;0.0;-0.226074;-0.001465;0.982422;-0.14;-1.12;1.33;386.0;-0.321477;-0.075845
0.67;0.5;1.25;0.25;0.5;0.0;0.0;0.0;0.0;0.0;0.0;0.0;0.0;0.0;0.0;0.0;0.0;-0.21582;0.03125;0.994629;-5.11;5.95;2.94;23.0;0.0;0.0;9.25;11.0;7.0;9.5;0.75;2.0;0.0;0.0;0.0;0.0;0.0;0.25;0.0;0.0;0.0;0.0;-0.234863;0.001953;0.98291;-0.07;-1.26;1.19;377.0;-0.32845;-0.070557
0.68;0.5;1.25;0.25;0.5;0.0;0.0;0.0;0.0;0.0;0.0;0.0;0.0;0.0;0.0;0.0;0.0;-0.224609;0.0625;0.998047;-7.35;5.46;5.95;23.0;0.0;0.0;9.25;11.0;7.25;9.75;0.75;2.25;0.0;0.25;0.0;0.0;0.0;0.25;0.0;0.0;0.0;0.0;-0.236328;0.000488;0.984375;-0.14;-1.26;1.05;388.0;-0.323807;-0.074681
0.69;0.5;0.75;0.25;0.5;0.0;0.0;0.0;0.0;0.0;0.0;0.0;0.0;0.0;0.0;0.0;0.0;-0.132324;0.038086;1.013672;-9.59;5.67;13.93;19.0;0.0;0.0;9.25;10.75;7.75;10.0;0.75;2.5;0.0;0.25;0.0;0.0;0.0;0.0;0.0;0.0;0.0;0.0;-0.22998;0.003418;0.98584;-0.35;-1.19;0.7;393.0;-0.324508;-0.07292
0.7;0.25;0.75;0.0;0.25;0.0;0.0;0.0;0.0;0.0;0.0;0.0;0.0;0.0;0.0;0.0;0.0;-0.104492;0.040039;1.01123;-11.97;6.72;26.809999;11.0;0.0;0.0;9.25;11.25;7.75;9.75;0.75;2.5;0.0;0.25;0.0;0.0;0.0;0.0;0.0;0.0;0.0;0.0;-0.230469;0.00293;0.988281;-0.7;-0.98;0.77;395.0;-0.325725;-0.072948
0.71;0.5;0.5;0.25;0.25;0.0;0.0;0.0;0.0;0.0;0.0;0.0;0.0;0.0;0.0;0.0;0.0;-0.210449;0.022461;0.979004;-13.09;6.93;31.15;14.0;0.0;0.0;9.25;11.0;7.75;10.0;0.75;2.5;0.0;0.25;0.0;0.0;0.0;0.0;0.0;0.0;0.0;0.0;-0.22998;0.002441;0.980957;-0.77;-0.84;0.7;395.0;-0.324999;-0.073416
0.72;0.5;0.75;0.25;0.25;0.0;0.0;0.0;0.0;0.0;0.0;0.0;0.0;0.0;0.0;0.0;0.0;-0.248047;0.01123;0.987793;-11.13;7.42;26.809999;16.0;0.0;0.0;9.5;11.0;7.75;9.75;1.0;2.75;0.0;0.25;0.0;0.0;0.0;0.0;0.0;0.0;0.0;0.0;-0.227539;0.002441;0.983887;-0.49;-1.05;0.28;400.0;-0.32337;-0.071783
0.73;0.5;0.5;0.0;0.25;0.0;0.0;0.0;0.0;0.0;0.0;0.0;0.0;0.0;0.0;0.0;0.0;-0.138672;0.0;0.996094;-9.03;6.37;22.68;11.0;0.0;0.0;9.5;10.75;7.5;9.75;1.0;2.75;0.0;0.25;0.0;0.0;0.0;0.0;0.0;0.0;0.0;0.0;-0.227539;0.0;0.981445;-0.84;-0.49;0.63;396.0;-0.323248;-0.072321
0.74;0.0;0.25;0.0;0.5;0.0;0.0;0.0;0.0;0.0;0.25;0.0;0.0;0.0;0.0;0.0;0.0;-0.260254;0.043457;0.964355;-8.96;5.39;23.66;9.0;0.0;0.0;9.25;11.25;7.25;9.75;1.25;2.75;0.0;0.0;0.0;0.0;0.0;0.25;0.0;0.0;0.0;0.0;-0.231934;0.000977;0.986816;-0.91;-0.35;0.42;396.0;-0.322363;-0.07315
0.75;0.5;0.25;0.0;0.25;0.0;0.0;0.0;0.0;0.0;0.25;0.0;0.0;0.0;0.0;0.0;0.0;-0.232422;0.038574;0.987793;-8.75;4.55;25.41;12.0;0.0;0.0;9.25;10.75;7.25;9.75;0.75;2.75;0.0;0.0;0.0;0.0;0.0;0.0;0.0;0.0;0.0;0.0;-0.225586;-0.000977;0.983398;-0.98;-0.21;0.42;385.0;-0.327239;-0.072493
0.76;0.25;0.25;0.0;0.25;0.0;0.0;0.0;0.0;0.0;0.0;0.0;0.0;0.0;0.0;0.0;0.0;-0.207031;-0.005371;0.97998;-8.89;3.71;27.09;7.0;0.0;0.0;9.25;11.25;7.25;9.5;0.75;2.25;0.0;0.0;0.0;0.0;0.0;0.0;0.0;0.0;0.0;0.0;-0.22998;0.004883;0.97998;-1.26;-0.14;0.49;381.0;-0.330769;-0.069911
0.77;0.0;0.25;0.0;0.0;0.0;0.0;0.0;0.0;0.0;0.0;0.0;0.0;0.0;0.0;0.0;0.0;-0.244141;0.022949;0.96582;-7.56;2.17;25.41;2.0;0.0;0.0;9.25;11.25;7.75;9.5;0.75;2.5;0.0;0.25;0.0;0.0;0.0;0.0;0.0;0.0;0.0;0.0;-0.230469;-0.001465;0.981445;-1.54;0.07;0.56;393.0;-0.325968;-0.071977
0.78;0.0;0.5;0.0;0.25;0.0;0.0;0.0;0.0;0.0;0.0;0.0;0.0;0.0;0.0;0.0;0.0;-0.302246;0.081055;0.953125;-4.2;0.56;17.85;7.0;0.0;0.0;9.25;11.25;7.5;9.5;0.75;2.75;0.0;0.25;0.0;0.0;0.0;0.0;0.0;0.0;0.0;0.0;-0.232422;-0.000977;0.986816;-1.12;0.0;0.42;392.0;-0.325261;-0.0743
0.79;0.0;0.75;0.25;0.5;0.0;0.0;0.0;0.0;0.0;0.0;0.0;0.0;0.0;0.0;0.0;0.0;-0.218262;0.038086;0.990234;0.14;-1.33;2.31;14.0;0.0;0.0;9.25;11.25;7.75;9.5;0.75;2.5;0.0;0.25;0.0;0.0;0.0;0.0;0.0;0.0;0.0;0.0;-0.231445;0.00293;0.978027;-0.91;-0.14;0.63;393.0;-0.325968;-0.071977
0.8;0.0;0.75;0.25;0.5;0.0;0.0;0.0;0.0;0.0;0.0;0.0;0.0;0.0;0.25;0.0;0.0;-0.203613;0.034668;0.979492;-0.77;-1.96;1.61;16.0;0.0;0.0;9.5;11.25;7.5;9.0;0.75;2.25;0.0;0.25;0.0;0.0;0.0;0.0;0.0;0.0;0.0;0.0;-0.228027;0.000488;0.98291;-1.19;0.0;0.7;385.0;-0.328469;-0.068643
0.81;0.0;0.75;0.0;0.25;0.0;0.0;0.0;0.0;0.0;0.0;0.0;0.0;0.0;0.0;0.0;0.0;-0.209473;0.026855;0.980469;-0.21;-2.38;0.98;9.0;0.0;0.0;9.25;11.25;7.25;9.0;1.0;2.75;0.0;0.25;0.0;0.25;0.0;0.0;0.0;0.0;0.0;0.0;-0.22998;0.00293;0.987793;-1.26;-0.07;0.42;390.0;-0.321398;-0.071716
0.82;0.5;0.75;0.0;0.25;0.0;0.0;0.0;0.0;0.0;0.25;0.0;0.0;0.0;0.0;0.0;0.0;-0.210938;0.025879;0.986816;0.14;-3.01;0.7;16.0;0.0;0.0;9.25;11.0;7.0;8.75;1.0;1.75;0.0;0.5;0.0;0.0;0.0;0.0;0.0;0.0;0.0;0.0;-0.231934;-0.003418;0.983887;-1.33;0.07;0.49;374.0;-0.326675;-0.06974
0.83;1.25;1.25;0.25;0.5;0.0;0.0;0.0;0.0;0.0;0.0;0.0;0.0;0.0;0.0;0.0;0.0;-0.20459;0.026367;0.977051;0.84;-3.01;0.35;30.0;0.0;0.0;9.25;11.0;6.75;8.75;0.75;2.0;0.0;0.5;0.0;0.0;0.0;0.0;0.0;0.0;0.0;0.0;-0.233398;0.00293;0.986328;-1.19;-0.14;0.42;371.0;-0.327289;-0.073082
0.84;1.75;1.75;0.25;0.75;0.0;0.0;0.0;0.0;0.0;0.0;0.0;0.0;0.0;0.0;0.0;0.0;-0.208008;0.021973;0.980957;2.03;-2.73;0.07;41.0;0.0;0.0;9.25;11.0;7.0;8.5;1.0;2.5;0.0;0.25;0.0;0.0;0.0;0.0;0.0;0.0;0.0;0.0;-0.226562;-0.003418;0.984375;-0.84;-0.14;0.42;375.0;-0.326379;-0.06976
0.85;1.75;3.0;0.5;1.0;0.0;0.0;0.0;0.0;0.0;0.0;0.0;0.0;0.0;0.0;0.0;0.0;-0.209961;0.018066;0.991211;2.31;-2.38;-0.42;57.0;-0.376541;-0.073608;9.25;10.25;7.0;8.75;0.75;1.5;0.0;0.25;0.0;0.0;0.0;0.25;0.0;0.0;0.0;0.0;-0.228027;-0.006836;0.990723;-0.21;-0.63;0.14;361.0;-0.327145;-0.065979
0.86;2.25;3.0;0.75;1.5;0.25;0.0;0.0;0.0;0.0;0.0;0.0;0.0;0.0;0.0;0.0;0.0;-0.198242;0.02002;0.983398;2.52;-1.82;-0.77;72.0;-0.359353;-0.061629;9.5;10.5;7.0;8.75;0.75;1.75;0.0;0.0;0.0;0.0;0.0;0.25;0.0;0.0;0.0;0.0;-0.231934;-0.005859;0.988281;0.07;-0.7;0.14;365.0;-0.329963;-0.063729
0.87;3.5;2.75;0.5;1.75;0.25;0.25;0.0;0.0;0.0;0.0;0.0;0.0;0.0;0.0;0.0;0.0;-0.195801;0.038574;0.982422;2.73;-1.33;-0.84;84.0;-0.358703;-0.050696;9.5;9.75;6.75;8.5;1.0;1.0;0.0;0.0;0.0;0.0;0.0;0.25;0.0;0.0;0.0;0.0;-0.223145;-0.007324;0.983887;0.35;-0.91;-0.07;349.0;-0.331501;-0.056455
0.88;4.25;4.0;0.75;1.75;0.0;0.5;0.0;0.0;0.0;0.0;0.0;0.0;0.0;0.0;0.0;0.0;-0.207031;0.032227;0.979492;2.1;-0.42;-0.63;104.0;-0.366025;-0.056063;9.5;9.75;6.75;8.5;0.5;2.0;0.0;0.0;0.0;0.0;0.0;0.25;0.0;0.0;0.0;0.0;-0.229492;-0.000977;0.980469;0.77;-0.7;-0.07;354.0;-0.329384;-0.064221
0.89;4.75;4.0;1.25;2.0;0.0;0.5;0.0;0.0;0.0;0.0;0.0;0.0;0.0;0.0;0.0;0.0;-0.206055;0.03125;0.989258;1.75;0.49;-0.42;116.0;-0.361444;-0.046619;9.25;9.75;6.75;8.25;0.5;2.0;0.0;0.25;0.0;0.0;0.0;0.0;0.0;0.0;0.0;0.0;-0.230957;0.003906;0.983887;0.56;-0.07;-0.14;350.0;-0.32975;-0.0659
0.9;5.0;4.25;1.5;2.25;0.25;0.5;0.0;0.0;0.0;0.0;0.0;0.0;0.0;0.0;0.0;0.0;-0.200684;0.030273;0.98291;1.75;1.05;-0.07;128.0;-0.355157;-0.044382;8.75;9.75;6.25;7.75;0.75;1.75;0.0;0.25;0.0;0.0;0.0;0.0;0.0;0.0;0.0;0.0;-0.231445;-0.000977;0.979004;0.42;0.21;-0.07;335.0;-0.330107;-0.065863
0.91;5.75;4.5;1.5;3.0;0.25;0.5;0.0;0.0;0.0;0.0;0.0;0.0;0.0;0.0;0.0;0.0;-0.194336;0.026855;0.987793;2.03;1.68;0.63;145.0;-0.354908;-0.048006;8.25;9.75;6.0;8.0;0.75;1.0;0.0;0.0;0.0;0.0;0.0;0.0;0.0;0.0;0.0;0.0;-0.227539;0.00293;0.985352;-0.35;0.56;-0.0;319.0;-0.336824;-0.062554
0.92;5.25;4.5;1.75;2.5;0.25;0.5;0.0;0.0;0.0;0.0;0.0;0.0;0.0;0.0;0.0;0.0;-0.20752;0.025391;0.984375;1.89;1.96;0.91;138.0;-0.354035;-0.044418;8.75;9.5;6.0;7.75;0.75;1.0;0.0;0.25;0.0;0.0;0.0;0.0;0.0;0.0;0.0;0.0;-0.227051;0.001953;0.97998;-1.05;0.77;0.07;323.0;-0.334167;-0.061649
0.93;5.0;4.5;1.25;2.25;0.25;0.5;0.0;0.0;0.0;0.0;0.0;0.0;0.0;0.0;0.0;0.0;-0.205566;0.038086;0.988281;1.75;2.17;1.12;128.0;-0.357958;-0.049049;8.25;8.75;6.0;7.5;0.5;1.0;0.0;0.0;0.0;0.0;0.0;0.0;0.0;0.0;0.0;0.0;-0.230469;-0.005859;0.986328;-1.26;0.84;0.07;303.0;-0.337172;-0.058018
0.94;5.0;4.5;1.5;2.5;0.5;0.25;0.0;0.0;0.0;0.0;0.0;0.0;0.0;0.0;0.0;0.0;-0.205078;0.031738;0.986328;1.33;2.38;1.19;133.0;-0.354314;-0.043443;7.5;9.0;5.75;7.5;0.75;1.25;0.0;0.0;0.0;0.0;0.0;0.25;0.0;0.0;0.0;0.0;-0.225586;0.003906;0.983398;-1.75;0.84;0.07;303.0;-0.32915;-0.066587
0.95;5.25;4.0;1.5;3.5;0.5;0.0;0.0;0.0;0.0;0.0;0.0;0.0;0.0;0.0;0.0;0.0;-0.198242;0.04541;0.989746;1.19;2.31;1.12;139.0;-0.352058;-0.046127;7.5;8.75;5.75;7.0;0.5;0.5;0.0;0.0;0.0;0.0;0.0;0.25;0.0;0.0;0.0;0.0;-0.229492;0.00293;0.98291;-1.82;0.84;0.14;286.0;-0.335642;-0.058816
0.96;5.75;4.5;2.25;4.0;0.5;0.5;0.0;0.0;0.0;0.0;0.0;0.0;0.0;0.0;0.0;0.0;-0.205078;0.03418;0.984863;1.05;2.17;0.98;165.0;-0.343194;-0.050719;7.5;8.0;5.25;6.0;0.25;0.5;0.0;0.0;0.0;0.0;0.0;0.25;0.0;0.0;0.0;0.0;-0.229492;0.000488;0.992676;-1.33;0.63;0.21;262.0;-0.338913;-0.053908
0.97;5.5;4.75;2.0;4.0;0.0;0.5;0.0;0.0;0.0;0.0;0.0;0.0;0.0;0.0;0.0;0.0;-0.206055;0.041016;0.984863;0.63;2.31;1.05;158.0;-0.351476;-0.0605;7.5;8.0;4.75;6.25;0.5;0.75;0.0;0.25;0.0;0.0;0.0;0.0;0.0;0.0;0.0;0.0;-0.225586;-0.000488;0.982422;-1.12;0.49;0.35;265.0;-0.336781;-0.061466
0.98;5.75;4.75;2.0;3.75;0.0;0.25;0.0;0.25;0.0;0.0;0.0;0.0;0.0;0.0;0.0;0.0;-0.201172;0.036133;0.985352;-0.14;2.24;0.98;158.0;-0.348951;-0.059301;7.25;7.75;5.25;6.0;0.5;0.75;0.0;0.0;0.0;0.0;0.0;0.0;0.0;0.0;0.0;0.0;-0.233398;0.00293;0.989258;-1.12;0.28;0.35;260.0;-0.338938;-0.05322
0.99;5.75;4.75;2.0;4.0;0.0;0.25;0.0;0.0;0.0;0.0;0.0;0.0;0.0;0.0;0.0;0.0;-0.20166;0.03418;0.978027;-0.49;2.31;0.91;157.0;-0.355406;-0.054597;7.25;7.75;4.75;6.0;0.75;0.5;0.0;0.0;0.0;0.0;0.0;0.0;0.0;0.0;0.0;0.0;-0.228027;0.003418;0.98877;-0.91;0.21;0.35;255.0;-0.340128;-0.052802
1.0;5.25;4.75;2.5;4.0;0.25;0.25;0.0;0.0;0.0;0.0;0.0;0.25;0.0;0.0;0.0;0.0;-0.202148;0.039062;0.985352;-0.7;2.1;0.98;163.0;-0.339257;-0.056624;7.25;7.75;5.25;6.0;0.75;0.75;0.0;0.0;0.0;0.0;0.0;0.0;0.0;0.0;0.0;0.0;-0.233398;0.000488;0.984375;-0.98;0.0;0.35;263.0;-0.336896;-0.052125
1.01;5.75;4.75;2.5;4.0;0.5;0.5;0.0;0.25;0.0;0.0;0.0;0.25;0.0;0.0;0.0;0.0;-0.20166;0.039062;0.993652;-0.7;2.17;0.91;176.0;-0.328826;-0.060168;7.25;7.75;4.5;5.75;0.25;0.5;0.0;0.25;0.0;0.0;0.0;0.0;0.0;0.0;0.0;0.0;-0.231445;-0.002441;0.98877;-1.19;0.0;0.21;248.0;-0.341181;-0.059576
1.02;5.75;4.75;2.5;4.0;0.25;0.5;0.0;0.25;0.0;0.25;0.0;0.0;0.0;0.0;0.0;0.0;-0.205078;0.033203;0.979492;-0.77;2.1;1.05;173.0;-0.331457;-0.056949;7.25;7.75;4.5;6.0;0.25;0.25;0.0;0.25;0.0;0.0;0.0;0.0;0.0;0.0;0.0;0.0;-0.225586;0.003418;0.980957;-1.26;0.07;0.35;248.0;-0.342532;-0.059109
1.03;6.5;5.25;3.0;4.0;0.25;0.5;0.0;0.0;0.0;0.25;0.25;0.0;0.0;0.0;0.0;0.0;-0.204102;0.035156;0.98291;-0.98;2.24;1.12;189.0;-0.333087;-0.043768;7.25;7.5;4.5;5.5;0.25;0.5;0.0;0.25;0.0;0.0;0.0;0.0;0.0;0.0;0.0;0.0;-0.22998;0.000488;0.978027;-1.4;0.0;0.42;244.0;-0.341081;-0.056955
1.04;6.25;5.25;2.75;4.0;0.5;0.5;0.0;0.0;0.0;0.0;0.0;0.0;0.0;0.0;0.0;0.0;-0.202637;0.038086;0.980469;-0.98;2.1;1.26;182.0;-0.345134;-0.046635;7.5;7.75;4.75;5.5;0.25;0.5;0.0;0.25;0.0;0.0;0.0;0.0;0.0;0.0;0.0;0.0;-0.231934;-0.006348;0.987793;-1.47;-0.14;0.42;251.0;-0.341534;-0.054818
1.05;6.0;5.25;3.25;4.0;0.5;0.5;0.0;0.25;0.0;0.0;0.0;0.0;0.0;0.0;0.0;0.0;-0.196777;0.033691;0.98877;-0.84;2.24;1.4;188.0;-0.33607;-0.05129;7.5;7.5;4.5;5.5;0.5;0.5;0.0;0.25;0.0;0.0;0.0;0.0;0.0;0.0;0.0;0.0;-0.23291;0.000488;0.984863;-1.33;-0.07;0.35;249.0;-0.339496;-0.054182
1.06;6.0;5.0;2.5;4.0;0.5;0.25;0.0;0.25;0.0;0.0;0.0;0.0;0.0;0.0;0.0;0.0;-0.19873;0.038086;0.983398;-1.05;2.38;1.4;175.0;-0.340791;-0.052906;7.25;7.5;4.5;5.5;0.25;0.5;0.0;0.25;0.0;0.0;0.0;0.0;0.0;0.0;0.0;0.0;-0.231445;0.0;0.980957;-1.26;-0.14;0.21;244.0;-0.341081;-0.056955
1.07;6.25;5.25;3.25;4.0;0.5;0.5;0.0;0.25;0.0;0.0;0.25;0.0;0.0;0.0;0.0;0.0;-0.19873;0.039062;0.97998;-0.7;2.31;1.61;193.0;-0.329909;-0.050125;7.0;7.5;4.75;5.5;0.25;0.5;0.0;0.25;0.0;0.0;0.0;0.0;0.0;0.0;0.0;0.0;-0.232422;0.000977;0.984863;-1.19;-0.14;0.14;244.0;-0.339685;-0.057034
1.08;6.25;5.5;3.0;4.25;0.5;0.5;0.0;0.25;0.0;0.25;0.25;0.25;0.0;0.0;0.0;0.0;-0.203125;0.038086;0.981934;-0.42;2.24;1.61;199.0;-0.317785;-0.056945;7.25;7.5;4.75;5.5;0.25;0.5;0.0;0.25;0.0;0.0;0.0;0.0;0.0;0.0;0.0;0.0;-0.230469;-0.002441;0.986328;-1.33;0.21;0.35;246.0;-0.340297;-0.05544
1.09;6.5;5.5;2.75;4.5;0.5;0.75;0.0;0.25;0.0;0.25;0.0;0.25;0.0;0.0;0.0;0.0;-0.193848;0.03418;0.986328;-0.49;2.73;1.61;202.0;-0.323485;-0.060901;7.25;7.25;4.5;5.25;0.25;0.5;0.0;0.25;0.0;0.0;0.0;0.0;0.0;0.0;0.0;0.0;-0.230469;0.003418;0.985352;-1.47;0.14;0.35;239.0;-0.340977;-0.054233
1.1;6.0;5.5;3.0;4.5;0.5;0.5;0.0;0.25;0.0;0.25;0.0;0.25;0.0;0.0;0.0;0.0;-0.206543;0.03418;0.984375;-0.63;2.94;1.61;197.0;-0.322976;-0.060357;7.0;7.25;4.75;5.25;0.5;0.5;0.0;0.25;0.0;0.0;0.0;0.0;0.0;0.0;0.0;0.0;-0.229004;-0.000488;0.981445;-1.61;0.28;0.35;242.0;-0.33733;-0.053115
1.11;6.0;5.5;3.5;4.5;0.5;0.5;0.0;0.25;0.0;0.25;0.25;0.25;0.0;0.0;0.0;0.0;-0.20459;0.033691;0.983887;-0.56;2.94;1.4;205.0;-0.315118;-0.057274;7.0;7.5;4.5;5.25;0.75;0.5;0.0;0.25;0.0;0.0;0.0;0.0;0.0;0.0;0.0;0.0;-0.233398;-0.001465;0.982422;-2.1;0.49;0.35;244.0;-0.336585;-0.054402
1.12;6.0;5.0;3.5;4.25;0.5;0.75;0.0;0.25;0.0;0.25;0.0;0.25;0.0;0.0;0.0;0.0;-0.202637;0.036621;0.989746;-0.77;2.87;1.26;198.0;-0.317803;-0.054836;7.0;7.25;4.5;5.25;0.25;0.5;0.0;0.0;0.0;0.0;0.0;0.0;0.0;0.0;0.0;0.0;-0.236328;-0.000488;0.983887;-2.1;0.42;0.49;233.0;-0.345239;-0.050859
1.13;6.0;5.25;2.75;4.25;0.5;0.75;0.0;0.5;0.0;0.0;0.0;0.0;0.0;0.0;0.0;0.0;-0.200195;0.029297;0.984863;-0.98;2.8;1.33;191.0;-0.329039;-0.066403;7.0;6.75;4.5;5.0;0.25;0.5;0.0;0.0;0.0;0.0;0.0;0.0;0.0;0.0;0.0;0.0;-0.229004;0.004883;0.980469;-1.75;0.28;0.42;227.0;-0.34455;-0.046792
1.14;5.75;5.25;2.75;4.25;0.5;0.75;0.0;0.5;0.0;0.0;0.25;0.0;0.0;0.0;0.0;0.0;-0.206543;0.034668;0.981445;-1.05;2.73;1.05;191.0;-0.321167;-0.069193;7.25;7.0;4.5;5.0;0.25;0.5;0.0;0.0;0.0;0.0;0.0;0.25;0.0;0.0;0.0;0.0;-0.234375;-0.004883;0.985352;-1.54;0.21;0.63;234.0;-0.340071;-0.048862
1.15;6.25;5.25;2.75;4.25;0.5;0.75;0.0;0.5;0.0;0.0;0.25;0.0;0.0;0.0;0.0;0.0;-0.202148;0.036621;0.982422;-0.98;2.52;1.12;196.0;-0.323155;-0.06489;6.75;6.75;4.25;4.75;0.0;0.5;0.0;0.0;0.0;0.0;0.0;0.0;0.0;0.0;0.0;0.0;-0.234375;-0.003418;0.985352;-1.4;0.28;0.49;217.0;-0.348038;-0.049287
1.16;5.75;5.25;3.25;4.5;0.5;1.0;0.0;0.5;0.0;0.0;0.0;0.5;0.0;0.0;0.0;0.0;-0.202637;0.039551;0.981445;-1.05;2.52;1.12;204.0;-0.31115;-0.074442;6.5;6.75;4.25;5.0;0.0;0.5;0.0;0.0;0.0;0.25;0.0;0.25;0.0;0.0;0.0;0.0;-0.233398;-0.007324;0.982422;-1.26;0.14;0.42;222.0;-0.334378;-0.054432
1.17;5.75;5.25;3.25;4.5;0.5;1.25;0.0;0.25;0.0;0.0;0.0;0.5;0.0;0.0;0.0;0.0;-0.199707;0.036621;0.97998;-1.19;2.52;1.05;203.0;-0.314324;-0.071434;6.5;6.5;4.5;4.75;0.25;0.5;0.0;0.25;0.0;0.0;0.0;0.0;0.0;0.0;0.0;0.0;-0.232422;-0.005859;0.980957;-1.05;0.0;0.49;221.0;-0.338017;-0.052402
1.18;5.75;5.25;3.5;4.25;0.5;1.25;0.0;0.25;0.0;0.0;0.0;0.25;0.0;0.0;0.0;0.0;-0.207031;0.036621;0.983887;-0.98;2.52;1.12;200.0;-0.320345;-0.064765;6.5;6.75;4.5;4.75;0.25;0.5;0.0;0.25;0.0;0.0;0.5;0.0;0.0;0.0;0.0;0.0;-0.23291;-0.001465;0.980957;-1.12;-0.07;0.56;228.0;-0.326885;-0.054788
1.19;5.75;5.25;3.0;4.25;0.5;1.25;0.0;0.25;0.0;0.0;0.25;0.25;0.0;0.0;0.0;0.25;-0.207031;0.036133;0.98877;-1.12;2.59;1.05;199.0;-0.310902;-0.070897;6.25;6.5;4.0;4.5;0.5;0.5;0.0;0.0;0.0;0.25;0.25;0.25;0.0;0.0;0.0;0.0;-0.230469;-0.005371;0.98291;-1.19;-0.28;0.35;217.0;-0.323702;-0.050879
1.2;5.75;5.25;3.0;4.25;0.5;1.0;0.0;0.25;0.0;0.0;0.5;0.0;0.0;0.0;0.0;0.0;-0.20752;0.033203;0.985352;-1.19;2.59;1.12;195.0;-0.317074;-0.064542;6.5;6.5;4.0;4.75;0.25;0.5;0.0;0.0;0.0;0.0;0.0;0.25;0.0;0.0;0.0;0.0;-0.237305;-0.000977;0.986328;-1.26;-0.49;0.28;215.0;-0.338861;-0.05301
1.21;5.75;5.5;3.0;4.25;0.75;0.75;0.0;0.25;0.0;0.25;0.0;0.25;0.0;0.0;0.0;0.0;-0.20459;0.035645;0.986816;-0.91;2.45;1.12;197.0;-0.317791;-0.061427;6.25;6.25;3.75;4.5;0.25;0.25;0.0;0.25;0.0;0.0;0.0;0.0;0.0;0.0;0.0;0.0;-0.233398;-0.00293;0.987305;-1.05;-0.28;0.42;204.0;-0.342064;-0.053611
1.22;5.5;4.75;3.0;4.25;0.5;1.0;0.0;0.25;0.0;0.5;0.0;0.25;0.0;0.0;0.0;0.0;-0.202637;0.036133;0.983398;-0.91;2.45;1.33;191.0;-0.306879;-0.062884;6.25;6.25;4.0;4.5;0.5;0.5;0.0;0.0;0.0;0.5;0.0;0.0;0.0;0.0;0.0;0.0;-0.237793;-0.007812;0.977539;-0.84;-0.42;0.42;212.0;-0.328714;-0.044939
1.23;5.5;4.5;3.5;4.25;0.5;1.25;0.0;0.25;0.0;0.25;0.25;0.0;0.0;0.0;0.0;0.0;-0.198242;0.035156;0.991699;-1.05;2.59;1.26;194.0;-0.309172;-0.059766;6.5;6.25;4.25;4.25;0.5;0.5;0.0;0.0;0.0;0.5;0.0;0.0;0.0;0.0;0.0;0.0;-0.231934;-0.003906;0.98291;-0.91;-0.42;0.35;215.0;-0.329265;-0.039551
1.24;5.75;5.0;3.75;4.5;0.5;1.25;0.0;0.25;0.0;0.25;0.25;0.25;0.0;0.0;0.0;0.25;-0.200195;0.037598;0.984375;-1.05;2.38;1.19;209.0;-0.301631;-0.064393;6.0;6.25;4.0;4.5;0.25;0.5;0.0;0.0;0.0;0.0;0.0;0.0;0.0;0.0;0.0;0.0;-0.234375;-0.00293;0.987793;-1.05;-0.42;0.49;203.0;-0.343706;-0.050602
1.25;5.75;5.25;3.25;4.5;0.5;1.25;0.0;0.5;0.0;0.25;0.5;0.25;0.25;0.0;0.0;0.0;-0.199219;0.040527;0.984375;-1.19;2.38;1.12;213.0;-0.292455;-0.077267;6.75;5.75;4.25;4.5;0.25;0.5;0.0;0.0;0.0;0.0;0.0;0.0;0.0;0.0;0.0;0.0;-0.23291;-0.009277;0.984863;-0.98;-0.42;0.49;208.0;-0.343307;-0.041116
1.26;5.75;5.0;2.75;4.25;0.5;1.25;0.0;0.5;0.0;0.25;0.25;0.25;0.25;0.0;0.0;0.0;-0.201172;0.037109;0.979004;-1.26;2.24;1.05;201.0;-0.298081;-0.078266;7.0;6.25;4.5;4.5;0.5;0.5;0.0;0.0;0.0;0.0;0.0;0.0;0.0;0.0;0.0;0.0;-0.234863;-0.003906;0.981934;-0.98;-0.63;0.49;220.0;-0.341966;-0.039211
1.27;6.0;5.0;2.75;4.25;0.75;1.25;0.0;0.0;0.0;0.25;0.0;0.0;0.0;0.0;0.0;0.0;-0.203125;0.036133;0.985352;-1.33;2.31;0.98;192.0;-0.325244;-0.055587;6.5;6.25;4.75;4.5;0.5;0.75;0.0;0.0;0.0;0.0;0.0;0.0;0.0;0.0;0.0;0.0;-0.230957;0.001465;0.981445;-0.84;-0.28;0.49;220.0;-0.337615;-0.043545
1.28;5.75;5.0;2.75;4.25;0.5;1.25;0.0;0.0;0.0;0.5;0.25;0.0;0.0;0.0;0.0;0.25;-0.203613;0.035156;0.98584;-1.33;2.31;1.05;193.0;-0.308646;-0.060069;6.5;6.0;4.0;4.5;0.5;0.5;0.0;0.25;0.0;0.0;0.0;0.0;0.0;0.0;0.0;0.0;-0.225586;-0.003418;0.987305;-0.84;-0.28;0.42;211.0;-0.336276;-0.050162
1.29;5.75;5.0;3.25;4.25;0.5;1.25;0.0;0.0;0.0;0.25;0.0;0.0;0.0;0.0;0.0;0.25;-0.199219;0.037598;0.98291;-1.47;2.24;0.98;193.0;-0.320875;-0.05696;6.5;6.0;4.0;4.5;0.5;0.25;0.0;0.25;0.0;0.0;0.0;0.0;0.0;0.0;0.0;0.0;-0.23584;-0.004883;0.985352;-0.56;-0.35;0.63;209.0;-0.338467;-0.04751
1.3;5.75;5.25;3.25;4.25;0.5;1.25;0.0;0.0;0.0;0.25;0.25;0.0;0.0;0.25;0.0;0.25;-0.203125;0.040039;0.989258;-1.26;2.45;1.05;200.0;-0.308169;-0.056523;6.5;6.25;4.25;4.0;0.5;0.25;0.0;0.25;0.0;0.0;0.0;0.0;0.0;0.0;0.0;0.0;-0.233398;-0.001953;0.985352;-0.7;-0.42;0.63;209.0;-0.339586;-0.042768
1.31;5.75;5.0;3.25;4.25;0.75;1.25;0.0;0.25;0.0;0.25;0.25;0.5;0.0;0.0;0.0;0.25;-0.203613;0.038574;0.983398;-1.26;2.59;1.05;207.0;-0.294585;-0.067414;6.0;6.25;3.75;4.5;0.75;0.25;0.0;0.25;0.0;0.25;0.0;0.25;0.0;0.0;0.0;0.0;-0.233887;-0.004395;0.975586;-0.77;-0.42;0.56;211.0;-0.323352;-0.054141
1.32;5.75;4.75;3.25;4.25;0.75;1.25;0.0;0.5;0.0;0.25;0.5;0.25;0.0;0.25;0.0;0.0;-0.208496;0.036621;0.980469;-1.26;2.59;0.98;209.0;-0.285814;-0.065974;6.25;6.25;3.75;4.5;0.75;0.0;0.0;0.0;0.0;0.25;0.0;0.25;0.0;0.0;0.0;0.0;-0.240723;0.001953;0.98584;-0.84;-0.35;0.49;208.0;-0.331527;-0.044003
1.33;5.25;4.75;3.0;4.25;0.75;1.25;0.0;0.25;0.0;0.25;0.75;0.0;0.0;0.0;0.0;0.5;-0.20459;0.032715;0.985352;-1.33;2.59;1.05;198.0;-0.286644;-0.069756;6.5;6.5;4.0;4.5;0.25;0.25;0.0;0.25;0.0;0.25;0.25;0.25;0.0;0.0;0.0;0.0;-0.228516;-0.005371;0.986328;-1.05;-0.28;0.56;218.0;-0.323844;-0.053341
1.34;5.5;4.75;3.0;4.25;0.75;1.25;0.0;0.25;0.0;0.25;0.5;0.25;0.0;0.0;0.0;0.25;-0.206543;0.035156;0.985352;-1.19;2.52;1.05;200.0;-0.29223;-0.06829;6.5;6.25;4.0;4.5;0.25;0.5;0.0;0.0;0.0;0.25;0.0;0.0;0.0;0.0;0.0;0.0;-0.239746;0.002441;0.979004;-1.19;-0.35;0.42;210.0;-0.338435;-0.045709
1.35;5.75;4.75;3.25;4.25;0.5;1.0;0.0;0.0;0.0;0.5;0.5;0.25;0.25;0.25;0.0;0.25;-0.20166;0.036133;0.985352;-0.98;2.45;1.19;202.0;-0.284184;-0.057714;6.25;6.0;3.75;4.5;0.25;0.5;0.0;0.0;0.0;0.25;0.0;0.0;0.0;0.0;0.0;0.0;-0.237793;-0.005859;0.985352;-1.4;-0.21;0.56;203.0;-0.337784;-0.047961
1.36;5.75;4.75;3.0;4.25;0.5;1.0;0.0;0.0;0.0;0.5;0.0;0.0;0.0;0.0;0.0;0.25;-0.206543;0.037109;0.985352;-0.91;2.38;1.26;189.0;-0.315703;-0.053349;6.0;6.25;4.25;4.75;0.25;0.5;0.0;0.0;0.0;0.25;0.0;0.0;0.0;0.0;0.0;0.0;-0.230957;-0.000977;0.983398;-1.26;-0.14;0.56;210.0;-0.33548;-0.049688
1.37;5.5;4.75;3.5;4.25;0.5;1.25;0.0;0.25;0.0;0.0;0.0;0.5;0.0;0.0;0.0;0.25;-0.200684;0.033691;0.98877;-0.7;2.45;1.19;197.0;-0.306511;-0.06908;6.5;6.25;3.5;4.5;0.5;0.5;0.0;0.25;0.0;0.25;0.25;0.0;0.0;0.0;0.0;0.0;-0.23584;0.0;0.97998;-1.4;-0.07;0.63;213.0;-0.326022;-0.054111
1.38;5.5;4.75;3.5;4.25;0.5;1.0;0.0;0.25;0.0;0.25;0.25;0.25;0.0;0.0;0.0;0.25;-0.202148;0.033691;0.986328;-0.42;2.38;1.26;197.0;-0.301714;-0.062705;6.25;6.25;3.5;4.25;0.5;0.5;0.0;0.25;0.0;0.0;0.0;0.0;0.0;0.0;0.0;0.0;-0.23291;-0.007812;0.98291;-0.91;-0.14;0.49;204.0;-0.338703;-0.054554
1.39;5.75;4.75;3.0;4.25;0.5;1.0;0.0;0.0;0.0;0.5;0.25;0.25;0.0;0.0;0.0;0.0;-0.20166;0.039062;0.97998;-0.42;2.45;1.26;192.0;-0.306759;-0.05548;6.0;6.0;3.75;4.25;0.25;0.25;0.0;0.0;0.0;0.0;0.0;0.0;0.0;0.0;0.0;0.0;-0.233887;-0.009277;0.980469;-0.63;0.0;0.56;193.0;-0.347139;-0.046067
1.4;5.25;5.0;3.25;4.25;0.75;1.25;0.0;0.0;0.25;0.5;0.0;0.25;0.0;0.0;0.0;0.0;-0.200195;0.036621;0.98584;-0.42;2.52;1.19;198.0;-0.298759;-0.054253;5.75;5.75;3.25;4.25;0.0;0.25;0.0;0.0;0.0;0.0;0.0;0.0;0.0;0.0;0.0;0.0;-0.229492;0.0;0.984375;-0.56;-0.07;0.42;181.0;-0.350974;-0.052001
1.41;5.75;4.75;3.25;4.0;0.75;1.25;0.0;0.25;0.0;0.75;0.5;0.0;0.0;0.0;0.0;0.25;-0.200684;0.037109;0.986328;-0.63;2.66;1.19;204.0;-0.286764;-0.056584;6.0;5.75;4.0;4.25;0.25;0.25;0.0;0.0;0.0;0.0;0.0;0.25;0.0;0.0;0.0;0.0;-0.232422;-0.008301;0.979004;-0.63;0.0;0.49;196.0;-0.338477;-0.046088
1.42;5.5;4.5;3.0;4.25;0.75;1.0;0.0;0.25;0.0;0.75;0.5;0.25;0.0;0.5;0.0;0.5;-0.20459;0.044922;0.985352;-0.56;2.87;1.05;205.0;-0.262875;-0.058539;6.0;5.75;3.75;4.25;0.25;0.25;0.0;0.25;0.0;0.0;0.0;0.0;0.0;0.0;0.0;0.0;-0.234863;-0.003418;0.980469;-0.56;-0.07;0.35;195.0;-0.340405;-0.050945
1.43;5.75;4.5;3.5;4.0;1.0;1.25;0.0;0.5;0.0;0.25;0.5;0.25;0.25;0.25;0.0;0.5;-0.204102;0.03418;0.98584;-0.77;2.73;1.05;214.0;-0.270566;-0.066357;5.75;5.75;3.5;4.25;0.25;0.25;0.0;0.0;0.0;0.25;0.25;0.0;0.0;0.0;0.0;0.0;-0.23291;-0.002441;0.98584;-0.63;0.0;0.56;191.0;-0.332265;-0.047979
1.44;5.5;4.75;3.75;4.0;1.0;1.25;0.0;0.5;0.0;0.0;0.0;0.5;0.0;0.0;0.0;0.25;-0.208984;0.03418;0.986816;-0.77;2.73;1.12;206.0;-0.296851;-0.067487;6.0;5.75;3.75;4.25;0.25;0.25;0.0;0.0;0.0;0.25;0.5;0.25;0.0;0.0;0.0;0.0;-0.233398;-0.011719;0.983887;-0.56;0.0;0.42;201.0;-0.319081;-0.048172
1.45;5.25;4.5;3.0;4.25;0.75;1.25;0.0;0.5;0.25;0.25;0.25;0.5;0.0;0.0;0.0;0.25;-0.205078;0.036621;0.979492;-1.05;2.8;1.05;202.0;-0.276804;-0.071996;6.0;5.5;3.75;4.0;0.5;0.25;0.0;0.25;0.0;0.25;0.25;0.0;0.0;0.0;0.0;0.0;-0.233887;-0.003906;0.987793;-0.63;-0.07;0.49;197.0;-0.323648;-0.045478
1.46;5.0;4.5;2.75;4.25;0.75;1.25;0.0;0.5;0.25;0.0;0.5;0.5;0.0;0.0;0.0;0.25;-0.208008;0.035645;0.991211;-0.91;2.66;1.05;197.0;-0.275564;-0.078443;6.0;5.5;3.5;4.0;0.5;0.5;0.0;0.25;0.0;0.5;0.0;0.0;0.0;0.0;0.0;0.0;-0.233887;-0.005371;0.977539;-0.77;0.0;0.63;197.0;-0.322107;-0.047917
1.47;5.0;4.0;2.75;4.0;1.0;0.75;0.0;0.5;0.25;0.25;0.25;0.75;0.0;0.0;0.0;0.0;-0.199219;0.039062;0.982422;-1.05;2.45;1.05;189.0;-0.271378;-0.066504;6.0;5.75;3.25;4.0;0.5;0.25;0.0;0.0;0.0;0.5;0.0;0.0;0.0;0.0;0.0;0.0;-0.231934;-0.001465;0.986328;-0.91;0.0;0.7;191.0;-0.33177;-0.041857
1.48;5.25;4.25;2.75;4.0;1.25;0.75;0.0;0.5;0.25;0.25;0.25;0.5;0.0;0.25;0.0;0.25;-0.208984;0.038574;0.987305;-1.05;2.59;0.98;196.0;-0.267747;-0.060153;6.0;5.5;4.0;4.0;0.5;0.0;0.0;0.0;0.0;0.5;0.25;0.0;0.0;0.0;0.0;0.0;-0.234863;-0.005859;0.980469;-0.7;-0.14;0.56;196.0;-0.323743;-0.03338
1.49;5.0;4.25;2.75;4.0;0.75;1.25;0.0;0.5;0.0;0.0;0.25;0.0;0.25;0.0;0.0;0.25;-0.205566;0.033691;0.979492;-1.05;2.31;1.12;184.0;-0.296877;-0.079152;6.25;5.5;4.0;4.0;0.5;0.5;0.0;0.25;0.0;0.25;0.25;0.25;0.0;0.0;0.0;0.0;-0.239258;-0.005859;0.98584;-0.84;-0.21;0.7;207.0;-0.31557;-0.047701
1.5;4.75;4.25;2.75;4.25;0.75;1.25;0.0;0.5;0.0;0.25;0.5;0.0;0.25;0.0;0.0;0.25;-0.200195;0.033691;0.984375;-0.98;2.45;1.05;189.0;-0.282018;-0.08211;5.75;5.5;4.0;3.5;0.75;0.25;0.0;0.0;0.0;0.0;0.25;0.25;0.0;0.0;0.0;0.0;-0.233398;-0.006836;0.98291;-0.56;-0.21;0.63;191.0;-0.326169;-0.037714
1.51;5.25;4.5;2.75;4.0;0.75;1.25;0.0;0.5;0.0;0.5;0.0;0.0;0.25;0.0;0.0;0.5;-0.204102;0.031738;0.98877;-0.77;2.59;1.12;192.0;-0.28843;-0.075309;5.5;5.5;3.25;3.5;0.5;0.25;0.0;0.0;0.0;0.5;0.0;0.5;0.0;0.0;0.0;0.0;-0.23877;-0.003906;0.980957;-0.56;-0.28;0.63;184.0;-0.31594;-0.045989
1.52;5.25;4.5;3.0;4.0;1.0;1.5;0.0;0.5;0.0;0.5;0.0;0.5;0.25;0.0;0.0;0.5;-0.206055;0.038086;0.980957;-0.77;2.59;1.26;204.0;-0.272723;-0.079182;5.75;5.5;3.25;3.5;0.5;0.0;0.0;0.0;0.0;0.5;0.0;0.25;0.0;0.0;0.0;0.0;-0.23291;-0.005859;0.978516;-0.56;-0.35;0.77;181.0;-0.326328;-0.037524
1.53;5.5;4.25;3.0;3.75;0.75;1.0;0.0;0.5;0.0;0.25;0.25;0.5;0.25;0.25;0.0;0.5;-0.199219;0.033203;0.987305;-0.77;2.66;1.19;197.0;-0.270828;-0.070646;5.75;5.5;3.25;4.0;0.5;0.25;0.0;0.25;0.0;0.25;0.0;0.0;0.0;0.0;0.0;0.25;-0.23291;-0.010254;0.980469;-0.56;-0.49;0.84;189.0;-0.326666;-0.051943
1.54;5.75;4.25;2.75;4.0;0.5;1.0;0.0;0.5;0.0;0.25;0.5;0.25;0.25;0.25;0.0;0.25;-0.203613;0.039551;0.983887;-1.05;2.73;1.19;195.0;-0.278479;-0.070461;5.5;5.25;3.25;3.5;0.5;0.25;0.0;0.25;0.0;0.25;0.0;0.0;0.0;0.0;0.0;0.0;-0.234375;-0.001465;0.981934;-0.56;-0.56;0.63;178.0;-0.330509;-0.046018
1.55;5.0;4.25;3.25;4.0;0.5;1.25;0.0;0.5;0.0;0.5;0.25;0.25;0.25;0.0;0.0;0.25;-0.205566;0.038574;0.987305;-1.12;2.8;1.12;194.0;-0.278764;-0.075716;5.25;5.25;3.25;3.5;0.75;0.25;0.0;0.0;0.0;0.25;0.0;0.0;0.0;0.0;0.0;0.0;-0.239258;-0.006836;0.983398;-0.7;-0.7;0.84;175.0;-0.332905;-0.039688
1.56;5.0;4.25;3.0;4.0;1.0;1.25;0.0;0.5;0.25;0.5;0.25;0.0;0.25;0.0;0.0;0.25;-0.206055;0.034668;0.981445;-1.19;2.73;1.12;197.0;-0.272863;-0.066333;5.5;5.25;3.75;3.5;0.75;0.5;0.0;0.25;0.0;0.25;0.0;0.0;0.0;0.0;0.0;0.0;-0.231934;-0.004883;0.978027;-0.84;-0.63;0.77;188.0;-0.323642;-0.043912
1.57;4.75;4.0;2.5;3.75;0.75;1.25;0.0;0.5;0.25;0.25;0.5;0.0;0.25;0.0;0.0;0.5;-0.205566;0.036621;0.985352;-1.19;2.66;1.12;183.0;-0.267383;-0.075382;5.25;5.25;3.0;2.75;0.25;0.5;0.0;0.25;0.0;0.5;0.25;0.25;0.0;0.0;0.0;0.0;-0.23584;-0.009277;0.975586;-0.91;-0.77;0.77;173.0;-0.309626;-0.050123
1.58;4.75;4.0;2.5;3.5;0.75;1.25;0.0;0.5;0.25;0.25;0.0;0.0;0.25;0.25;0.25;0.25;-0.205078;0.041992;0.983398;-1.19;2.73;1.19;179.0;-0.26816;-0.06788;5.25;5.25;3.0;3.25;0.25;0.5;0.0;0.0;0.0;0.25;0.0;0.25;0.0;0.0;0.0;0.25;-0.234375;-0.005859;0.980469;-0.91;-0.84;0.77;171.0;-0.325307;-0.050894
1.59;4.75;4.25;2.5;3.5;0.75;1.25;0.0;0.5;0.0;0.5;0.25;0.5;0.25;0.25;0.0;0.25;-0.205078;0.039062;0.987305;-1.19;2.66;1.19;185.0;-0.26178;-0.079188;5.25;5.25;3.25;3.75;0.25;0.5;0.0;0.0;0.0;0.25;0.0;0.0;0.0;0.0;0.0;0.25;-0.232422;-0.004395;0.98291;-0.91;-0.77;0.84;176.0;-0.330703;-0.050463
1.6;4.75;4.0;2.0;3.25;0.75;1.25;0.0;0.5;0.25;0.5;0.5;0.5;0.0;0.25;0.0;0.25;-0.201172;0.037109;0.989258;-1.26;2.66;1.19;179.0;-0.249119;-0.071255;5.25;5.0;3.5;2.75;0.75;0.5;0.0;0.25;0.0;0.25;0.25;0.25;0.0;0.0;0.0;0.0;-0.22998;-0.000488;0.988281;-0.7;-0.91;0.91;178.0;-0.309243;-0.043142
1.61;4.75;4.0;2.75;3.5;0.75;1.5;0.0;0.5;0.25;0.5;0.75;0.25;0.0;0.25;0.0;0.25;-0.205078;0.040039;0.985352;-1.26;2.59;1.19;192.0;-0.248855;-0.067203;5.25;5.0;3.25;2.5;0.25;0.25;0.0;0.25;0.0;0.0;0.0;0.25;0.0;0.0;0.0;0.25;-0.236328;-0.009766;0.978516;-0.77;-0.7;0.91;162.0;-0.329172;-0.044705
1.62;4.75;4.25;3.0;3.75;1.0;1.5;0.0;0.5;0.25;0.25;0.5;0.5;0.25;0.0;0.0;0.25;-0.202637;0.033691;0.982422;-1.19;2.66;1.12;199.0;-0.258069;-0.076707;5.0;4.5;3.0;3.5;0.25;0.5;0.0;0.5;0.0;0.25;0.0;0.0;0.0;0.0;0.0;0.25;-0.23291;-0.007324;0.983398;-0.63;-0.63;0.84;169.0;-0.315001;-0.061938
1.63;4.75;4.0;2.75;3.5;1.0;1.0;0.0;0.5;0.0;0.25;0.0;0.5;0.25;0.0;0.0;0.5;-0.202637;0.045898;0.983398;-1.19;2.66;1.19;180.0;-0.275713;-0.076964;5.0;4.5;2.75;3.25;0.25;0.5;0.0;0.5;0.0;0.5;0.25;0.0;0.0;0.0;0.0;0.0;-0.23291;-0.010742;0.980957;-0.63;-0.7;0.91;167.0;-0.305586;-0.05891
1.64;4.5;4.0;2.75;3.25;1.0;1.0;0.0;0.5;0.0;0.5;0.25;0.5;0.0;0.0;0.0;0.5;-0.210938;0.039062;0.983887;-1.19;2.52;1.33;178.0;-0.265214;-0.071694;4.5;4.5;3.25;3.0;0.25;0.5;0.0;0.5;0.0;0.25;0.0;0.25;0.0;0.0;0.0;0.0;-0.237793;-0.006348;0.980957;-0.63;-0.63;0.91;163.0;-0.309914;-0.061048
1.65;4.5;3.75;2.75;3.5;1.25;0.75;0.0;0.5;0.0;0.5;0.5;0.5;0.25;0.0;0.0;0.5;-0.200684;0.040527;0.979492;-1.12;2.66;1.26;183.0;-0.252248;-0.072973;5.25;5.0;2.75;3.25;0.5;0.5;0.0;0.5;0.0;0.0;0.0;0.25;0.0;0.0;0.25;0.0;-0.233887;-0.00293;0.98291;-0.7;-0.7;0.77;174.0;-0.312199;-0.06366
1.66;4.75;4.0;2.75;3.75;1.0;0.75;0.0;0.5;0.25;0.0;0.5;0.25;0.5;0.0;0.0;0.5;-0.203613;0.030762;0.984863;-1.26;2.59;1.19;185.0;-0.264138;-0.07477;4.75;5.0;3.75;3.5;0.25;0.75;0.0;0.5;0.0;0.25;0.0;0.25;0.0;0.0;0.0;0.0;-0.235352;-0.003906;0.982422;-0.77;-0.63;0.7;182.0;-0.309581;-0.06446
1.67;4.75;4.0;2.75;3.75;1.0;0.5;0.0;0.5;0.0;0.25;0.75;0.25;0.25;0.0;0.0;0.5;-0.20459;0.034668;0.98584;-1.19;2.59;1.19;183.0;-0.265929;-0.072304;4.5;4.75;3.75;3.25;0.25;0.5;0.0;0.25;0.0;0.25;0.0;0.25;0.0;0.0;0.0;0.0;-0.23291;-0.003418;0.981445;-0.77;-0.42;0.77;169.0;-0.315682;-0.053453
1.68;4.75;3.5;2.5;3.5;1.0;0.75;0.0;0.5;0.0;0.75;0.5;0.5;0.0;0.5;0.0;0.5;-0.200684;0.038574;0.98584;-1.26;2.52;1.19;183.0;-0.237848;-0.062275;4.75;4.5;3.0;3.25;0.25;0.5;0.0;0.25;0.0;0.25;0.5;0.5;0.0;0.0;0.0;0.0;-0.237305;-0.007324;0.983398;-0.84;-0.49;0.7;169.0;-0.295092;-0.061471
1.69;4.25;3.5;2.25;3.75;0.75;1.0;0.0;0.5;0.0;0.75;0.25;0.5;0.0;0.25;0.0;0.5;-0.203613;0.035645;0.987305;-1.12;2.59;1.19;174.0;-0.247763;-0.078291;4.75;4.5;3.0;2.25;0.5;0.5;0.0;0.25;0.0;0.5;0.25;0.5;0.0;0.0;0.0;0.0;-0.233398;-0.002441;0.977539;-0.77;-0.35;0.77;161.0;-0.292755;-0.046756
1.7;4.5;3.5;2.25;3.5;0.75;1.25;0.0;0.5;0.0;1.0;0.5;0.5;0.25;0.25;0.0;0.25;-0.208008;0.035156;0.990234;-1.33;2.59;1.26;181.0;-0.234882;-0.077719;4.75;4.5;2.75;2.25;0.75;0.5;0.0;0.25;0.0;0.5;0.0;0.25;0.0;0.0;0.0;0.25;-0.235352;0.001465;0.979492;-0.7;-0.35;0.7;158.0;-0.300904;-0.044493
1.71;4.75;4.0;2.5;3.25;1.0;0.5;0.0;0.5;0.0;0.5;0.5;0.5;0.25;0.5;0.0;0.25;-0.205566;0.030762;0.98584;-1.26;2.45;1.19;180.0;-0.248466;-0.063873;4.75;4.5;2.75;2.75;0.75;0.5;0.0;0.5;0.0;0.5;0.0;0.0;0.0;0.0;0.0;0.25;-0.235352;-0.002441;0.987305;-0.98;-0.28;0.77;164.0;-0.301888;-0.053678
1.72;5.0;4.0;2.5;4.0;1.0;0.5;0.0;0.5;0.0;0.5;0.5;0.5;0.25;0.25;0.0;0.25;-0.206055;0.036133;0.986816;-1.12;2.45;1.19;188.0;-0.258835;-0.070644;4.75;4.5;2.75;2.75;0.5;0.5;0.0;0.5;0.0;0.5;0.0;0.25;0.0;0.0;0.0;0.25;-0.233887;-0.002441;0.983887;-1.05;-0.42;0.7;164.0;-0.297065;-0.059004
1.73;4.75;3.5;2.75;3.25;1.0;0.5;0.0;0.5;0.25;0.25;0.75;0.75;0.25;0.0;0.0;0.5;-0.19873;0.034668;0.987793;-1.26;2.52;1.33;181.0;-0.240571;-0.066128;4.75;4.75;3.0;2.5;0.25;0.25;0.0;0.25;0.0;0.25;0.25;0.25;0.0;0.0;0.0;0.25;-0.23584;-0.003906;0.984375;-0.84;-0.35;0.84;158.0;-0.309775;-0.04931
1.74;4.5;4.0;2.75;3.5;1.0;0.5;0.0;0.25;0.25;0.25;0.25;0.75;0.5;0.25;0.0;0.5;-0.203613;0.033691;0.980469;-1.26;2.66;1.26;181.0;-0.248332;-0.067096;5.0;4.5;3.0;3.25;0.5;0.5;0.0;0.25;0.0;0.0;0.0;0.0;0.0;0.0;0.0;0.0;-0.235352;0.0;0.987793;-0.84;-0.35;0.7;162.0;-0.332355;-0.050326
1.75;4.75;3.75;2.5;4.0;1.25;0.75;0.0;0.5;0.25;0.5;0.25;0.75;0.25;0.25;0.0;0.5;-0.202148;0.038086;0.980469;-1.33;2.66;1.19;193.0;-0.240393;-0.071167;5.0;4.5;3.75;2.75;0.75;0.25;0.0;0.25;0.0;0.25;0.0;0.0;0.0;0.0;0.0;0.0;-0.234863;-0.001465;0.984375;-1.05;-0.49;0.77;167.0;-0.322041;-0.032053
1.76;4.5;3.75;2.5;2.75;1.25;1.0;0.0;0.5;0.0;0.25;0.5;0.5;0.25;0.5;0.0;0.5;-0.202148;0.037598;0.987305;-1.54;2.66;1.26;177.0;-0.241111;-0.067978;5.0;4.5;3.25;3.0;0.75;0.25;0.0;0.25;0.0;0.5;0.5;0.0;0.0;0.0;0.0;0.25;-0.234375;-0.002441;0.98584;-1.05;-0.28;0.63;173.0;-0.295348;-0.041476
1.77;4.75;3.5;2.25;2.75;1.0;1.0;0.25;0.5;0.0;0.25;0.25;0.25;0.25;0.25;0.0;0.5;-0.203613;0.035156;0.987793;-1.4;2.52;1.26;169.0;-0.256514;-0.061079;5.0;4.5;2.75;3.0;0.75;0.5;0.0;0.25;0.0;0.25;0.25;0.0;0.0;0.0;0.0;0.25;-0.233398;-0.009766;0.985352;-1.12;-0.42;0.63;165.0;-0.30937;-0.049432
1.78;4.5;3.5;2.0;2.75;1.0;1.25;0.25;0.5;0.0;0.5;0.25;0.75;0.0;0.0;0.0;0.5;-0.200195;0.038086;0.983398;-1.54;2.73;1.26;170.0;-0.245307;-0.071765;4.75;4.5;3.25;2.75;0.75;0.75;0.0;0.5;0.0;0.25;0.0;0.0;0.0;0.0;0.0;0.0;-0.23291;-0.002441;0.981934;-1.12;-0.35;0.77;168.0;-0.311172;-0.052312
1.79;4.25;4.0;2.25;3.25;1.0;1.0;0.25;0.5;0.25;0.5;0.75;0.25;0.5;0.0;0.0;0.5;-0.205566;0.033691;0.983398;-1.61;2.73;1.26;184.0;-0.232375;-0.07357;4.5;4.5;3.0;3.25;0.75;0.25;0.0;0.5;0.0;0.25;0.0;0.0;0.0;0.25;0.0;0.0;-0.227539;-0.006836;0.974609;-1.19;-0.49;0.91;165.0;-0.306069;-0.052689
1.8;4.25;4.0;2.5;2.25;1.25;1.0;0.25;0.5;0.0;0.5;0.5;0.0;0.25;0.25;0.0;0.5;-0.20459;0.038574;0.987793;-1.68;2.8;1.19;171.0;-0.246588;-0.055239;4.75;4.5;3.0;3.25;0.75;0.25;0.0;0.5;0.0;0.25;0.0;0.5;0.0;0.0;0.0;0.25;-0.23584;-0.006836;0.989746;-0.7;-0.56;0.91;172.0;-0.296231;-0.061819
1.81;4.0;3.5;2.5;2.5;1.25;1.25;0.0;0.5;0.25;0.5;0.0;0.5;0.25;0.0;0.25;0.5;-0.203125;0.032227;0.989746;-1.61;2.66;1.26;169.0;-0.235879;-0.068997;5.25;4.75;3.25;2.75;0.75;0.5;0.0;0.5;0.0;0.5;0.0;0.25;0.0;0.25;0.0;0.25;-0.23584;-0.007324;0.978516;0.07;-0.49;1.12;180.0;-0.29028;-0.047408
1.82;3.75;3.5;2.25;2.75;1.0;1.25;0.0;0.5;0.0;0.25;0.0;0.5;0.25;0.0;0.0;0.5;-0.202148;0.035645;0.986328;-1.54;2.8;1.19;157.0;-0.262015;-0.087222;5.0;4.5;2.75;3.25;0.75;0.5;0.0;0.5;0.0;0.25;0.0;0.0;0.0;0.0;0.0;0.25;-0.22998;-0.006836;0.983398;0.42;-0.49;1.19;169.0;-0.310519;-0.058139
1.83;4.5;3.0;2.5;2.75;1.0;1.25;0.0;0.5;0.25;0.25;0.25;0.5;0.0;0.25;0.0;0.5;-0.201172;0.029785;0.981934;-1.47;2.73;1.12;167.0;-0.245204;-0.060632;4.25;4.75;2.5;3.75;0.75;0.5;0.0;0.5;0.0;0.25;0.25;0.25;0.0;0.0;0.25;0.5;-0.237793;-0.00293;0.98291;0.42;-0.49;1.12;175.0;-0.278811;-0.079376
1.84;4.5;3.25;2.0;2.75;1.0;1.25;0.0;0.5;0.25;0.5;0.5;0.5;0.0;0.5;0.0;0.5;-0.205078;0.036621;0.979004;-1.33;2.73;1.26;171.0;-0.225867;-0.062725;4.5;5.0;3.5;3.5;0.75;0.5;0.0;0.5;0.0;0.5;0.25;0.5;0.0;0.25;0.0;0.5;-0.235352;-0.001953;0.979492;0.14;-0.42;1.12;191.0;-0.270037;-0.065387
1.85;4.5;3.5;2.0;3.25;0.75;1.0;0.0;0.25;0.0;0.5;0.5;0.25;0.0;0.5;0.0;0.5;-0.20459;0.037598;0.987793;-1.19;2.52;1.12;164.0;-0.252522;-0.063471;5.0;4.75;3.25;4.0;0.75;0.5;0.0;0.5;0.0;0.25;0.25;0.5;0.0;0.25;0.0;0.25;-0.233398;0.001953;0.989746;-0.0;-0.35;1.05;193.0;-0.282603;-0.066194
1.86;4.25;3.0;2.0;2.75;0.75;1.25;0.0;0.25;0.0;0.5;0.5;0.25;0.25;0.5;0.25;0.5;-0.211914;0.036621;0.979492;-1.19;2.59;1.12;160.0;-0.228054;-0.066765;4.75;4.5;2.75;4.0;0.75;0.5;0.0;0.5;0.0;0.25;0.0;0.25;0.0;0.0;0.0;0.25;-0.233398;-0.004395;0.986328;-0.14;-0.21;0.98;177.0;-0.301189;-0.070732
1.87;4.25;3.0;2.0;2.25;0.75;1.0;0.0;0.5;0.0;0.5;0.5;0.5;0.25;0.25;0.0;0.5;-0.203613;0.038574;0.981445;-1.12;2.38;1.19;154.0;-0.233714;-0.072075;4.75;4.75;3.25;3.5;0.75;0.5;0.0;0.5;0.0;0.25;0.25;0.25;0.0;0.0;0.5;0.0;-0.237305;-0.003906;0.986328;-0.42;-0.07;1.05;185.0;-0.28101;-0.062453
1.88;4.25;2.75;2.25;3.5;1.25;1.0;0.0;0.5;0.25;0.5;0.25;0.5;0.0;0.0;0.0;0.5;-0.206543;0.031738;0.98291;-0.91;2.45;1.19;168.0;-0.242777;-0.067358;4.25;4.75;3.5;3.5;0.75;0.75;0.0;0.5;0.0;0.25;0.25;0.75;0.25;0.0;0.0;0.25;-0.231934;-0.002441;0.984375;-0.56;-0.21;0.98;188.0;-0.272078;-0.078849
1.89;4.25;3.25;2.5;3.5;1.25;1.25;0.0;0.5;0.25;0.5;0.25;0.25;0.0;0.0;0.25;0.75;-0.207031;0.036621;0.981934;-1.05;2.45;1.12;179.0;-0.239043;-0.069145;4.25;4.25;3.0;3.75;0.75;0.75;0.0;0.5;0.0;0.25;0.5;0.25;0.0;0.25;0.0;0.25;-0.236816;-0.007812;0.984375;-0.42;-0.21;1.05;179.0;-0.272852;-0.071227
1.9;4.25;3.5;2.5;3.0;0.5;1.25;0.0;0.5;0.25;0.5;0.5;0.25;0.25;0.0;0.25;0.25;-0.206543;0.039062;0.981934;-0.98;2.45;1.19;170.0;-0.242315;-0.073196;4.0;4.5;2.5;3.5;0.75;0.75;0.0;0.5;0.0;0.5;0.0;0.25;0.0;0.25;0.0;0.5;-0.235352;-0.008301;0.986816;-0.42;-0.21;0.91;170.0;-0.275033;-0.076095
1.91;4.25;3.75;2.5;3.25;0.5;1.0;0.0;0.5;0.0;0.5;0.5;0.5;0.0;0.0;0.0;0.25;-0.205566;0.038574;0.987793;-1.05;2.31;1.26;167.0;-0.263196;-0.07833;3.75;4.75;2.75;3.5;0.5;1.0;0.0;0.5;0.0;0.5;0.0;0.0;0.25;0.0;0.0;0.5;-0.234863;-0.006348;0.980957;-0.35;-0.14;0.84;170.0;-0.284839;-0.086543
1.92;4.25;4.0;2.25;3.25;0.75;1.0;0.25;0.5;0.25;0.5;0.75;0.25;0.0;0.25;0.0;0.5;-0.205078;0.03418;0.984863;-0.84;2.24;1.4;179.0;-0.23579;-0.064085;4.25;4.5;2.75;3.25;0.5;1.0;0.0;0.5;0.0;0.5;0.0;0.25;0.0;0.0;0.0;0.0;-0.234863;-0.002441;0.986328;-0.42;-0.14;0.91;168.0;-0.294384;-0.073141
1.93;4.75;4.0;2.25;3.25;0.75;1.25;0.0;0.5;0.0;0.5;0.75;0.5;0.5;0.25;0.0;0.5;-0.20166;0.039062;0.980957;-0.7;2.17;1.4;186.0;-0.238316;-0.085159;4.5;5.0;3.0;3.25;0.5;1.0;0.0;0.75;0.0;0.5;0.0;0.5;0.0;0.0;0.0;0.0;-0.237305;-0.004883;0.984863;-0.49;-0.14;0.84;183.0;-0.286198;-0.079651
1.94;4.5;3.75;2.5;3.25;0.75;1.25;0.0;0.5;0.25;0.5;0.75;0.5;0.5;0.25;0.0;0.25;-0.20459;0.036621;0.979004;-0.7;2.1;1.4;186.0;-0.230638;-0.077007;4.25;4.75;2.75;2.25;0.75;0.5;0.0;0.5;0.0;0.75;0.0;0.5;0.0;0.0;0.0;0.5;-0.232422;-0.004395;0.979492;-0.42;-0.14;0.84;165.0;-0.273052;-0.061933
1.95;4.5;3.25;2.5;3.5;1.0;1.25;0.0;0.75;0.25;0.75;0.5;0.25;0.5;0.25;0.0;0.25;-0.205566;0.040527;0.983398;-0.49;2.17;1.47;188.0;-0.227287;-0.075874;4.0;4.5;2.5;2.0;0.75;0.5;0.0;0.5;0.0;0.25;0.5;0.75;0.0;0.0;0.0;0.25;-0.233398;-0.004883;0.980957;-0.42;0.07;0.77;156.0;-0.267001;-0.070043
1.96;4.25;3.0;2.5;3.5;1.0;1.5;0.0;0.75;0.0;0.25;0.75;0.25;0.5;0.0;0.0;0.25;-0.205078;0.030273;0.986328;-0.42;2.38;1.47;179.0;-0.243149;-0.092891;4.0;4.5;2.75;2.0;0.75;0.25;0.0;0.5;0.0;0.0;0.25;0.5;0.0;0.0;0.0;0.25;-0.238281;-0.000488;0.978516;-0.21;0.21;0.91;149.0;-0.292565;-0.061693
1.97;4.25;3.75;2.5;3.75;1.0;1.25;0.25;0.75;0.25;0.25;0.75;0.5;0.5;0.0;0.0;0.25;-0.211426;0.041504;0.987305;-0.42;2.31;1.61;194.0;-0.231389;-0.085499;4.25;4.25;3.0;2.5;0.75;0.5;0.0;0.5;0.0;0.25;0.0;0.25;0.0;0.25;0.0;0.25;-0.234863;0.001465;0.980957;-0.28;0.07;0.7;159.0;-0.288581;-0.054623
1.98;4.25;4.0;2.75;3.75;1.25;1.5;0.25;0.75;0.25;0.5;0.75;0.5;0.5;0.25;0.0;0.5;-0.20752;0.041504;0.990234;-0.56;2.38;1.54;209.0;-0.216546;-0.08185;4.0;4.0;2.5;2.0;0.75;0.5;0.0;0.5;0.0;0.0;0.25;0.0;0.0;0.25;0.0;0.0;-0.234863;0.000488;0.986816;-0.35;0.14;0.84;141.0;-0.300083;-0.051475
1.99;4.25;4.0;2.75;3.0;1.0;1.5;0.0;0.5;0.25;0.75;1.0;0.5;0.5;0.25;0.0;0.5;-0.203613;0.037109;0.985352;-0.7;2.38;1.61;197.0;-0.212958;-0.077136;2.75;4.25;2.0;2.25;0.75;0.5;0.0;0.5;0.0;0.0;0.25;0.0;0.5;0.0;0.0;0.0;-0.237305;-0.002441;0.98584;-0.42;0.0;0.91;131.0;-0.290035;-0.09263
2.0;4.25;4.0;2.25;3.75;1.0;1.5;0.0;0.5;0.5;0.75;1.0;0.5;0.5;0.0;0.0;0.5;-0.202148;0.035645;0.98291;-0.84;2.31;1.54;200.0;-0.213506;-0.084156;2.75;4.25;2.5;2.5;0.75;0.25;0.0;0.5;0.0;0.25;0.0;0.5;0.25;0.25;0.0;0.0;-0.237793;-0.004395;0.979492;-0.49;-0.07;0.84;141.0;-0.270957;-0.080122
2.01;4.25;4.0;2.0;4.0;0.75;2.0;0.0;0.75;0.25;0.5;1.25;0.5;0.5;0.25;0.0;0.5;-0.20459;0.036621;0.980957;-0.84;2.24;1.33;205.0;-0.210982;-0.104418;3.25;4.25;1.75;2.25;0.5;0.25;0.0;0.5;0.0;0.25;0.0;0.5;0.0;0.5;0.0;0.25;-0.236816;-0.00293;0.978516;-0.49;-0.14;0.91;134.0;-0.269072;-0.075803
2.02;4.25;4.0;2.25;4.0;1.0;1.75;0.25;0.75;0.25;0.5;0.75;0.75;0.5;0.25;0.25;0.5;-0.203125;0.036621;0.981445;-0.84;2.03;1.33;211.0;-0.204551;-0.094073;3.5;4.25;0.75;2.0;0.25;0.25;0.0;0.5;0.0;0.5;0.0;0.0;0.0;0.25;0.0;0.25;-0.23877;-0.002441;0.980469;-0.49;-0.14;0.91;117.0;-0.295652;-0.078558
2.03;4.25;4.0;2.25;4.0;1.0;1.75;0.0;1.0;0.25;0.5;0.75;1.0;0.5;0.0;0.25;0.5;-0.202637;0.040527;0.984863;-0.98;2.24;1.33;212.0;-0.207061;-0.109295;3.75;3.5;1.0;2.0;0.25;0.25;0.0;0.5;0.0;0.5;0.0;0.25;0.0;0.0;0.0;0.25;-0.235352;-0.007324;0.979004;-0.49;-0.07;0.77;116.0;-0.291999;-0.075087
2.04;4.25;3.75;2.25;4.0;1.25;2.0;0.0;0.75;0.25;0.5;0.5;0.5;0.5;0.0;0.25;0.25;-0.206055;0.039551;0.983887;-0.91;2.31;1.19;203.0;-0.225046;-0.097991;2.75;4.25;1.75;2.25;0.5;0.25;0.0;0.25;0.0;0.5;0.0;0.25;0.25;0.0;0.0;0.25;-0.236816;0.001465;0.984863;-0.56;-0.14;0.84;124.0;-0.28514;-0.08124
2.05;4.25;4.0;2.0;4.0;1.0;2.0;0.0;0.75;0.0;0.5;0.5;0.5;0.5;0.25;0.25;0.5;-0.203613;0.032227;0.983398;-1.05;2.31;1.26;200.0;-0.225122;-0.107323;4.0;3.5;2.0;2.0;0.25;0.25;0.0;0.0;0.0;0.25;0.5;0.0;0.25;0.0;0.0;0.5;-0.235352;-0.001465;0.979492;-0.84;-0.35;0.77;124.0;-0.293592;-0.048945
2.06;4.5;4.0;2.75;4.0;0.75;1.75;0.25;0.75;0.0;0.5;0.75;0.5;0.5;0.0;0.25;0.5;-0.20459;0.04248;0.97998;-1.05;2.45;1.26;209.0;-0.226383;-0.094651;3.5;3.0;2.0;1.75;0.25;0.25;0.0;0.25;0.0;0.5;0.25;0.0;0.0;0.0;0.0;0.25;-0.230957;-0.005371;0.982422;-0.98;-0.42;0.7;113.0;-0.291061;-0.043843
2.07;4.5;3.25;2.0;4.0;1.0;2.0;0.25;0.75;0.0;0.5;0.75;0.5;0.5;0.25;0.0;0.5;-0.206543;0.034668;0.989746;-0.98;2.45;1.26;200.0;-0.218081;-0.097193;3.25;3.5;2.0;1.75;0.5;0.25;0.0;0.25;0.0;0.25;0.0;0.25;0.0;0.25;0.0;0.25;-0.237793;-0.00293;0.979492;-1.05;-0.56;0.63;117.0;-0.289073;-0.051278
2.08;4.5;4.0;3.0;4.25;1.0;2.0;0.25;1.0;0.25;0.75;0.5;0.75;0.5;0.25;0.0;0.75;-0.205566;0.033691;0.985352;-0.91;2.52;1.19;229.0;-0.20932;-0.09319;2.75;3.0;2.25;2.25;0.25;0.5;0.0;0.5;0.0;0.0;0.0;0.25;0.0;0.0;0.0;0.0;-0.23877;-0.010742;0.98584;-1.05;-0.56;0.63;114.0;-0.301417;-0.07941
2.09;4.25;4.0;3.0;4.0;0.5;2.0;0.25;0.75;0.25;0.25;0.75;0.75;0.75;0.25;0.25;0.75;-0.201172;0.038086;0.976074;-0.91;2.66;1.12;217.0;-0.206123;-0.099609;3.5;4.25;2.0;2.25;0.0;0.25;0.0;0.5;0.0;0.25;0.0;0.0;0.0;0.25;0.0;0.0;-0.235352;-0.005859;0.98584;-1.12;-0.56;0.63;126.0;-0.312497;-0.067586
2.1;4.25;4.0;2.5;3.75;0.5;2.0;0.25;0.75;0.0;0.25;1.25;0.75;0.25;0.0;0.25;0.75;-0.20166;0.035645;0.985352;-0.98;2.59;1.05;206.0;-0.213485;-0.104203;3.5;3.75;2.0;2.5;0.25;0.25;0.0;0.5;0.0;0.25;0.0;0.25;0.25;0.5;0.0;0.25;-0.238281;-0.006836;0.98291;-0.98;-0.35;0.7;134.0;-0.271867;-0.073704
2.11;4.25;3.75;2.25;3.5;0.75;1.25;0.25;1.0;0.0;0.5;0.5;0.5;0.0;0.0;0.0;0.75;-0.200684;0.033691;0.983887;-0.91;2.45;1.19;185.0;-0.235864;-0.092233;4.0;1.75;2.0;2.5;0.0;0.5;0.0;0.5;0.0;0.25;0.0;0.0;0.0;0.0;0.0;0.25;-0.234863;0.000488;0.980957;-0.91;-0.21;0.63;114.0;-0.297988;-0.056864
2.12;4.25;3.5;2.75;3.5;0.75;2.0;0.0;1.0;0.25;0.5;0.25;0.5;0.5;0.25;0.0;1.0;-0.204102;0.037109;0.984863;-0.84;2.38;1.12;200.0;-0.217145;-0.099737;3.5;3.5;2.25;2.0;0.25;0.5;0.0;0.5;0.0;0.25;0.25;0.0;0.0;0.25;0.25;0.25;-0.232422;0.0;0.984375;-0.91;-0.28;0.77;130.0;-0.270704;-0.061665
2.13;4.25;4.0;2.5;3.75;1.0;2.0;0.0;1.25;0.0;0.5;0.25;0.5;0.5;0.25;0.0;0.5;-0.203613;0.03418;0.98291;-0.84;2.45;1.12;205.0;-0.230868;-0.110836;4.0;4.25;2.25;1.75;0.25;0.5;0.0;0.5;0.0;0.25;0.5;0.25;0.0;0.5;0.0;0.25;-0.237305;-0.003906;0.98291;-0.84;-0.21;0.7;143.0;-0.266958;-0.059019
2.14;4.25;4.0;2.25;3.5;1.25;2.0;0.25;1.25;0.0;0.75;0.5;0.75;0.5;0.0;0.0;0.5;-0.200684;0.036621;0.981934;-0.91;2.59;1.26;211.0;-0.213802;-0.106882;3.5;4.5;2.0;1.75;0.5;0.25;0.0;0.5;0.0;0.25;0.5;0.25;0.0;0.0;0.0;0.0;-0.23291;-0.006348;0.982422;-0.84;-0.28;0.7;133.0;-0.289812;-0.067822
2.15;4.5;4.0;2.5;3.75;1.25;2.0;0.25;1.25;0.0;0.5;0.75;0.75;0.5;0.25;0.0;0.75;-0.200684;0.040039;0.983887;-0.91;2.59;1.19;222.0;-0.208627;-0.104241;3.25;4.25;2.0;2.0;0.75;0.25;0.0;0.5;0.0;0.5;0.5;0.5;0.0;0.0;0.0;0.0;-0.23584;-0.009277;0.980957;-0.7;-0.21;0.84;138.0;-0.265095;-0.071561
2.16;4.25;4.0;2.5;3.75;1.25;2.0;0.25;1.0;0.0;0.75;0.5;0.75;0.5;0.25;0.0;0.75;-0.203125;0.038086;0.987305;-0.77;2.59;1.33;216.0;-0.209525;-0.099962;2.5;3.75;2.0;2.0;0.75;0.5;0.0;0.5;0.0;0.5;0.5;0.5;0.0;0.0;0.0;0.25;-0.234375;-0.004883;0.980957;-0.77;-0.21;0.7;131.0;-0.244591;-0.08445
2.17;4.25;3.5;2.5;3.75;1.0;2.0;0.0;1.25;0.0;0.75;0.5;1.0;0.75;0.0;0.0;1.0;-0.205078;0.041504;0.98584;-0.7;2.59;1.33;213.0;-0.202013;-0.120346;3.75;2.25;2.0;2.0;0.5;0.25;0.0;0.25;0.0;0.25;0.25;0.5;0.0;0.0;0.0;0.0;-0.236816;-0.005371;0.980469;-0.77;-0.35;0.77;116.0;-0.279899;-0.0455
2.18;4.25;4.0;2.5;3.75;1.0;2.0;0.0;1.25;0.25;0.25;1.25;1.0;0.75;0.25;0.0;0.5;-0.204102;0.038086;0.98584;-0.56;2.59;1.33;222.0;-0.196457;-0.114901;3.5;2.0;1.75;1.75;0.5;0.25;0.0;0.25;0.0;0.5;0.25;0.5;0.0;0.0;0.0;0.0;-0.237305;-0.004395;0.98291;-0.84;-0.21;0.77;108.0;-0.263287;-0.043151
2.19;4.25;4.0;2.0;4.0;1.0;2.25;0.0;1.25;0.0;0.5;0.5;1.0;0.75;0.5;0.25;0.25;-0.208008;0.040039;0.986328;-0.42;2.38;1.47;217.0;-0.201821;-0.122026;2.5;3.5;1.75;2.0;0.5;0.5;0.0;0.0;0.0;0.5;0.5;0.5;0.0;0.0;0.0;0.25;-0.236328;-0.001953;0.980957;-0.7;-0.21;0.7;117.0;-0.257437;-0.071601
2.2;4.25;4.0;2.5;4.0;1.0;2.25;0.25;1.25;0.0;0.5;0.5;1.25;0.75;0.5;0.25;0.5;-0.205566;0.036621;0.983398;-0.49;2.59;1.33;229.0;-0.191564;-0.114644;3.25;2.0;1.75;1.5;0.75;0.5;0.0;0.0;0.0;0.5;0.0;0.5;0.0;0.0;0.0;0.25;-0.236816;-0.009766;0.985352;-0.98;-0.21;0.63;104.0;-0.265686;-0.035109
2.21;4.25;4.0;2.0;4.0;1.25;2.25;0.0;1.25;0.25;0.75;0.75;1.25;0.5;0.5;0.25;0.75;-0.208008;0.041016;0.980469;-0.35;2.52;1.33;230.0;-0.178824;-0.11384;4.0;1.75;1.75;1.5;0.75;0.25;0.0;0.25;0.0;0.5;0.0;0.5;0.0;0.0;0.0;0.0;-0.236816;-0.000977;0.98584;-0.91;-0.21;0.7;109.0;-0.273454;-0.025922
2.22;4.0;3.5;2.0;4.0;1.25;2.25;0.0;1.25;0.25;0.5;1.25;1.25;0.5;0.25;0.0;0.75;-0.200195;0.038086;0.98877;-0.63;2.52;1.4;222.0;-0.179261;-0.120086;2.75;3.75;1.75;1.5;0.75;0.25;0.0;0.25;0.0;0.5;0.25;0.0;0.0;0.25;0.0;0.0;-0.23291;-0.003418;0.984863;-0.84;-0.21;0.63;113.0;-0.279367;-0.047776
2.23;4.0;4.0;2.0;4.0;1.25;2.25;0.0;1.5;0.0;0.5;0.5;1.25;0.5;0.0;0.0;0.75;-0.20459;0.041504;0.98291;-0.49;2.45;1.4;217.0;-0.205903;-0.133574;2.75;4.25;1.75;1.25;0.75;0.0;0.0;0.25;0.0;0.5;0.25;0.0;0.0;0.0;0.25;0.25;-0.238281;-0.006348;0.977051;-0.84;-0.14;0.63;114.0;-0.277328;-0.050837
2.24;4.25;4.0;2.0;4.0;1.25;2.5;0.0;1.5;0.0;0.5;0.25;1.25;0.75;0.25;0.25;0.75;-0.20459;0.044922;0.984863;-0.56;2.52;1.4;226.0;-0.196751;-0.132415;2.75;2.5;1.75;1.0;0.75;0.25;0.0;0.25;0.0;0.25;0.5;0.5;0.0;0.25;0.0;0.0;-0.227539;-0.001465;0.981934;-0.84;-0.07;0.7;102.0;-0.242092;-0.042809
2.25;4.25;4.0;2.0;4.0;1.25;2.5;0.25;1.5;0.0;0.5;0.5;0.75;1.0;0.5;0.25;0.5;-0.204102;0.041016;0.983398;-0.63;2.59;1.33;230.0;-0.191337;-0.122374;3.5;2.0;1.75;1.25;0.5;0.25;0.0;0.0;0.0;0.25;0.0;0.25;0.0;0.0;0.0;0.0;-0.231445;-0.000488;0.982422;-0.84;-0.14;0.63;93.0;-0.309255;-0.014526
2.26;4.0;3.25;2.0;3.5;1.0;2.5;0.25;1.25;0.0;0.75;0.75;0.75;1.0;0.25;0.0;0.75;-0.201172;0.044434;0.984863;-0.7;2.73;1.33;212.0;-0.183268;-0.121163;3.5;2.0;1.75;1.25;0.25;0.25;0.0;0.0;0.0;0.25;0.0;0.0;0.0;0.0;0.0;0.25;-0.236816;-0.01123;0.980469;-0.77;-0.07;0.77;89.0;-0.319108;-0.013236
2.27;4.25;4.0;1.75;3.5;1.0;3.25;0.25;1.5;0.25;1.0;0.75;0.5;0.75;0.0;0.0;0.5;-0.203613;0.041016;0.985352;-0.35;2.59;1.33;227.0;-0.192654;-0.121033;2.75;2.25;1.25;1.25;0.0;0.25;0.0;0.25;0.0;0.25;0.0;0.0;0.0;0.0;0.0;0.25;-0.236816;-0.003418;0.984375;-0.98;0.07;0.7;80.0;-0.310355;-0.053504
2.28;4.5;3.5;2.0;4.0;1.25;3.0;0.25;1.75;0.25;1.25;1.25;0.5;0.75;0.0;0.0;0.5;-0.210449;0.040527;0.98291;-0.28;2.31;1.47;243.0;-0.1782;-0.116471;2.75;2.75;1.25;1.5;0.25;0.25;0.0;0.25;0.0;0.25;0.5;0.25;0.0;0.0;0.0;0.0;-0.237305;-0.003906;0.984375;-0.77;0.07;0.84;95.0;-0.278179;-0.065857
2.29;3.5;3.5;2.5;4.0;0.75;3.0;0.25;1.75;0.0;1.25;1.0;0.75;1.0;0.25;0.0;0.5;-0.203613;0.037109;0.992188;-0.07;2.66;1.47;235.0;-0.169963;-0.13221;2.75;2.75;1.5;1.75;0.25;0.25;0.0;0.25;0.0;0.5;0.0;0.25;0.0;0.0;0.0;0.25;-0.234375;-0.00293;0.984375;-0.91;0.21;0.63;99.0;-0.281953;-0.063471
2.3;4.0;4.0;2.0;4.25;1.0;3.0;0.25;2.25;0.0;0.75;1.0;0.5;1.0;0.5;0.0;0.75;-0.203613;0.040039;0.985352;-0.07;2.59;1.54;246.0;-0.177301;-0.139697;2.75;2.75;1.5;1.5;0.25;0.25;0.0;0.25;0.0;0.0;0.0;0.5;0.0;0.0;0.0;0.25;-0.238281;-0.000488;0.983398;-0.63;0.21;0.7;94.0;-0.29561;-0.07156
2.31;4.25;4.0;2.0;3.5;0.75;3.25;0.25;2.25;0.0;0.75;1.25;1.0;0.75;0.5;0.25;0.75;-0.203613;0.040039;0.983887;-0.0;2.59;1.47;249.0;-0.162132;-0.137768;2.5;2.25;1.5;1.0;0.25;0.25;0.0;0.0;0.0;0.0;0.5;0.0;0.0;0.0;0.0;0.25;-0.237793;-0.005859;0.986328;-0.7;0.14;0.77;79.0;-0.29815;-0.037089
2.32;4.25;4.25;2.0;4.0;0.5;3.5;0.0;2.0;0.25;0.75;1.25;0.5;0.75;0.5;0.25;0.75;-0.20459;0.037109;0.984375;-0.14;2.52;1.4;247.0;-0.174821;-0.136885;2.75;2.5;1.5;1.0;0.5;0.25;0.0;0.0;0.0;0.5;0.5;0.0;0.0;0.0;0.0;0.25;-0.241211;-0.007324;0.978027;-0.7;0.28;0.84;91.0;-0.270621;-0.028254
2.33;4.25;4.5;2.5;4.0;0.75;3.5;0.25;2.0;0.25;1.0;0.5;0.5;1.0;0.5;0.25;0.5;-0.203125;0.041504;0.985352;-0.14;2.52;1.4;256.0;-0.181962;-0.12591;2.5;2.75;1.75;1.0;0.5;0.25;0.0;0.0;0.0;0.25;0.0;0.5;0.0;0.25;0.0;0.25;-0.233887;-0.005371;0.980957;-0.77;0.28;0.7;93.0;-0.269789;-0.039087
2.34;4.25;4.0;2.5;4.0;0.5;3.0;0.0;2.0;0.0;1.25;0.5;1.0;1.0;0.5;0.0;0.5;-0.201172;0.04248;0.984375;-0.28;2.38;1.33;243.0;-0.182211;-0.136297;3.5;2.5;1.75;1.25;0.5;0.25;0.0;0.25;0.25;0.0;0.0;0.25;0.0;0.25;0.0;0.25;-0.239258;-0.003906;0.977539;-0.84;0.28;0.77;104.0;-0.278427;-0.026716
2.35;4.25;4.0;2.0;3.75;0.75;3.25;0.0;2.0;0.25;1.0;1.0;1.0;1.0;0.0;0.0;0.75;-0.208496;0.043457;0.992188;-0.21;2.31;1.47;243.0;-0.175945;-0.141931;3.25;2.75;1.75;1.25;0.5;0.25;0.0;0.25;0.0;0.0;0.0;0.25;0.0;0.25;0.0;0.0;-0.239746;-0.002441;0.986328;-0.84;0.28;0.56;100.0;-0.302447;-0.038326
2.36;4.0;4.0;2.0;4.0;0.5;3.5;0.0;1.75;0.5;1.0;1.25;1.0;1.25;0.25;0.25;0.5;-0.205566;0.044922;0.97998;-0.21;2.31;1.4;250.0;-0.158147;-0.1384;2.75;2.5;1.5;1.0;0.5;0.0;0.0;0.25;0.0;0.5;0.25;0.25;0.0;0.0;0.0;0.0;-0.23291;-0.005371;0.98291;-0.98;0.35;0.63;90.0;-0.273004;-0.036374
2.37;4.25;4.0;2.5;4.25;0.75;3.5;0.0;2.25;0.5;1.0;1.25;1.0;1.25;0.25;0.0;0.75;-0.20459;0.041504;0.98877;-0.0;2.24;1.47;269.0;-0.162148;-0.138712;2.5;2.5;1.75;1.0;0.5;0.0;0.0;0.25;0.0;0.25;0.25;0.25;0.0;0.0;0.0;0.0;-0.23291;-0.004395;0.98584;-0.98;0.14;0.7;88.0;-0.283122;-0.039336
2.38;4.5;4.0;2.75;4.25;0.75;3.75;0.0;2.25;0.25;1.0;0.5;1.25;1.25;0.25;0.0;1.0;-0.206055;0.041016;0.983887;0.07;2.24;1.47;269.0;-0.174405;-0.143024;2.25;2.5;1.75;1.0;0.25;0.25;0.0;0.25;0.0;0.0;0.5;0.0;0.0;0.0;0.0;0.0;-0.236816;-0.00293;0.981445;-1.05;0.35;0.7;83.0;-0.295109;-0.05125
2.39;4.5;4.25;2.5;4.25;0.5;3.75;0.25;2.5;0.0;1.25;0.25;1.0;1.25;0.5;0.25;1.0;-0.199219;0.041016;0.981445;0.14;2.24;1.33;272.0;-0.169206;-0.144337;1.75;2.75;1.75;1.0;0.0;0.0;0.0;0.25;0.0;0.0;0.5;0.0;0.0;0.25;0.0;0.0;-0.240234;-0.004883;0.98291;-0.84;0.63;0.63;78.0;-0.284104;-0.054902
2.4;4.25;4.0;2.25;4.25;0.5;4.0;0.25;2.5;0.0;1.25;0.5;1.0;1.25;0.0;0.25;1.0;-0.203125;0.039551;0.982422;-0.14;2.31;1.4;266.0;-0.169068;-0.15432;2.0;2.25;1.75;1.0;0.0;0.0;0.0;0.25;0.0;0.0;0.5;0.0;0.0;0.0;0.0;0.5;-0.23877;-0.005859;0.983398;-0.7;0.7;0.56;77.0;-0.277231;-0.058092
2.41;4.5;4.25;2.25;4.25;0.75;4.25;0.25;2.25;0.25;1.25;1.0;1.0;1.5;0.0;0.0;1.0;-0.209473;0.041992;0.984863;-0.28;2.38;1.4;280.0;-0.165566;-0.145918;2.5;1.75;0.75;1.0;0.25;0.25;0.0;0.0;0.0;0.25;0.5;0.0;0.0;0.0;0.0;0.25;-0.238281;-0.005859;0.984375;-0.63;0.49;0.63;69.0;-0.27614;-0.039741
2.42;4.5;4.25;2.5;4.25;1.0;3.75;0.25;2.5;0.5;0.5;0.5;1.25;1.5;0.0;0.0;0.75;-0.205566;0.041504;0.984375;-0.28;2.59;1.33;275.0;-0.176274;-0.144597;2.0;1.75;0.75;1.0;0.0;0.0;0.0;0.0;0.0;0.25;0.5;0.25;0.0;0.0;0.0;0.0;-0.234863;-0.008301;0.980957;-0.7;0.35;0.56;61.0;-0.271358;-0.050462
2.43;4.5;4.25;2.75;4.5;1.0;3.75;0.25;2.5;0.25;0.5;0.5;1.25;1.5;0.25;0.0;0.75;-0.19873;0.041992;0.987305;-0.35;2.38;1.33;279.0;-0.178607;-0.145417;2.0;2.0;1.0;1.25;0.25;0.0;0.0;0.25;0.0;0.0;0.25;0.25;0.0;0.0;0.0;0.0;-0.243164;-0.006348;0.980469;-0.84;0.28;0.63;69.0;-0.292594;-0.069873
2.44;4.25;4.5;2.75;4.5;0.75;3.75;0.25;2.25;0.5;1.25;0.5;1.75;1.5;0.25;0.0;0.75;-0.205078;0.041504;0.982422;-0.28;2.45;1.33;288.0;-0.159591;-0.139455;1.75;0.75;1.0;0.75;0.25;0.0;0.0;0.0;0.0;0.25;0.0;0.0;0.0;0.0;0.0;0.25;-0.235352;-0.004883;0.975586;-0.91;0.14;0.56;47.0;0.0;0.0
2.45;4.25;4.0;2.25;4.0;0.75;3.75;0.25;2.25;0.5;1.0;0.75;1.25;1.5;0.25;0.0;0.5;-0.20166;0.043457;0.981934;-0.56;2.52;1.33;268.0;-0.160304;-0.139772;1.75;1.0;1.25;0.5;0.25;0.0;0.0;0.0;0.0;0.5;0.25;0.0;0.0;0.25;0.0;0.25;-0.241699;-0.003906;0.984863;-1.05;0.0;0.56;56.0;-0.222821;0.009944
2.46;4.25;4.0;2.0;4.25;0.75;3.75;0.25;2.25;0.0;1.0;1.25;1.0;1.25;0.25;0.0;0.5;-0.20166;0.046875;0.989746;-0.63;2.66;1.33;262.0;-0.168862;-0.147957;2.25;1.25;1.5;0.5;0.25;0.0;0.0;0.0;0.0;0.25;0.25;0.0;0.0;0.0;0.0;0.25;-0.237793;-0.003418;0.990234;-1.05;0.0;0.63;61.0;-0.284024;0.00738
2.47;4.75;4.0;2.0;4.25;0.75;3.75;0.25;2.25;0.0;1.0;1.0;1.25;1.25;0.0;0.0;0.75;-0.206055;0.046875;0.98291;-0.84;2.59;1.26;266.0;-0.17494;-0.148177;2.5;1.25;1.25;0.5;0.25;0.0;0.0;0.0;0.0;0.25;0.0;0.25;0.0;0.0;0.0;0.25;-0.236816;-0.002441;0.978516;-0.98;-0.21;0.7;61.0;-0.289974;0.000679
2.48;4.25;4.0;1.75;4.0;0.5;4.0;0.25;2.25;0.0;1.0;1.25;1.25;1.25;0.25;0.0;0.75;-0.200195;0.041992;0.987793;-1.05;2.59;1.26;261.0;-0.161005;-0.154902;2.5;1.75;1.5;0.5;0.25;0.0;0.0;0.0;0.0;0.25;0.0;0.25;0.0;0.0;0.0;0.25;-0.238281;-0.004883;0.982422;-0.98;-0.21;0.63;67.0;-0.29697;-0.006396
2.49;4.25;4.5;2.5;4.25;0.75;3.75;0.25;2.25;0.0;1.0;1.25;1.5;1.5;0.25;0.0;0.75;-0.208008;0.042969;0.984863;-1.05;2.59;1.19;280.0;-0.163061;-0.149417;2.5;2.0;1.25;0.75;0.25;0.0;0.0;0.0;0.0;0.25;0.25;0.25;0.0;0.0;0.0;0.0;-0.241211;-0.00293;0.980469;-0.91;-0.42;0.77;70.0;-0.295245;-0.02068
2.5;4.25;4.0;2.0;4.25;0.5;3.75;0.25;2.5;0.0;1.25;1.0;1.25;1.25;0.25;0.0;1.0;-0.205566;0.042969;0.990723;-1.26;2.52;1.12;268.0;-0.158802;-0.154354;2.25;1.25;1.25;1.0;0.0;0.25;0.0;0.0;0.0;0.25;0.25;0.5;0.0;0.0;0.0;0.0;-0.235352;-0.003906;0.980469;-1.12;-0.56;0.77;67.0;-0.262439;-0.041633
2.51;4.25;4.0;2.0;4.25;0.75;3.75;0.25;2.5;0.0;1.25;1.25;1.0;1.25;0.25;0.25;0.75;-0.204102;0.04541;0.985352;-1.47;2.8;1.05;272.0;-0.155721;-0.149399;2.25;1.25;1.25;1.0;0.0;0.25;0.0;0.0;0.0;0.25;0.0;0.25;0.0;0.0;0.0;0.0;-0.23877;-0.00293;0.980469;-0.98;-0.84;0.7;62.0;-0.299714;-0.028854
2.52;3.75;4.0;2.0;4.25;0.75;3.75;0.25;2.25;0.0;0.75;0.75;1.25;1.25;0.5;0.5;0.75;-0.204102;0.040039;0.983398;-1.4;2.59;1.05;261.0;-0.154531;-0.153641;2.0;1.75;1.25;1.0;0.25;0.0;0.0;0.0;0.0;0.25;0.0;0.25;0.0;0.0;0.0;0.25;-0.236328;0.0;0.984863;-0.98;-0.84;0.77;65.0;-0.289735;-0.035405
2.53;3.5;4.0;2.25;4.25;0.75;3.75;0.25;2.25;0.25;0.5;0.75;1.25;1.25;0.5;0.25;1.0;-0.203125;0.047852;0.98291;-1.33;2.66;1.12;260.0;-0.154984;-0.152139;2.25;2.0;1.5;1.0;0.5;0.0;0.0;0.0;0.0;0.0;0.25;0.25;0.0;0.25;0.0;0.0;-0.237305;-0.004395;0.983887;-0.91;-0.77;0.63;75.0;-0.283476;-0.02262
2.54;4.25;4.0;2.25;4.0;1.0;3.25;0.25;2.25;0.0;0.75;1.25;1.5;1.0;0.5;0.0;1.0;-0.199707;0.043457;0.989258;-1.4;2.66;1.12;265.0;-0.158625;-0.141989;1.75;1.75;1.25;0.75;0.25;0.0;0.0;0.0;0.0;0.25;0.25;0.0;0.0;0.0;0.0;0.0;-0.242188;-0.00293;0.980469;-0.91;-0.98;0.77;59.0;-0.298546;-0.01983
2.55;4.25;3.75;2.25;4.0;1.0;3.25;0.0;2.25;0.0;1.25;0.75;0.5;1.25;0.25;0.0;0.75;-0.209473;0.039062;0.986328;-1.33;2.59;1.12;248.0;-0.178325;-0.142001;1.75;1.75;1.25;0.75;0.25;0.0;0.0;0.0;0.0;0.25;0.5;0.0;0.0;0.0;0.0;0.0;-0.235352;-0.005859;0.983398;-1.05;-0.98;0.7;61.0;-0.278049;-0.023584
2.56;4.25;4.0;2.25;4.0;1.0;3.25;0.0;2.25;0.0;1.0;1.0;0.5;1.25;0.0;0.0;0.5;-0.199707;0.04248;0.983887;-1.47;2.66;1.05;247.0;-0.187863;-0.145597;2.0;1.5;1.25;1.0;0.25;0.0;0.0;0.0;0.0;0.25;0.5;0.25;0.0;0.25;0.0;0.0;-0.233398;-0.007324;0.976562;-0.91;-1.05;0.84;68.0;-0.241562;-0.025854
2.57;4.25;4.0;2.25;4.0;0.75;3.5;0.25;2.25;0.25;0.75;0.5;1.0;1.25;0.25;0.0;0.75;-0.208496;0.040527;0.986816;-1.54;2.59;1.05;254.0;-0.176197;-0.142323;2.25;1.75;1.25;1.0;0.0;0.0;0.0;0.0;0.0;0.25;0.5;0.5;0.0;0.25;0.0;0.0;-0.239258;-0.002441;0.980957;-0.98;-0.91;0.7;73.0;-0.240955;-0.037489
2.58;4.25;4.0;2.25;4.0;0.75;3.75;0.0;2.25;0.0;0.75;0.5;1.0;1.25;0.25;0.5;1.0;-0.202637;0.040039;0.983887;-1.33;2.52;1.05;256.0;-0.170899;-0.153385;1.0;2.0;1.25;1.0;0.25;0.0;0.0;0.0;0.0;0.25;0.0;0.5;0.0;0.25;0.0;0.0;-0.231934;-0.005859;0.983398;-0.98;-0.98;0.84;61.0;-0.247419;-0.060185
2.59;4.25;4.25;2.75;4.0;0.5;3.75;0.0;2.25;0.0;1.0;0.25;0.5;1.25;0.25;0.5;1.25;-0.206055;0.041504;0.983398;-1.47;2.59;1.05;258.0;-0.179656;-0.14723;1.0;2.25;1.75;1.0;0.25;0.25;0.0;0.25;0.0;0.25;0.0;0.0;0.0;0.0;0.0;0.25;-0.241699;-0.010254;0.976562;-0.77;-0.7;0.77;68.0;-0.278513;-0.071677
2.6;4.25;4.25;2.5;4.0;0.5;3.5;0.0;2.25;0.25;0.5;0.25;0.5;1.25;0.5;0.0;1.25;-0.204102;0.043457;0.984863;-1.33;2.66;1.12;248.0;-0.188614;-0.146073;2.75;2.75;1.75;1.0;0.5;0.0;0.0;0.25;0.0;0.5;0.0;0.5;0.0;0.0;0.0;0.25;-0.237305;-0.002441;0.981934;-0.84;-0.77;0.84;96.0;-0.268051;-0.043988
2.61;4.25;4.0;2.5;4.0;1.0;3.5;0.0;2.25;0.25;0.5;0.75;0.75;1.25;0.5;0.0;1.0;-0.20166;0.046387;0.984863;-1.4;2.52;0.98;257.0;-0.17671;-0.141879;3.5;2.75;1.75;1.0;0.5;0.0;0.0;0.25;0.0;0.75;0.0;0.25;0.0;0.0;0.0;0.5;-0.240234;-0.003906;0.980957;-0.84;-0.84;0.7;105.0;-0.269179;-0.028586
2.62;4.25;4.0;2.0;4.0;1.0;3.25;0.0;2.25;0.0;0.75;1.0;0.25;1.25;0.5;0.0;0.75;-0.19873;0.040039;0.984375;-1.33;2.52;1.05;245.0;-0.182751;-0.144306;1.75;2.75;1.75;0.5;0.75;0.25;0.0;0.25;0.0;0.5;0.5;0.25;0.0;0.0;0.0;0.0;-0.240234;-0.002441;0.983887;-0.77;-0.7;0.7;88.0;-0.240184;-0.04677
2.63;4.5;2.75;2.5;4.0;1.0;3.75;0.0;2.0;0.25;0.5;1.25;0.5;1.25;0.5;0.0;0.75;-0.207031;0.04541;0.98291;-1.33;2.52;1.19;249.0;-0.169455;-0.133434;1.5;2.5;1.75;1.0;0.5;0.25;0.0;0.25;0.0;0.0;0.5;0.25;0.0;0.0;0.0;0.0;-0.23584;-0.000488;0.981445;-0.77;-0.56;0.77;81.0;-0.265447;-0.069006
2.64;4.5;3.5;2.25;4.0;1.0;3.25;0.25;2.0;0.0;0.5;1.0;0.25;2.0;0.5;0.0;0.75;-0.208496;0.041992;0.981445;-1.26;2.59;1.12;249.0;-0.176024;-0.139881;2.25;2.5;1.75;1.0;0.75;0.0;0.0;0.0;0.0;0.25;0.25;0.0;0.0;0.25;0.0;0.0;-0.233887;-0.004883;0.97998;-0.84;-0.56;0.77;84.0;-0.284193;-0.013655
2.65;4.5;4.25;2.0;4.0;1.25;3.5;0.0;2.0;0.25;0.75;0.75;0.5;1.25;0.5;0.25;0.5;-0.205566;0.04248;0.976074;-1.26;2.66;1.19;255.0;-0.180238;-0.133359;1.25;2.75;1.25;1.0;0.5;0.0;0.0;0.0;0.0;0.5;0.0;0.25;0.0;0.0;0.0;0.25;-0.238281;-0.006348;0.978027;-0.84;-0.63;0.7;71.0;-0.269908;-0.058516
2.66;4.25;4.0;2.25;4.0;1.25;3.0;0.0;2.0;0.5;0.75;0.5;1.0;1.0;0.25;0.25;0.75;-0.204102;0.040039;0.981934;-1.4;2.59;1.12;251.0;-0.173459;-0.129461;1.25;2.0;1.25;0.5;0.5;0.0;0.0;0.25;0.0;0.5;0.25;0.75;0.0;0.25;0.0;0.25;-0.23584;-0.000977;0.977051;-0.84;-0.56;0.63;73.0;-0.176988;-0.064928
2.67;4.25;3.75;2.25;3.75;1.0;3.0;0.0;2.0;0.25;1.0;0.5;1.0;1.25;0.25;0.25;0.5;-0.205078;0.042969;0.986816;-1.4;2.52;1.19;244.0;-0.171851;-0.134972;1.75;1.75;1.75;0.5;0.5;0.25;0.0;0.25;0.0;0.25;0.5;0.25;0.0;0.25;0.0;0.0;-0.241211;-0.002441;0.976074;-0.98;-0.7;0.63;77.0;-0.222863;-0.034925
2.68;4.25;4.0;2.25;4.0;1.0;3.5;0.0;2.0;0.0;1.25;0.75;1.25;1.25;0.25;0.25;0.5;-0.203613;0.04541;0.984863;-1.4;2.66;1.12;258.0;-0.168505;-0.143009;1.75;2.25;1.75;0.75;0.75;0.25;0.0;0.25;0.0;0.5;0.25;0.0;0.0;0.0;0.0;0.0;-0.237305;-0.004395;0.98584;-0.84;-0.42;0.7;82.0;-0.259514;-0.036689
2.69;4.0;4.0;2.0;4.0;1.0;3.5;0.0;2.25;0.0;1.0;0.75;0.5;1.5;0.25;0.0;0.5;-0.205078;0.04541;0.986328;-1.26;2.38;1.19;246.0;-0.180993;-0.152051;2.0;1.75;1.5;1.0;0.75;0.25;0.0;0.25;0.0;0.5;0.0;0.0;0.0;0.0;0.0;0.0;-0.236328;-0.006836;0.984863;-0.77;-0.49;0.7;77.0;-0.271115;-0.032993
2.7;3.75;4.0;2.0;4.0;1.25;3.25;0.25;2.0;0.0;1.0;1.0;0.5;1.0;0.0;0.0;0.5;-0.204102;0.042969;0.978516;-1.4;2.66;1.26;240.0;-0.183754;-0.139126;2.5;2.0;1.5;0.75;0.75;0.0;0.0;0.0;0.0;0.5;0.25;0.25;0.0;0.0;0.0;0.25;-0.242188;-0.00293;0.982422;-0.84;-0.56;0.84;82.0;-0.258242;-0.014216
2.71;4.25;4.0;2.5;4.0;1.25;3.0;0.25;2.0;0.25;1.0;1.25;1.25;1.0;0.5;0.0;0.75;-0.213379;0.040039;0.979492;-1.33;2.59;1.19;265.0;-0.15884;-0.124605;2.5;2.5;1.75;0.75;0.25;0.25;0.0;0.0;0.0;0.5;0.25;0.25;0.0;0.25;0.0;0.25;-0.234375;-0.008789;0.98291;-0.77;-0.56;0.77;88.0;-0.255733;-0.025866
2.72;4.25;4.0;2.5;4.0;0.75;3.25;0.0;2.0;0.5;1.0;1.25;1.25;1.25;0.5;0.0;0.75;-0.209961;0.043945;0.983398;-1.33;2.45;1.19;264.0;-0.155393;-0.132398;2.25;2.5;1.0;1.0;0.25;0.0;0.0;0.0;0.0;0.5;0.0;0.0;0.0;0.5;0.0;0.25;-0.235352;-0.003906;0.978027;-0.84;-0.63;0.91;75.0;-0.267515;-0.023477
2.73;4.25;4.0;2.5;4.25;0.75;3.0;0.0;2.0;0.5;1.25;1.5;1.0;0.75;0.5;0.0;1.0;-0.20166;0.039062;0.985352;-1.54;2.59;1.12;264.0;-0.15545;-0.124429;2.5;2.75;1.25;1.25;0.25;0.0;0.0;0.0;0.0;0.5;0.0;0.0;0.0;0.25;0.0;0.25;-0.236328;-0.003418;0.98584;-0.91;-0.7;0.84;83.0;-0.291836;-0.030708
2.74;4.25;4.0;2.25;4.0;1.0;3.0;0.25;2.0;0.0;1.25;1.5;1.0;0.75;0.5;0.0;1.0;-0.201172;0.042969;0.980469;-1.4;2.45;1.12;259.0;-0.159138;-0.128038;2.5;2.75;1.5;0.5;0.25;0.25;0.0;0.25;0.0;0.75;0.0;0.0;0.0;0.25;0.0;0.0;-0.237305;-0.001953;0.980469;-0.91;-0.63;0.84;85.0;-0.270521;-0.024948
2.75;4.25;4.0;2.75;3.75;1.0;2.5;0.25;1.75;0.25;1.0;0.75;0.5;1.0;0.5;0.0;1.0;-0.202637;0.034668;0.991699;-1.54;2.59;1.05;244.0;-0.17702;-0.112475;2.5;2.5;1.75;0.5;0.5;0.25;0.0;0.25;0.0;0.75;0.25;0.25;0.0;0.0;0.0;0.0;-0.234375;-0.009766;0.984375;-1.05;-0.7;0.63;91.0;-0.251766;-0.030048
2.76;4.25;4.0;2.25;3.75;1.25;2.5;0.0;1.75;0.25;0.75;0.75;0.5;1.0;0.25;0.25;1.0;-0.197266;0.040527;0.984375;-1.61;2.59;1.19;236.0;-0.181469;-0.124116;2.5;2.75;1.25;1.0;0.75;0.0;0.0;0.25;0.0;0.5;0.5;0.25;0.0;0.25;0.0;0.0;-0.233887;-0.005371;0.977539;-1.05;-0.56;0.63;95.0;-0.242421;-0.04129
2.77;4.0;4.0;2.25;3.75;1.0;2.5;0.0;2.0;0.0;1.0;0.75;0.5;1.0;0.25;0.25;0.75;-0.199707;0.042969;0.986328;-1.68;2.52;1.12;232.0;-0.181519;-0.134684;2.75;2.75;1.25;0.5;0.75;0.0;0.0;0.25;0.0;0.5;0.5;0.0;0.0;0.25;0.0;0.0;-0.239258;-0.001953;0.982422;-0.98;-0.56;0.7;89.0;-0.25633;-0.020154
2.78;4.0;3.75;2.0;4.25;1.0;2.5;0.0;1.75;0.25;1.25;1.0;0.5;1.0;0.25;0.0;0.75;-0.20459;0.041016;0.991211;-1.61;2.45;1.12;235.0;-0.175311;-0.128078;2.75;2.75;1.75;0.5;0.75;0.25;0.0;0.25;0.0;0.5;0.5;0.25;0.0;0.25;0.0;0.0;-0.236328;-0.00293;0.98291;-0.98;-0.49;0.77;99.0;-0.242901;-0.027548
2.79;4.25;3.5;2.5;4.25;0.75;3.0;0.0;1.75;0.25;1.25;1.25;0.75;0.75;0.0;0.0;0.5;-0.207031;0.038086;0.980957;-1.54;2.52;1.19;242.0;-0.179936;-0.126096;2.5;2.5;1.75;1.0;0.75;0.0;0.0;0.25;0.25;0.5;0.25;0.25;0.0;0.25;0.0;0.25;-0.23291;-0.005859;0.98291;-0.98;-0.42;0.77;99.0;-0.228598;-0.024057
2.8;4.0;3.75;2.5;4.0;0.5;3.0;0.0;1.5;0.5;1.25;1.5;1.0;1.0;0.25;0.0;0.5;-0.206055;0.037598;0.983398;-1.4;2.24;1.26;245.0;-0.160969;-0.122838;3.5;2.0;1.5;0.5;0.5;0.0;0.0;0.25;0.0;0.25;0.25;0.0;0.0;0.25;0.0;0.0;-0.238281;-0.006836;0.98584;-0.77;-0.42;0.63;86.0;-0.288142;0.002558
2.81;4.25;3.75;2.5;4.0;0.75;2.75;0.0;1.75;0.25;1.25;1.0;1.25;1.0;0.5;0.0;0.5;-0.203613;0.041504;0.983398;-1.54;2.24;1.19;248.0;-0.165324;-0.125271;3.75;2.0;1.5;0.5;0.25;0.25;0.0;0.5;0.25;0.25;0.0;0.0;0.0;0.25;0.0;0.25;-0.240234;-0.006348;0.986328;-0.91;-0.56;0.77;93.0;-0.268559;-0.010859
2.82;4.5;4.0;2.25;4.25;0.75;2.5;0.0;1.5;0.25;1.25;1.0;0.5;0.75;0.5;0.0;0.75;-0.20166;0.039551;0.981934;-1.75;2.24;1.19;238.0;-0.183919;-0.114217;2.75;2.25;1.75;0.75;0.5;0.25;0.0;0.5;0.0;0.5;0.0;0.0;0.0;0.25;0.0;0.0;-0.234863;-0.005371;0.980957;-0.84;-0.56;0.7;92.0;-0.267048;-0.031162
2.83;4.25;4.25;2.0;4.0;0.75;2.75;0.0;1.25;0.25;1.25;0.75;0.5;1.0;0.0;0.0;0.5;-0.203125;0.041992;0.983398;-1.75;2.1;1.19;226.0;-0.198534;-0.122567;3.5;2.25;1.75;1.0;0.75;0.0;0.0;0.25;0.0;0.5;0.5;0.25;0.0;0.25;0.0;0.0;-0.23877;-0.005859;0.979492;-1.12;-0.7;0.77;105.0;-0.251078;-0.016367
2.84;4.25;4.0;2.0;4.0;1.0;2.25;0.25;1.25;0.0;0.5;0.5;1.0;1.0;0.25;0.25;0.5;-0.20166;0.042969;0.985352;-1.68;2.1;1.12;222.0;-0.196292;-0.123065;3.5;2.5;1.75;1.0;0.75;0.25;0.0;0.25;0.0;0.25;0.0;0.25;0.0;0.0;0.0;0.25;-0.233887;-0.00293;0.979492;-1.05;-0.84;0.7;102.0;-0.291302;-0.030322
2.85;4.25;4.0;2.25;4.0;1.0;2.375;0.125;1.375;0.0;0.5;0.5;1.125;1.0;0.375;0.25;0.625;-0.202881;0.041748;0.9868165;-1.505;2.24;1.12;228.5;-0.19141249999999999;-0.1263915;3.75;2.5;1.75;1.0;0.75;0.0;0.0;0.25;0.0;0.25;0.0;0.25;0.0;0.0;0.0;0.25;-0.233398;-0.005859;0.984375;-1.19;-0.77;0.77;101.0;-0.297326;-0.021129
2.86;4.25;4.0;2.5;4.0;1.0;2.5;0.0;1.5;0.0;0.5;0.5;1.25;1.0;0.5;0.25;0.75;-0.204102;0.040527;0.988281;-1.33;2.38;1.12;235.0;-0.186533;-0.129718;3.75;2.5;2.0;1.0;0.75;0.0;0.0;0.25;0.0;0.25;0.25;0.25;0.0;0.0;0.0;0.25;-0.240234;-0.008301;0.983887;-1.12;-0.7;0.7;106.0;-0.284792;-0.020613
2.87;4.5;4.0;2.5;4.25;1.25;2.75;0.0;1.5;0.25;1.0;0.75;1.0;1.25;0.25;0.0;0.5;-0.204102;0.043457;0.979492;-1.4;2.52;1.05;249.0;-0.185385;-0.122228;2.5;2.5;2.0;1.0;0.5;0.0;0.0;0.25;0.0;0.25;0.25;0.25;0.0;0.0;0.0;0.0;-0.239746;-0.007812;0.984863;-0.91;-0.49;0.7;91.0;-0.282625;-0.035723
2.88;4.25;4.0;2.5;4.0;1.25;2.5;0.25;1.5;0.0;1.25;1.25;0.5;1.0;0.25;0.0;0.5;-0.203613;0.037109;0.98584;-1.33;2.59;1.19;242.0;-0.182639;-0.113337;2.5;2.75;1.75;1.0;0.75;0.0;0.0;0.25;0.0;0.5;0.25;0.25;0.0;0.0;0.0;0.0;-0.237793;-0.016113;0.982422;-0.7;-0.42;0.77;95.0;-0.268845;-0.036907
2.89;4.25;4.0;2.5;3.5;1.25;2.75;0.25;1.25;0.25;0.5;0.75;0.5;0.75;0.0;0.0;0.25;-0.208008;0.040527;0.981445;-1.33;2.17;1.19;222.0;-0.210501;-0.10697;3.25;3.0;1.75;0.75;0.75;0.0;0.0;0.25;0.0;0.5;0.0;0.5;0.0;0.0;0.0;0.25;-0.236328;-0.007812;0.981445;-0.77;-0.56;0.84;103.0;-0.273338;-0.032513
2.9;4.25;4.0;2.5;3.75;1.125;2.625;0.25;1.25;0.375;0.625;1.0;0.5;0.625;0.0;0.0;0.375;-0.2072755;0.040039000000000005;0.982666;-1.4;2.24;1.155;227.0;-0.2023685;-0.104051;3.5;2.75;1.75;0.75;0.25;0.0;0.0;0.25;0.0;0.5;0.25;0.5;0.0;0.0;0.0;0.25;-0.244141;-0.007324;0.980957;-0.84;-0.56;0.84;101.0;-0.268921;-0.033059
2.91;4.25;4.0;2.5;4.0;1.0;2.5;0.25;1.25;0.5;0.75;1.25;0.5;0.5;0.0;0.0;0.5;-0.206543;0.039551;0.983887;-1.47;2.31;1.12;232.0;-0.194236;-0.101132;2.75;2.75;2.0;1.0;0.25;0.25;0.0;0.25;0.0;0.25;0.5;0.25;0.0;0.0;0.0;0.0;-0.236816;-0.003418;0.985352;-0.98;-0.84;0.7;98.0;-0.2767;-0.045528
2.92;4.75;4.0;2.5;4.0;1.25;3.25;0.0;1.5;0.25;1.0;1.0;0.5;0.75;0.25;0.0;0.5;-0.20166;0.047363;0.989258;-1.54;2.24;1.12;247.0;-0.195199;-0.113094;3.75;3.0;2.5;1.25;0.5;0.0;0.0;0.25;0.0;0.25;0.0;0.0;0.0;0.0;0.0;0.0;-0.233887;-0.007812;0.980957;-1.19;-1.12;0.7;110.0;-0.322036;-0.01616
2.93;4.25;4.5;2.5;4.0;1.25;2.5;0.0;1.25;0.25;0.75;1.25;0.5;0.5;0.5;0.0;0.5;-0.200684;0.041504;0.98584;-1.61;2.38;1.05;236.0;-0.197199;-0.105791;4.25;2.75;2.5;1.0;0.5;0.25;0.0;0.5;0.0;0.25;0.0;0.25;0.0;0.0;0.0;0.0;-0.229492;-0.005371;0.97998;-1.26;-1.05;0.7;118.0;-0.300804;-0.026214
2.94;4.25;4.5;2.5;4.0;1.0;2.25;0.0;1.25;0.0;0.75;1.25;0.5;0.75;0.25;0.0;0.75;-0.20166;0.041992;0.984863;-1.4;2.45;1.19;229.0;-0.203365;-0.117415;3.75;3.0;2.5;1.25;0.75;0.0;0.0;0.25;0.0;0.5;0.5;0.25;0.0;0.0;0.0;0.0;-0.23291;-0.004883;0.987305;-1.26;-1.05;0.56;122.0;-0.274919;-0.022461
2.95;4.25;4.0;2.25;3.75;0.5;2.75;0.0;1.25;0.25;0.75;1.25;0.5;0.75;0.25;0.0;0.75;-0.202148;0.041016;0.981934;-1.47;2.73;1.19;223.0;-0.192122;-0.11989;4.0;2.75;2.5;1.5;0.75;0.0;0.0;0.25;0.0;0.25;0.25;0.5;0.0;0.0;0.0;0.25;-0.238281;-0.008789;0.989258;-1.4;-0.7;0.7;123.0;-0.278969;-0.029747
2.96;4.25;3.875;2.375;3.875;0.625;2.75;0.125;1.25;0.25;0.875;0.75;0.625;0.75;0.125;0.0;0.75;-0.203857;0.0388185;0.9848635;-1.505;2.87;1.155;224.0;-0.196618;-0.1166;4.0;2.75;2.5;1.5;0.75;0.0;0.0;0.25;0.0;0.25;0.25;0.5;0.0;0.25;0.0;0.0;-0.234375;-0.009277;0.986328;-1.26;-0.7;0.77;124.0;-0.274528;-0.023629
2.97;4.25;3.75;2.5;4.0;0.75;2.75;0.25;1.25;0.25;1.0;0.25;0.75;0.75;0.0;0.0;0.75;-0.205566;0.036621;0.987793;-1.54;3.01;1.12;225.0;-0.201114;-0.11331;4.25;3.0;2.75;1.75;0.75;0.25;0.0;0.0;0.0;0.25;0.5;0.75;0.0;0.25;0.0;0.25;-0.235352;-0.008789;0.984863;-1.19;-0.49;0.63;139.0;-0.260563;-0.029272
2.98;4.0;3.75;2.5;3.75;0.5;2.0;0.25;1.25;0.0;1.0;0.25;1.0;0.5;0.0;0.0;0.5;-0.204102;0.037109;0.975098;-1.47;2.94;1.19;206.0;-0.20925;-0.114029;4.25;3.0;2.5;1.5;0.75;0.25;0.0;0.25;0.0;0.25;0.5;0.25;0.0;0.0;0.0;0.25;-0.234375;-0.007812;0.983398;-0.98;-0.49;0.77;130.0;-0.280799;-0.030729
2.99;4.0;3.75;2.0;3.75;0.5;2.0;0.25;1.25;0.25;1.0;0.75;0.5;0.5;0.25;0.0;0.25;-0.205566;0.038086;0.980469;-1.47;2.94;1.05;205.0;-0.19828;-0.105203;3.5;3.0;2.5;1.5;0.75;0.5;0.0;0.0;0.0;0.25;0.75;0.25;0.0;0.0;0.0;0.25;-0.230469;-0.008789;0.983398;-0.91;-0.35;0.77;125.0;-0.269009;-0.03508
3.0;4.25;3.75;2.0;3.5;0.75;2.0;0.25;1.25;0.5;0.25;1.0;0.5;0.75;0.5;0.0;0.5;-0.200684;0.037109;0.984375;-1.54;3.08;1.12;211.0;-0.189781;-0.101833;3.25;3.0;1.75;1.0;0.75;0.5;0.0;0.0;0.0;0.5;0.5;0.5;0.0;0.0;0.0;0.25;-0.234863;-0.006836;0.982422;-0.84;-0.21;0.7;112.0;-0.255044;-0.039909
3.01;4.0;3.75;2.5;3.5;0.75;2.0;0.25;1.25;0.5;0.25;0.75;1.0;1.0;0.5;0.0;0.5;-0.205566;0.039551;0.984375;-1.54;3.01;1.12;218.0;-0.181687;-0.107069;3.5;2.5;2.0;1.25;0.75;0.5;0.0;0.25;0.0;0.5;0.25;0.25;0.0;0.0;0.0;0.25;-0.239746;-0.004395;0.979004;-0.77;-0.28;0.84;114.0;-0.265636;-0.037053
3.02;4.25;3.75;2.0;3.5;0.75;2.0;0.25;1.25;0.0;0.75;0.75;0.75;0.75;0.5;0.0;0.5;-0.203613;0.037598;0.987305;-1.75;3.01;1.12;210.0;-0.192916;-0.110885;4.0;2.5;1.75;1.0;0.75;0.0;0.0;0.25;0.0;0.25;0.25;0.5;0.0;0.0;0.0;0.25;-0.237305;-0.01123;0.974609;-0.84;-0.35;0.91;109.0;-0.276857;-0.026485
3.03;4.25;3.5;1.75;2.25;0.75;2.0;0.25;1.25;0.0;1.0;1.0;0.75;0.5;0.25;0.25;0.25;-0.200684;0.040039;0.97998;-1.68;3.15;1.12;194.0;-0.178871;-0.101125;3.75;3.0;1.75;1.0;0.75;0.0;0.0;0.25;0.0;0.25;0.25;0.25;0.0;0.25;0.0;0.0;-0.236328;-0.006348;0.978516;-0.98;-0.49;0.7;109.0;-0.285243;-0.021899
3.04;4.5;3.5;2.25;2.25;0.75;2.0;0.0;1.25;0.0;1.25;0.5;0.75;0.5;0.0;0.0;0.5;-0.20752;0.033691;0.987305;-1.82;3.01;1.12;193.0;-0.203321;-0.10175;3.75;3.0;2.0;1.0;0.75;0.25;0.0;0.5;0.0;0.5;0.25;0.0;0.0;0.25;0.0;0.0;-0.237793;-0.004883;0.988281;-1.19;-0.63;0.77;117.0;-0.273416;-0.028392
3.05;3.5;3.25;2.0;2.75;1.0;2.0;0.0;1.25;0.25;1.25;0.5;1.0;0.5;0.0;0.0;0.5;-0.208984;0.033203;0.983887;-1.82;2.94;1.12;192.0;-0.179083;-0.111644;3.75;2.75;2.0;1.25;0.75;0.25;0.0;0.5;0.0;0.5;0.5;0.25;0.0;0.0;0.0;0.25;-0.236816;-0.006836;0.976562;-1.26;-0.63;0.63;122.0;-0.256347;-0.043306
3.06;4.0;3.0;1.75;3.0;0.75;2.0;0.0;1.25;0.25;1.5;1.0;1.25;1.0;0.25;0.0;0.5;-0.205078;0.036621;0.986328;-1.89;3.08;1.05;207.0;-0.151724;-0.11623;3.5;2.75;2.0;1.0;0.75;0.5;0.0;0.25;0.0;0.75;0.5;0.25;0.0;0.25;0.25;0.25;-0.234863;-0.005371;0.983398;-1.33;-0.77;0.63;123.0;-0.224333;-0.032478
3.07;3.5;3.0;2.0;3.0;0.75;1.75;0.25;1.25;0.25;1.25;1.25;0.5;0.5;0.25;0.25;0.5;-0.203125;0.037598;0.983398;-1.89;2.87;1.05;197.0;-0.156076;-0.098846;3.5;4.0;2.25;1.0;0.75;0.5;0.0;0.25;0.0;0.75;0.0;0.0;0.0;0.25;0.0;0.25;-0.234863;-0.007812;0.985352;-1.4;-0.84;0.63;126.0;-0.278694;-0.03201
3.08;3.5;2.75;2.0;2.75;1.25;1.5;0.0;1.25;0.25;0.75;1.25;0.25;0.5;0.5;0.0;0.5;-0.205566;0.035645;0.984375;-2.03;3.01;0.91;184.0;-0.171384;-0.095014;2.75;3.5;2.5;1.25;0.75;0.5;0.0;0.5;0.0;0.5;0.0;0.25;0.0;0.25;0.25;0.0;-0.23291;-0.008301;0.98291;-1.47;-0.77;0.63;125.0;-0.252968;-0.052042
3.09;3.0;2.75;1.75;2.0;1.0;1.25;0.25;1.5;0.0;1.0;1.25;0.5;0.5;0.5;0.0;0.75;-0.202637;0.035645;0.978516;-1.96;3.01;1.05;174.0;-0.144068;-0.105042;4.0;3.5;2.25;1.25;0.75;0.5;0.0;0.5;0.0;0.5;0.25;0.5;0.0;0.5;0.0;0.0;-0.237305;-0.006836;0.982422;-1.47;-0.7;0.56;138.0;-0.251382;-0.042459
3.1;3.5;2.75;1.25;2.0;0.75;1.25;0.25;1.0;0.0;1.25;1.0;0.5;0.5;0.25;0.25;0.5;-0.209961;0.039551;0.98291;-1.82;2.94;0.91;164.0;-0.155846;-0.094116;4.0;3.5;2.5;1.5;0.75;0.5;0.0;0.5;0.0;0.75;0.5;0.25;0.25;0.5;0.0;0.0;-0.234863;-0.005371;0.983887;-1.4;-0.63;0.49;148.0;-0.238418;-0.04428
3.11;3.25;2.75;1.25;1.75;0.75;0.75;0.0;0.75;0.0;1.25;0.75;0.75;0.5;0.25;0.25;0.5;-0.203613;0.040527;0.984863;-1.61;2.87;0.98;147.0;-0.158968;-0.092995;4.0;3.5;2.5;1.5;0.75;0.25;0.0;0.5;0.0;0.5;0.5;0.0;0.0;0.25;0.25;0.0;-0.237793;-0.013184;0.98291;-1.4;-0.49;0.56;139.0;-0.259739;-0.035448
3.12;3.5;2.0;1.75;2.0;1.0;0.75;0.0;0.5;0.5;1.25;1.0;1.0;0.75;0.25;0.0;0.5;-0.204102;0.04248;0.988281;-1.68;2.94;0.91;160.0;-0.138087;-0.068859;4.0;2.75;2.75;1.75;0.75;0.5;0.0;0.5;0.0;0.5;0.25;0.25;0.0;0.25;0.0;0.0;-0.234863;-0.01123;0.984375;-1.33;-0.49;0.49;138.0;-0.263136;-0.03723
3.13;3.75;2.25;2.0;2.25;1.0;1.25;0.0;0.5;0.5;1.25;1.25;0.5;0.75;0.0;0.0;0.75;-0.200195;0.039551;0.984375;-1.47;3.08;0.98;171.0;-0.157;-0.072315;4.0;2.75;2.5;2.0;0.75;0.5;0.0;0.5;0.0;0.5;0.25;0.5;0.0;0.0;0.0;0.0;-0.23291;-0.003418;0.988281;-1.12;-0.35;0.7;138.0;-0.264837;-0.050538
3.14;3.5;2.0;1.25;1.5;1.0;1.25;0.25;0.75;0.5;1.25;1.25;0.5;0.75;0.0;0.0;0.75;-0.209961;0.039551;0.984375;-1.54;3.01;1.05;159.0;-0.130054;-0.07442;4.0;3.5;2.5;1.5;0.75;0.5;0.0;0.5;0.0;0.5;0.5;0.5;0.25;0.25;0.0;0.25;-0.232422;-0.011719;0.974121;-1.05;-0.35;0.7;147.0;-0.242379;-0.0554
3.15;3.75;1.75;1.5;1.5;1.0;1.25;0.25;0.5;0.25;1.25;1.25;0.5;0.75;0.25;0.0;0.75;-0.204102;0.044922;0.984863;-1.4;3.15;1.05;157.0;-0.135763;-0.064243;3.75;3.5;2.5;1.75;1.0;0.25;0.0;0.5;0.25;0.75;0.5;0.5;0.25;0.25;0.0;0.0;-0.239746;-0.011719;0.980957;-0.98;-0.28;0.7;151.0;-0.227661;-0.044732
3.16;2.5;2.0;1.25;1.0;0.5;1.0;0.25;0.5;0.0;1.25;1.25;0.5;0.75;0.25;0.25;0.75;-0.208984;0.041504;0.983887;-1.4;3.36;0.98;131.0;-0.106913;-0.087191;3.75;3.0;2.5;1.75;1.25;0.5;0.0;0.5;0.25;0.5;0.5;0.5;0.25;0.25;0.0;0.0;-0.23291;-0.01123;0.983887;-0.91;0.0;0.63;150.0;-0.226813;-0.045056
3.17;2.0;2.0;1.25;1.0;0.5;1.25;0.25;0.5;0.5;1.25;1.25;1.0;0.75;0.25;0.25;0.75;-0.202637;0.036133;0.981445;-1.4;3.5;1.05;140.0;-0.071316;-0.088844;3.75;2.75;2.5;1.25;1.25;0.5;0.0;0.5;0.25;0.5;0.5;0.5;0.0;0.25;0.25;0.25;-0.23877;-0.009766;0.979004;-0.98;-0.14;0.7;144.0;-0.211702;-0.034217
3.18;2.25;2.25;1.25;1.25;0.5;1.25;0.25;1.0;0.5;1.25;1.75;1.25;0.75;0.5;0.0;0.75;-0.210449;0.039551;0.98877;-1.33;3.57;0.98;161.0;-0.069804;-0.102942;3.75;3.75;2.5;1.25;0.75;0.5;0.0;0.5;0.0;0.75;0.75;0.5;0.0;0.25;0.25;0.25;-0.231445;-0.008301;0.981934;-0.84;0.0;0.77;149.0;-0.221325;-0.050796
3.19;2.25;1.5;1.5;1.25;0.75;1.25;0.25;1.0;0.5;1.25;1.25;0.5;0.75;0.25;0.5;0.75;-0.199707;0.043457;0.983887;-1.19;3.64;1.12;150.0;-0.073237;-0.087573;3.25;4.0;2.25;1.5;0.75;0.5;0.0;0.5;0.0;1.0;1.0;0.5;0.25;0.25;0.0;0.5;-0.233398;-0.010742;0.986816;-0.77;0.14;0.7;152.0;-0.204553;-0.068839
3.2;2.5;1.5;1.25;1.0;0.5;0.75;0.25;0.5;0.5;1.25;1.25;0.5;0.5;0.5;0.25;0.75;-0.207031;0.040039;0.97998;-1.12;3.43;1.05;131.0;-0.075905;-0.054897;3.5;2.5;2.25;1.5;0.5;0.25;0.0;0.5;0.25;1.0;0.25;0.75;0.0;0.0;0.0;0.75;-0.23584;-0.007812;0.988281;-0.77;0.28;0.77;133.0;-0.205163;-0.048892
3.21;1.75;1.75;1.25;1.25;0.5;0.75;0.25;0.5;0.25;1.0;1.5;0.75;0.5;0.25;0.0;1.0;-0.208008;0.043945;0.987793;-1.12;3.29;1.12;125.0;-0.082635;-0.091252;3.75;2.5;2.0;1.75;0.5;0.25;0.0;0.25;0.25;1.0;0.25;0.75;0.0;0.25;0.0;0.5;-0.235352;-0.010254;0.98584;-0.77;0.14;0.77;132.0;-0.210403;-0.037203
3.22;1.75;1.75;1.25;0.75;0.5;1.25;0.25;0.5;0.0;1.25;0.5;0.75;0.25;0.0;0.25;0.75;-0.210449;0.035645;0.987305;-1.26;3.5;1.12;112.0;-0.112739;-0.09313;3.25;2.5;2.0;1.25;0.75;0.0;0.0;0.25;0.0;0.75;0.5;0.75;0.25;0.25;0.5;0.25;-0.234863;-0.015137;0.97998;-0.91;0.14;0.77;125.0;-0.186623;-0.04517
3.23;1.75;1.75;1.25;0.75;0.75;0.5;0.25;0.5;0.25;0.5;0.75;0.5;0.25;0.25;0.0;1.0;-0.205566;0.036621;0.98291;-1.19;3.22;1.19;103.0;-0.120063;-0.070176;3.25;2.5;2.25;1.25;0.25;0.25;0.0;0.5;0.5;0.5;0.5;0.5;0.25;0.25;0.25;0.25;-0.236816;-0.010254;0.976562;-0.84;0.07;0.77;127.0;-0.191107;-0.042154
3.24;1.5;1.5;1.25;0.75;0.5;0.5;0.25;1.0;0.5;0.5;0.75;0.75;0.5;0.5;0.0;1.0;-0.213379;0.043457;0.988281;-1.12;3.22;1.19;113.0;-0.070376;-0.093252;3.5;2.75;2.25;1.5;0.25;0.0;0.0;0.5;0.0;0.5;0.5;0.75;0.25;0.5;0.0;0.5;-0.234375;-0.004883;0.97998;-0.91;0.07;0.63;129.0;-0.211316;-0.058494
3.25;1.75;1.5;1.25;1.0;0.25;0.5;0.25;0.75;0.5;1.0;0.75;1.0;0.75;0.25;0.25;1.0;-0.212402;0.037598;0.989746;-1.19;3.22;1.05;121.0;-0.058456;-0.094735;3.75;2.75;1.75;1.25;0.75;0.0;0.0;0.5;0.0;0.5;0.75;0.75;0.0;0.5;0.0;0.5;-0.229004;-0.006348;0.97998;-0.98;-0.14;0.77;129.0;-0.20564;-0.048215
3.26;1.75;1.5;1.25;1.25;0.5;0.75;0.25;0.5;0.5;1.25;1.0;1.25;1.0;0.5;0.5;1.0;-0.199707;0.040527;0.981934;-1.12;3.15;1.05;139.0;-0.033945;-0.092374;2.75;2.5;1.75;1.25;0.75;0.25;0.0;0.5;0.0;0.5;0.75;0.75;0.0;0.5;0.25;0.5;-0.234375;-0.006836;0.984375;-1.19;-0.21;0.56;122.0;-0.173562;-0.063567
3.27;1.75;1.5;1.25;1.0;0.5;0.75;0.25;0.5;0.5;1.5;1.25;1.0;0.75;0.5;0.5;0.75;-0.206543;0.042969;0.97998;-1.26;3.36;1.05;135.0;-0.030774;-0.076478;2.75;2.75;2.0;1.25;0.75;0.25;0.0;0.5;0.25;0.5;1.0;0.75;0.0;0.75;0.0;0.75;-0.239258;-0.008789;0.98291;-1.26;-0.21;0.7;133.0;-0.159268;-0.054084
3.28;1.5;1.25;1.25;0.75;0.5;0.75;0.25;0.5;0.5;1.5;1.25;0.5;0.5;0.5;0.5;0.75;-0.209473;0.035156;0.980957;-1.26;3.22;0.98;121.0;-0.024311;-0.060441;2.5;2.0;1.75;1.25;0.75;0.25;0.0;0.5;0.5;0.5;0.5;0.75;0.0;0.5;0.0;0.75;-0.233887;-0.009766;0.98584;-1.26;-0.28;0.7;118.0;-0.152873;-0.047474
3.29;1.5;1.25;0.75;1.0;0.75;0.75;0.0;0.5;0.5;1.5;1.25;0.5;0.75;0.25;0.5;0.75;-0.20166;0.036621;0.980957;-1.05;3.08;0.98;118.0;-0.028665;-0.087512;2.75;2.0;2.5;1.25;1.0;0.5;0.0;0.5;0.5;0.5;0.75;0.75;0.0;0.25;0.0;0.75;-0.235352;-0.009766;0.976074;-1.33;-0.28;0.56;134.0;-0.164694;-0.043539
3.3;1.75;1.25;0.75;0.75;0.5;0.5;0.25;0.75;0.5;1.5;2.0;0.75;1.0;0.25;0.5;0.75;-0.206055;0.03418;0.982422;-1.05;3.15;0.91;131.0;-0.001673;-0.091032;2.75;2.5;2.75;1.5;1.0;0.25;0.0;0.5;0.5;0.75;1.0;0.75;0.0;0.25;0.25;0.5;-0.23291;-0.006836;0.986816;-1.19;-0.14;0.56;147.0;-0.158092;-0.041731
3.31;1.75;1.0;0.75;0.75;0.5;0.5;0.0;1.0;0.5;1.75;2.0;1.0;1.0;0.5;0.5;1.0;-0.208984;0.037598;0.984375;-0.98;3.43;0.77;137.0;0.019409;-0.105086;3.25;1.75;2.5;1.5;0.75;0.25;0.0;0.5;0.25;0.75;0.5;0.75;0.0;0.5;0.25;0.25;-0.234863;-0.006836;0.982422;-0.98;-0.28;0.7;133.0;-0.172768;-0.03358
3.32;1.75;1.25;0.75;1.0;0.5;0.75;0.0;0.75;0.5;1.75;1.5;1.0;1.0;0.5;0.0;1.25;-0.209961;0.038086;0.986328;-0.77;3.5;0.77;132.0;-0.01412;-0.106357;3.25;2.0;1.75;1.25;1.0;0.25;0.0;0.5;0.0;1.0;0.5;0.75;0.25;0.5;0.5;0.5;-0.242676;-0.010742;0.981445;-0.91;-0.42;0.63;132.0;-0.149697;-0.052569
3.33;1.5;1.25;1.0;1.25;0.5;1.0;0.25;0.75;0.75;1.25;1.25;1.25;0.75;0.75;0.25;0.75;-0.206055;0.041016;0.97998;-0.56;3.64;0.7;139.0;-0.016349;-0.090353;2.75;2.5;2.25;1.25;0.75;0.25;0.0;0.5;0.25;0.75;0.5;0.75;0.25;0.5;0.25;0.5;-0.234863;-0.008789;0.97998;-0.91;-0.56;0.77;133.0;-0.162022;-0.052806
3.34;1.5;1.25;1.0;1.25;0.75;1.0;0.0;0.75;0.5;1.25;1.25;1.75;0.75;0.25;0.5;0.75;-0.181152;0.041504;0.980957;-0.28;3.78;0.63;139.0;-0.023529;-0.118387;2.75;2.5;2.5;1.75;0.75;0.25;0.0;0.75;0.0;0.5;0.5;0.75;0.0;0.5;0.25;0.75;-0.239746;-0.007812;0.981445;-0.84;-0.7;0.84;137.0;-0.180872;-0.070598
3.35;1.75;0.75;1.0;0.5;0.5;0.5;0.0;0.75;0.25;1.75;1.5;1.75;1.0;0.25;0.5;0.5;-0.192871;0.042969;0.986328;-0.35;4.13;0.35;127.0;0.012451;-0.109595;3.5;2.5;2.25;1.5;0.75;0.25;0.0;0.5;0.0;0.5;0.25;0.75;0.0;0.5;0.5;0.75;-0.235352;-0.007324;0.978027;-0.84;-0.77;0.77;136.0;-0.189953;-0.052588
3.36;0.5;0.25;0.5;0.25;0.25;0.5;0.0;0.75;0.5;1.5;1.75;1.25;1.0;0.25;0.5;0.5;-0.203613;0.033691;0.984375;-0.28;4.34;0.21;99.0;0.103574;-0.128678;2.75;2.75;2.75;1.5;0.75;0.5;0.0;0.5;0.5;1.0;0.25;0.75;0.0;0.5;0.25;0.75;-0.236816;-0.013184;0.982422;-0.77;-0.91;0.84;147.0;-0.162585;-0.043247
3.37;0.25;0.25;0.25;0.25;0.25;0.25;0.0;0.5;0.5;1.5;1.75;1.0;0.75;0.5;0.75;1.0;-0.20166;0.041504;0.986328;-0.21;4.48;0.0;90.0;0.156458;-0.112399;2.75;3.0;2.0;1.5;0.75;0.5;0.0;0.5;0.25;1.0;0.5;1.0;0.0;0.5;0.0;0.5;-0.236816;-0.008789;0.984863;-0.84;-0.77;0.7;140.0;-0.171204;-0.061699
3.38;0.25;0.75;0.25;0.5;0.25;0.25;0.0;0.5;0.5;1.75;2.5;1.25;0.5;1.0;1.0;1.25;-0.212891;0.034668;0.98584;-0.14;4.27;-0.14;115.0;0.148882;-0.102844;3.5;3.5;3.25;1.25;1.0;0.75;0.0;0.75;0.0;1.0;0.5;0.75;0.25;0.5;0.0;0.5;-0.232422;-0.006348;0.979004;-0.98;-0.7;0.77;166.0;-0.197649;-0.058659
3.39;0.5;0.5;0.25;0.25;0.0;0.5;0.0;0.5;0.5;2.25;2.0;1.25;1.0;1.0;0.5;1.25;-0.215332;0.040527;0.98584;-0.07;4.62;-0.28;111.0;0.147243;-0.107958;3.5;4.0;3.25;1.75;1.25;0.75;0.0;0.75;0.25;1.0;0.5;0.5;0.5;0.5;0.0;0.75;-0.233398;-0.014648;0.983398;-0.91;-0.7;0.77;182.0;-0.194262;-0.06162
3.4;0.5;0.5;0.5;0.25;0.25;0.5;0.0;0.5;0.5;2.0;1.75;0.5;1.0;1.0;0.5;1.0;-0.20752;0.034668;0.984375;0.07;4.76;-0.21;103.0;0.119644;-0.087099;3.75;3.75;3.25;1.75;1.5;1.0;0.0;1.0;0.5;1.25;0.5;0.5;0.5;0.75;0.5;0.75;-0.236816;-0.013184;0.981934;-0.91;-0.7;0.84;203.0;-0.157961;-0.057027
3.41;1.25;0.75;0.5;0.25;0.25;0.5;0.0;0.75;0.5;2.0;1.75;0.5;0.75;1.5;1.0;1.0;-0.201172;0.041504;0.984863;0.42;5.18;-0.42;123.0;0.096296;-0.071031;3.5;4.25;3.0;1.75;1.5;0.5;0.0;0.75;0.25;1.25;0.5;0.0;0.5;1.0;0.25;0.75;-0.236328;-0.01416;0.98291;-0.98;-0.77;0.84;185.0;-0.179719;-0.047892
3.42;1.5;0.25;0.5;0.25;0.0;0.5;0.0;0.5;0.5;1.25;1.5;0.5;1.0;1.5;1.0;1.25;-0.217285;0.039062;0.985352;0.77;5.6;-0.63;109.0;0.105932;-0.074054;3.5;3.0;3.0;2.0;1.5;0.5;0.0;1.25;0.5;1.25;0.5;0.25;0.5;0.75;0.0;0.75;-0.239746;-0.014648;0.984375;-0.84;-0.77;0.84;185.0;-0.163218;-0.056436
3.43;0.5;0.25;0.75;0.25;0.25;0.5;0.0;0.5;0.5;1.25;1.5;1.0;0.75;1.0;1.25;0.75;-0.213379;0.043945;0.986816;0.84;5.88;-1.19;103.0;0.130696;-0.090328;4.0;3.75;2.75;2.0;0.75;0.75;0.0;1.25;0.5;1.5;0.5;0.25;0.0;0.75;0.25;0.5;-0.233398;-0.009766;0.986328;-0.77;-0.63;0.91;188.0;-0.175851;-0.054027
3.44;0.5;0.25;0.25;0.25;0.25;0.25;0.0;0.25;0.5;1.25;2.25;0.75;0.75;1.25;0.75;0.75;-0.316895;0.041992;1.013672;1.19;6.44;-2.1;94.0;0.162016;-0.075607;3.75;3.0;3.0;2.0;0.75;0.5;0.0;1.25;0.5;1.25;0.25;0.25;0.25;0.5;0.25;0.5;-0.23291;-0.008789;0.978027;-0.7;-0.56;0.77;175.0;-0.179519;-0.054971
3.45;0.5;0.25;0.0;0.25;0.25;0.5;0.0;0.5;0.5;1.5;2.0;1.0;1.0;1.0;0.75;1.0;-0.217773;0.051758;0.980957;0.91;5.95;-1.89;101.0;0.158241;-0.112031;3.75;2.75;3.25;2.0;1.0;0.5;0.0;1.25;0.25;1.25;0.5;0.75;0.5;0.5;0.5;0.5;-0.242676;-0.006836;0.984375;-0.63;-0.42;0.91;186.0;-0.157694;-0.067176
3.46;0.5;0.0;0.25;0.25;0.0;0.5;0.0;0.5;0.5;1.75;1.75;1.0;1.0;1.0;1.0;1.25;-0.217285;0.014648;0.995117;2.38;5.95;-4.76;102.0;0.175087;-0.10773;4.0;2.75;3.0;2.0;1.5;1.0;0.0;1.0;0.5;1.25;0.75;0.75;0.25;0.5;0.25;0.5;-0.237305;-0.009766;0.98291;-0.63;-0.49;0.77;194.0;-0.160174;-0.054294
3.47;0.5;0.0;0.25;0.0;0.0;0.25;0.0;0.5;0.75;1.25;1.25;1.0;0.75;0.75;0.5;1.25;-0.227539;0.035645;0.986328;0.28;5.32;-1.82;82.0;0.176117;-0.094384;3.75;2.75;3.25;2.0;1.5;1.0;0.0;1.0;0.5;1.5;1.0;0.5;0.25;0.25;0.25;0.75;-0.233398;-0.009277;0.983887;-0.63;-0.42;0.7;196.0;-0.155955;-0.054704
3.48;0.5;0.0;0.25;0.25;0.0;0.25;0.0;0.25;0.5;1.25;2.0;1.25;1.0;1.25;0.5;1.0;-0.136719;0.125;0.945312;1.26;3.43;-4.2;92.0;0.180106;-0.099073;3.75;3.75;2.5;2.0;1.75;1.0;0.0;0.75;0.25;1.25;0.75;0.75;0.25;0.25;0.25;0.75;-0.241211;-0.008789;0.978027;-0.56;-0.56;0.77;190.0;-0.176945;-0.066698
3.49;0.25;0.0;0.0;0.0;0.5;0.0;0.0;0.25;0.25;1.25;1.5;1.25;1.0;1.5;0.5;1.0;-0.244629;0.003906;0.983398;4.2;2.38;-13.65;82.0;0.216713;-0.098047;3.5;4.25;3.25;2.0;1.5;1.0;0.25;0.75;0.0;1.25;0.75;0.75;0.5;0.5;0.25;0.5;-0.237793;-0.010254;0.984375;-0.49;-0.49;0.84;200.0;-0.179494;-0.066229
3.5;0.75;0.0;0.25;0.0;0.0;0.0;0.0;0.5;0.5;1.5;1.5;1.25;1.0;1.5;1.0;1.0;-0.228027;-0.001953;0.973145;0.21;1.96;-3.64;98.0;0.194733;-0.085636;2.75;3.75;2.5;2.25;1.5;1.25;0.0;1.0;0.25;0.5;0.75;0.25;0.5;0.5;0.5;0.5;-0.240234;-0.007324;0.980469;-0.56;-0.7;0.91;180.0;-0.176326;-0.088352
3.51;0.5;0.0;0.25;0.0;0.0;0.25;0.0;0.5;0.25;1.5;1.75;1.25;0.5;0.5;1.0;1.25;-0.21875;0.033691;0.981445;-0.63;1.26;0.63;87.0;0.183689;-0.1193;3.75;3.0;3.0;2.0;1.5;1.25;0.0;1.0;0.25;0.5;0.75;0.5;0.5;0.5;0.5;0.5;-0.235352;-0.008301;0.980469;-0.49;-0.7;0.84;188.0;-0.175679;-0.071806
3.52;0.0;0.0;0.0;0.0;0.0;0.25;0.0;0.5;0.0;1.75;1.75;0.75;0.5;0.75;0.5;1.25;-0.212891;0.041992;0.981934;-0.49;0.98;1.26;71.0;0.227267;-0.134848;4.0;3.75;3.25;2.25;1.5;1.25;0.0;1.0;0.5;1.0;0.5;0.75;0.0;0.5;0.5;0.5;-0.230957;-0.007812;0.978516;-0.49;-0.91;0.77;205.0;-0.179125;-0.058849
3.53;0.0;0.0;0.0;0.25;0.0;0.25;0.0;0.5;0.25;2.25;2.0;0.5;0.75;0.75;0.5;1.25;-0.217773;0.046875;0.98584;-0.42;1.12;1.33;83.0;0.212742;-0.11413;4.25;4.25;3.0;3.0;1.5;1.25;0.0;1.0;0.25;1.0;0.5;0.75;0.0;0.5;0.0;0.5;-0.238281;-0.007812;0.98584;-0.56;-1.12;0.63;209.0;-0.20907;-0.071124
3.54;0.0;0.0;0.25;0.25;0.0;0.5;0.0;0.5;0.5;2.0;1.75;0.5;1.0;0.75;0.5;0.5;-0.212402;0.041016;0.977539;-0.49;1.33;1.26;85.0;0.180508;-0.103258;4.25;4.5;3.25;3.25;1.5;1.25;0.0;1.25;0.25;0.75;0.5;0.75;0.5;0.5;0.0;0.75;-0.234375;-0.010742;0.983398;-0.63;-1.05;0.7;223.0;-0.204317;-0.086724
3.55;0.0;0.0;0.25;0.0;0.0;0.5;0.0;0.5;0.5;1.75;1.75;1.0;0.5;0.5;1.0;0.5;-0.212891;0.043457;0.975098;-0.84;2.1;0.98;84.0;0.202585;-0.103706;4.25;4.25;3.25;3.0;1.5;1.25;0.0;1.25;0.25;0.5;0.5;0.75;0.5;0.5;0.0;0.5;-0.230957;-0.009766;0.982422;-0.84;-1.19;0.63;214.0;-0.209484;-0.084677
3.56;0.5;0.0;0.25;0.25;0.0;0.5;0.0;0.5;0.5;2.25;2.25;1.25;0.5;0.5;1.0;0.75;-0.210938;0.046875;0.982422;-1.12;2.8;0.63;104.0;0.168021;-0.096822;4.0;4.25;3.25;2.75;1.5;1.25;0.0;1.25;0.0;0.75;0.75;0.5;0.5;0.5;0.25;0.5;-0.234375;-0.006836;0.977051;-0.84;-1.26;0.56;211.0;-0.200715;-0.086511
3.57;0.25;0.0;0.25;0.25;0.0;0.5;0.0;0.5;0.5;2.25;2.25;1.25;0.75;1.0;0.5;1.0;-0.213867;0.041992;0.987305;-1.05;3.64;0.35;104.0;0.181415;-0.101472;4.75;4.25;3.25;3.25;2.25;1.25;0.25;1.25;0.0;1.0;0.5;0.25;0.5;0.5;0.5;0.5;-0.241699;-0.006348;0.982422;-0.77;-1.19;0.49;234.0;-0.199943;-0.069882
3.58;0.0;0.0;0.25;0.0;0.0;0.5;0.0;0.5;0.5;2.0;2.5;1.25;1.0;0.75;0.25;1.0;-0.216309;0.046387;0.983887;-0.91;4.27;0.07;97.0;0.196953;-0.121369;5.0;4.25;3.75;3.5;2.5;1.25;0.0;1.5;0.0;0.75;0.5;0.5;0.25;0.5;0.0;0.25;-0.236816;-0.009766;0.990234;-0.63;-1.05;0.7;239.0;-0.223404;-0.073023
3.59;0.0;0.0;0.0;0.0;0.0;0.25;0.0;0.5;0.5;2.0;2.5;1.25;0.5;0.75;0.25;1.0;-0.213867;0.037109;0.983398;-0.77;4.97;-0.35;88.0;0.221541;-0.107736;5.0;4.25;4.0;3.5;2.25;1.5;0.0;1.5;0.0;0.75;0.25;0.5;0.25;0.5;0.0;0.5;-0.234375;-0.009766;0.977051;-0.42;-0.84;0.63;240.0;-0.225583;-0.075595
3.6;0.0;0.0;0.0;0.0;0.0;0.25;0.0;0.5;0.5;2.5;2.5;0.75;0.5;0.75;0.5;1.0;-0.409668;-0.26709;0.96875;1.12;5.25;-5.74;90.0;0.228322;-0.087933;4.75;4.25;4.0;3.0;2.0;1.25;0.0;1.0;0.0;0.5;0.25;0.5;0.5;0.75;0.25;0.5;-0.239258;-0.010254;0.980957;-0.35;-0.7;0.56;225.0;-0.219943;-0.066545
3.61;0.25;0.0;0.0;0.0;0.0;0.25;0.0;0.5;0.25;2.0;2.5;1.0;1.0;1.25;0.5;1.0;-0.223633;0.07959;0.994629;9.31;3.57;-34.580002;95.0;0.21569;-0.11209;4.75;4.25;3.75;2.5;2.0;0.75;0.0;1.0;0.0;0.5;0.25;0.5;0.25;0.5;0.25;0.5;-0.230957;-0.008301;0.984375;-0.21;-0.49;0.7;208.0;-0.229029;-0.058221
3.62;0.0;0.0;0.0;0.0;0.0;0.25;0.0;0.5;0.25;1.75;2.5;1.25;0.75;0.75;0.5;1.25;-0.21875;0.000977;0.946777;5.81;4.06;-25.549999;88.0;0.225736;-0.135594;4.25;4.25;3.75;3.0;2.0;1.0;0.0;1.5;0.0;0.75;0.25;0.5;0.5;0.25;0.25;0.5;-0.239746;-0.010254;0.983887;-0.21;-0.42;0.84;220.0;-0.215932;-0.082962
3.63;0.0;0.0;0.0;0.0;0.0;0.25;0.0;0.25;0.5;1.25;2.5;1.25;0.75;0.5;0.5;1.25;-0.271973;0.055176;1.000488;5.53;3.01;-22.889999;81.0;0.231699;-0.1287;4.75;4.25;4.0;3.0;1.75;1.25;0.0;1.25;0.0;0.75;0.25;0.75;0.5;0.25;0.25;0.75;-0.233398;-0.008301;0.985352;-0.14;-0.35;0.7;228.0;-0.216131;-0.079515
3.64;0.0;0.0;0.0;0.0;0.0;0.25;0.0;0.0;0.5;2.25;2.0;1.25;0.75;1.0;0.75;1.25;-0.21582;0.115234;0.989746;5.67;2.1;-24.290001;88.0;0.255372;-0.083531;5.0;4.25;4.0;2.75;1.5;1.5;0.0;1.0;0.0;0.75;0.5;0.75;0.5;0.5;0.25;0.5;-0.233887;-0.009277;0.985352;-0.21;-0.35;0.7;227.0;-0.213826;-0.071738
3.65;0.0;0.0;0.0;0.0;0.0;0.0;0.0;0.25;0.5;2.5;2.25;1.25;0.75;1.0;0.5;1.25;-0.202637;0.049805;0.979492;6.86;1.89;-28.77;92.0;0.251127;-0.087135;5.0;4.5;3.5;2.75;1.75;0.5;0.0;1.0;0.0;1.0;0.5;0.75;0.5;0.25;0.0;0.5;-0.231445;-0.008301;0.983887;-0.42;-0.49;0.77;215.0;-0.224041;-0.066268
3.66;0.0;0.0;0.0;0.0;0.0;0.25;0.0;0.25;0.5;2.5;2.25;1.75;1.0;1.0;0.5;1.25;-0.191406;0.010254;0.95752;6.09;0.98;-28.139999;101.0;0.237482;-0.109043;4.75;4.5;4.0;3.0;1.75;0.5;0.0;1.25;0.0;0.75;0.75;0.75;0.5;0.25;0.5;0.5;-0.234375;-0.007812;0.98291;-0.35;-0.49;0.77;229.0;-0.207368;-0.07351
3.67;0.0;0.0;0.0;0.0;0.0;0.25;0.0;0.25;0.5;2.25;2.25;1.25;0.75;1.25;0.5;0.75;-0.185059;0.063965;0.986328;5.6;0.28;-29.33;91.0;0.240918;-0.084278;4.5;4.25;3.5;3.0;2.0;1.0;0.0;1.25;0.25;0.5;0.75;0.75;0.5;0.5;0.5;0.5;-0.22998;-0.006836;0.98291;-0.42;-0.49;0.63;229.0;-0.19333;-0.075766
3.68;0.0;0.0;0.0;0.0;0.0;0.0;0.0;0.25;0.75;2.0;2.5;1.25;0.75;1.25;0.5;1.0;-0.248535;-0.059082;0.96875;4.9;-0.07;-28.210001;93.0;0.253129;-0.075381;4.5;4.75;4.0;2.5;1.75;0.5;0.0;1.0;0.5;0.75;0.5;0.75;0.25;0.5;0.0;0.5;-0.237793;-0.004883;0.983887;-0.49;-0.56;0.77;219.0;-0.21205;-0.051868
3.69;0.0;0.0;0.25;0.0;0.25;0.0;0.0;0.25;0.75;2.25;2.25;1.0;1.0;1.0;0.25;0.75;-0.21875;0.019531;0.943359;2.8;-0.0;-21.280001;92.0;0.219344;-0.066991;4.75;4.5;3.75;2.75;1.75;0.5;0.0;1.25;0.25;0.5;0.5;0.75;0.5;0.5;0.0;0.5;-0.233398;-0.008301;0.981934;-0.49;-0.56;0.7;219.0;-0.217068;-0.067514
3.7;0.0;0.0;0.0;0.0;0.0;0.0;0.0;0.25;0.5;2.0;2.0;0.5;0.75;1.25;0.0;0.75;-0.242676;-0.001953;0.961426;1.26;-0.0;-15.82;72.0;0.24724;-0.060489;4.5;4.5;3.75;3.75;2.0;1.0;0.0;1.5;0.0;0.25;0.75;0.75;0.5;0.5;0.0;0.5;-0.234375;-0.009277;0.984863;-0.63;-0.7;0.77;234.0;-0.218971;-0.090004
3.71;0.0;0.0;0.0;0.0;0.0;0.0;0.0;0.25;0.5;1.75;2.25;0.75;0.5;1.5;0.0;1.25;-0.227539;-0.016602;0.981445;-1.89;0.07;-4.83;77.0;0.255372;-0.065211;4.0;4.5;4.0;3.25;1.5;0.75;0.0;1.0;0.25;0.5;0.5;0.75;0.0;0.5;0.25;0.75;-0.23291;-0.00293;0.98584;-0.63;-0.49;0.77;215.0;-0.213579;-0.068068
3.72;0.0;0.0;0.0;0.0;0.0;0.5;0.0;0.25;0.25;1.75;2.25;0.5;0.5;1.5;0.0;0.75;-0.222656;0.041016;0.973633;-2.73;-0.07;0.98;74.0;0.22598;-0.077026;4.25;4.5;4.0;2.5;1.75;1.0;0.0;1.5;0.0;0.5;0.75;0.75;0.25;0.25;0.25;0.75;-0.234375;-0.008301;0.983398;-0.63;-0.49;0.98;222.0;-0.208762;-0.082684
3.73;0.0;0.0;0.25;0.0;0.0;0.25;0.0;0.25;0.25;1.75;2.25;1.0;0.5;1.0;0.25;0.5;-0.216309;0.041016;0.987305;-2.38;-0.42;1.75;76.0;0.214627;-0.088258;5.0;4.5;4.0;3.25;1.75;1.25;0.25;1.75;0.25;0.5;0.75;0.75;0.5;0.0;0.25;0.5;-0.235352;-0.008301;0.980957;-0.56;-0.42;0.98;248.0;-0.208443;-0.08281
3.74;0.0;0.0;0.0;0.0;0.0;0.0;0.0;0.25;0.5;1.75;2.0;0.5;0.5;1.0;0.25;0.5;-0.212891;0.039551;0.986816;-2.59;-0.77;2.66;67.0;0.248651;-0.055957;4.75;4.5;3.75;3.5;2.0;1.25;0.25;1.5;0.0;0.5;0.5;0.25;0.5;0.25;0.5;0.5;-0.239258;-0.006836;0.983887;-0.42;-0.49;0.98;238.0;-0.216041;-0.079731
3.75;0.0;0.0;0.0;0.0;0.0;0.25;0.0;0.25;0.5;2.25;1.75;0.25;0.5;1.0;0.5;0.75;-0.220703;0.041504;0.986816;-2.94;-0.91;3.01;73.0;0.24374;-0.050916;4.75;4.5;3.75;3.5;1.5;1.0;0.25;1.25;0.0;0.75;0.75;0.25;0.5;0.25;0.5;0.75;-0.232422;-0.008301;0.98291;-0.35;-0.35;0.91;233.0;-0.209438;-0.076216
3.76;0.25;0.0;0.25;0.0;0.5;0.0;0.0;0.25;0.5;1.5;1.5;0.5;0.5;1.0;0.0;0.5;-0.216797;0.040527;0.984863;-3.5;-1.4;3.43;67.0;0.17437;-0.034887;4.75;4.75;3.75;4.0;1.5;1.25;0.0;1.25;0.25;0.75;1.0;0.5;0.5;0.25;0.5;0.75;-0.231934;-0.011719;0.97998;-0.35;-0.35;1.05;247.0;-0.20236;-0.084752
3.77;0.75;0.0;0.25;0.25;0.0;0.25;0.0;0.25;0.5;1.5;1.5;0.25;0.5;0.5;0.25;0.5;-0.211426;0.037598;0.984375;-3.85;-1.96;3.64;68.0;0.120694;-0.052338;5.0;4.75;4.25;3.5;2.0;1.25;0.25;1.5;0.5;0.5;1.0;0.25;0.75;0.5;0.5;0.25;-0.234375;-0.009277;0.983887;-0.21;-0.35;1.12;261.0;-0.196521;-0.067845
3.78;1.0;0.0;0.25;0.0;0.0;0.25;0.0;0.0;0.5;1.25;1.5;0.25;0.25;0.5;0.25;0.75;-0.206543;0.04248;0.977051;-4.13;-2.17;3.71;61.0;0.123333;-0.016274;4.5;4.5;4.0;4.0;2.0;1.25;0.0;1.5;0.5;0.5;1.0;0.5;0.75;0.5;0.5;0.5;-0.233398;-0.009277;0.98291;-0.14;-0.49;1.05;257.0;-0.189247;-0.082454
3.79;0.5;0.0;0.25;0.0;0.5;0.25;0.0;0.0;0.0;1.25;1.5;0.25;0.25;0.75;0.0;0.5;-0.201172;0.043457;0.976562;-4.13;-2.1;3.43;54.0;0.123933;-0.035471;4.25;4.5;3.5;4.0;1.75;1.25;0.0;1.5;0.25;0.75;0.75;0.75;0.5;0.5;0.5;0.5;-0.233398;-0.010742;0.979004;-0.07;-0.56;1.12;245.0;-0.190575;-0.090992
3.8;0.25;0.25;0.75;0.0;0.25;0.0;0.25;0.0;0.25;1.0;1.25;0.0;0.25;0.5;0.0;0.5;-0.208008;0.045898;0.984375;-3.57;-0.84;2.66;51.0;0.09237;0.012226;4.5;4.5;3.75;4.0;1.75;1.25;0.0;1.5;0.0;0.5;1.0;0.5;0.5;0.5;0.5;0.75;-0.230957;-0.008789;0.986328;0.07;-0.7;1.19;245.0;-0.200096;-0.092509
3.81;0.5;0.25;0.5;0.0;0.0;0.25;0.25;0.25;0.5;1.0;1.25;0.0;0.5;0.5;0.0;0.5;-0.212402;0.039551;0.98291;-3.08;-0.07;2.59;59.0;0.091693;-0.027698;4.5;4.75;3.75;4.0;2.25;1.25;0.0;1.5;0.0;0.5;1.0;0.5;0.5;0.25;0.75;0.75;-0.232422;-0.008789;0.984375;0.07;-0.56;1.19;253.0;-0.199344;-0.092055
3.82;0.75;0.0;0.25;0.25;0.0;0.0;0.25;0.25;0.5;1.25;1.5;0.25;0.25;0.75;0.0;0.5;-0.212402;0.040527;0.97998;-2.59;0.49;2.66;64.0;0.121215;-0.011207;4.25;4.5;3.75;4.0;1.5;1.5;0.0;1.5;0.0;0.75;1.0;0.5;0.5;0.25;0.5;0.75;-0.233398;-0.007324;0.978516;-0.0;-0.28;1.19;243.0;-0.199013;-0.098537
3.83;0.25;0.25;0.75;0.25;0.0;0.0;0.25;0.25;0.5;0.75;1.5;0.0;0.25;0.25;0.25;0.5;-0.211426;0.037598;0.987793;-1.96;1.12;2.52;58.0;0.089318;-0.027794;4.25;4.5;4.0;3.75;1.75;1.75;0.0;1.75;0.0;0.5;1.25;0.5;0.75;0.25;0.5;0.75;-0.232422;-0.006348;0.978027;-0.21;-0.21;1.12;254.0;-0.19228;-0.104079
3.84;0.0;0.5;0.25;0.25;0.25;0.0;0.0;0.25;0.5;0.75;1.25;0.25;0.25;0.25;0.0;0.75;-0.210449;0.039551;0.989746;-1.4;1.82;2.38;50.0;0.107798;-0.079168;4.25;4.5;3.25;4.0;2.0;1.5;0.0;1.75;0.0;0.25;0.75;0.75;0.75;0.25;0.25;0.75;-0.232422;-0.007812;0.980469;-0.49;-0.07;1.05;242.0;-0.205194;-0.111552
3.85;0.5;0.5;0.25;0.5;0.25;0.0;0.25;0.25;0.5;0.75;1.5;0.25;0.25;0.5;0.0;0.25;-0.202637;0.041504;0.97998;-1.26;1.89;2.31;63.0;0.056145;-0.037206;4.25;4.5;3.25;4.0;1.75;1.5;0.0;1.75;0.0;0.75;0.75;0.75;0.25;0.5;0.25;1.0;-0.237793;-0.005371;0.985352;-0.63;0.0;1.05;243.0;-0.195579;-0.102876
3.86;0.5;0.75;0.5;0.5;0.5;0.25;0.0;0.5;0.25;1.0;1.25;0.25;0.5;0.0;0.0;0.25;-0.210938;0.032715;0.978027;-1.54;1.82;2.1;68.0;-0.015375;-0.106341;4.0;4.5;3.25;3.5;1.75;1.75;0.0;1.75;0.0;0.75;0.75;0.75;0.25;0.5;0.25;0.75;-0.236816;-0.002441;0.985352;-0.7;0.07;0.98;237.0;-0.194032;-0.103083
3.87;1.0;0.75;0.25;0.5;0.5;0.25;0.0;0.5;0.0;1.25;1.0;0.0;0.5;0.5;0.0;0.25;-0.211426;0.041992;0.984863;-1.82;1.61;2.03;68.0;-0.027754;-0.08627;4.0;4.5;3.25;3.5;1.75;2.0;0.0;1.75;0.25;1.0;0.75;0.75;0.5;0.5;0.25;0.75;-0.23291;-0.003906;0.978516;-0.84;-0.07;1.05;247.0;-0.181027;-0.101507
3.88;1.0;0.25;0.0;0.25;0.5;0.5;0.0;0.0;0.5;1.25;1.25;0.25;0.5;0.75;0.25;0.25;-0.206543;0.038086;0.983887;-1.82;1.4;1.82;70.0;0.076294;-0.028941;4.0;4.5;3.25;3.5;1.5;2.25;0.0;1.75;0.0;1.25;0.75;0.75;0.5;0.5;0.5;0.75;-0.231934;-0.01123;0.980469;-0.84;0.14;0.98;249.0;-0.176821;-0.107621
3.89;0.5;0.0;0.25;0.0;0.5;0.5;0.25;0.0;0.25;0.75;1.0;0.5;0.25;0.25;0.0;0.5;-0.212402;0.03418;0.986816;-1.75;1.33;1.75;52.0;0.077313;-0.040153;4.25;4.25;3.0;3.5;1.5;1.75;0.0;1.75;0.0;1.0;1.0;0.75;0.5;0.5;0.5;1.0;-0.236328;-0.008301;0.98291;-0.56;0.21;1.05;243.0;-0.173873;-0.106507
3.9;0.5;0.5;0.25;0.25;0.5;0.25;0.25;0.25;0.0;1.0;0.5;0.0;0.0;0.0;0.0;0.5;-0.208008;0.041992;0.982422;-1.75;1.26;1.61;45.0;0.0;0.0;3.25;3.75;3.0;3.5;1.5;1.75;0.0;1.5;0.0;1.0;1.0;0.75;0.75;0.25;0.5;0.75;-0.23877;-0.011719;0.98584;-0.63;0.07;1.19;224.0;-0.167163;-0.114536
3.91;0.25;0.5;0.25;0.5;0.5;0.0;0.25;0.25;0.25;1.25;0.5;0.25;0.25;0.5;0.0;0.5;-0.212402;0.040527;0.98584;-1.96;1.47;1.54;57.0;0.050186;-0.039703;2.75;4.0;2.5;2.75;1.5;1.75;0.0;1.75;0.25;1.25;1.25;1.0;0.75;0.25;0.5;0.75;-0.235352;-0.004395;0.979004;-0.42;0.14;0.98;223.0;-0.137413;-0.119889
3.92;0.25;0.5;0.25;0.5;0.5;0.25;0.0;0.5;0.0;1.0;0.5;0.0;0.25;0.25;0.0;0.5;-0.210938;0.039551;0.982422;-1.82;1.75;1.47;49.0;0.0;0.0;2.75;4.25;2.5;2.5;1.25;1.75;0.0;1.75;0.25;0.5;1.25;1.0;0.75;0.5;0.25;1.0;-0.23584;-0.006836;0.987305;-0.56;0.0;1.12;213.0;-0.149398;-0.126223
3.93;0.75;0.75;0.75;0.25;0.5;0.25;0.0;0.5;0.25;1.25;0.75;0.25;0.25;0.25;0.5;0.5;-0.209961;0.036621;0.980957;-1.89;2.03;1.33;74.0;0.005724;-0.067344;3.75;3.75;2.75;2.75;2.0;1.75;0.0;1.75;0.0;0.5;1.0;1.0;0.5;0.5;0.5;1.0;-0.234863;-0.01123;0.977539;-0.63;-0.07;1.12;226.0;-0.163294;-0.110046
3.94;1.0;0.75;0.75;0.25;0.5;0.25;0.25;0.0;0.5;1.25;0.5;0.25;0.25;0.5;0.25;0.5;-0.209961;0.041504;0.981445;-1.82;2.1;1.4;73.0;-0.001623;0.006888;3.5;4.0;2.75;3.0;1.75;1.5;0.0;1.75;0.0;0.75;0.75;1.0;0.75;0.5;0.5;1.0;-0.236816;-0.004883;0.981934;-0.7;-0.07;1.12;226.0;-0.161998;-0.115469
3.95;1.25;1.0;0.5;0.5;0.5;0.5;0.0;0.25;0.25;1.25;0.75;0.0;0.25;0.5;0.0;0.75;-0.20752;0.041992;0.984863;-1.68;2.1;1.26;76.0;-0.052373;-0.050913;2.75;4.25;3.0;3.25;1.75;1.5;0.0;1.75;0.0;1.0;0.75;1.0;0.75;0.5;0.5;0.5;-0.240234;-0.010742;0.977051;-0.63;0.0;0.98;225.0;-0.160885;-0.117822
3.96;1.0;0.75;0.25;0.25;0.5;0.25;0.0;0.25;0.25;1.25;1.25;0.0;0.25;0.5;0.25;0.75;-0.20459;0.035645;0.987305;-1.54;2.17;1.33;71.0;0.024292;-0.04938;3.25;4.25;3.0;3.25;1.5;1.75;0.0;1.75;0.25;1.25;1.0;1.0;0.75;0.5;0.5;0.75;-0.233398;-0.00293;0.980957;-0.77;-0.07;1.12;239.0;-0.150161;-0.111117
3.97;0.75;0.75;0.5;0.25;0.5;0.25;0.0;0.0;0.25;1.25;1.25;0.5;0.25;0.5;0.0;0.25;-0.205566;0.039062;0.98291;-1.54;2.24;1.47;67.0;0.017189;-0.038697;3.5;3.75;2.5;2.75;1.25;1.75;0.0;1.75;0.0;1.0;1.0;1.0;0.5;0.75;0.5;1.0;-0.23291;-0.006836;0.98584;-0.84;0.07;0.91;221.0;-0.147027;-0.114258
3.98;0.5;0.5;0.75;0.5;0.5;0.25;0.25;0.25;0.0;0.75;1.0;0.5;0.25;0.5;0.25;0.0;-0.208984;0.038574;0.975586;-1.26;2.1;1.4;66.0;-0.001365;-0.06099;2.5;3.0;2.5;2.75;1.0;1.75;0.0;1.75;0.0;0.5;1.0;0.75;0.5;1.0;0.5;1.0;-0.235352;-0.009277;0.984375;-0.84;0.07;0.91;197.0;-0.134516;-0.124742
3.99;0.75;0.5;0.75;0.75;0.5;0.5;0.25;0.25;0.25;1.0;1.0;0.5;0.25;0.5;0.25;0.25;-0.206543;0.039062;0.981934;-1.4;2.17;1.4;80.0;-0.004448;-0.055372;3.75;4.0;2.75;2.75;1.0;2.0;0.0;1.5;0.25;0.75;1.25;0.75;0.5;0.25;0.5;0.75;-0.234863;-0.003418;0.97998;-0.91;-0.14;0.84;220.0;-0.16758;-0.108111
4.0;1.25;0.75;1.0;0.75;0.5;0.25;0.25;0.25;0.5;1.25;1.25;0.25;0.25;0.5;0.5;0.5;-0.211426;0.041504;0.986816;-1.33;1.96;1.4;96.0;-0.006558;-0.026434;4.0;4.0;2.25;3.25;0.75;1.0;0.0;2.0;0.25;0.75;0.75;0.75;0.75;0.25;0.75;0.5;-0.239746;-0.007812;0.980957;-0.84;-0.14;0.91;215.0;-0.169082;-0.118302
4.01;1.75;1.0;1.0;0.5;0.75;0.0;0.0;0.25;0.5;1.5;0.75;0.25;0.5;0.5;0.25;0.5;-0.209473;0.038086;0.982422;-1.4;2.03;1.4;94.0;-0.043298;-0.01951;4.0;3.0;2.5;3.25;0.75;1.0;0.0;2.0;0.5;0.25;0.75;0.75;0.5;0.5;0.75;0.75;-0.23291;-0.004395;0.974609;-0.84;-0.14;0.84;208.0;-0.158108;-0.107446
4.02;1.25;1.0;0.75;0.25;0.75;0.25;0.25;0.25;0.25;1.25;0.5;0.5;0.25;0.5;0.5;0.25;-0.206543;0.041016;0.980957;-1.4;1.89;1.47;84.0;-0.024286;-0.025511;2.75;4.5;2.5;3.0;1.0;1.5;0.0;2.0;0.25;0.5;1.0;1.0;0.5;0.75;0.75;0.75;-0.240234;-0.006348;0.982422;-0.7;-0.21;0.84;220.0;-0.145843;-0.125881
4.03;1.0;1.25;0.75;0.0;0.75;0.5;0.25;0.0;0.25;1.0;0.75;0.5;0.5;0.25;0.0;0.25;-0.20752;0.037598;0.980469;-1.47;2.1;1.33;75.0;-0.053629;-0.037164;3.5;4.25;2.0;3.0;1.25;1.5;0.0;2.0;0.0;1.0;1.0;0.75;0.5;0.75;0.5;1.0;-0.235352;-0.010254;0.981934;-0.63;-0.21;0.91;221.0;-0.152733;-0.121817
4.04;1.25;0.75;1.0;0.5;0.75;0.25;0.25;0.25;0.5;0.75;1.0;0.5;0.25;0.25;0.0;0.5;-0.199707;0.045898;0.982422;-1.4;1.96;1.33;84.0;-0.04955;-0.02972;2.75;3.5;2.5;2.75;1.5;1.5;0.0;1.75;0.25;1.0;1.0;0.75;0.5;0.5;0.25;1.0;-0.235352;-0.009277;0.983887;-0.84;-0.28;0.84;208.0;-0.145233;-0.112747
4.05;1.5;0.75;1.25;0.75;0.5;0.0;0.25;0.25;0.0;1.0;1.25;0.5;0.0;0.5;0.0;0.25;-0.206543;0.039551;0.975586;-1.26;1.75;1.26;84.0;-0.074086;-0.025735;2.75;4.25;2.5;2.75;1.5;1.75;0.0;2.0;0.0;1.0;1.25;1.0;0.5;0.5;0.25;1.0;-0.231445;-0.010742;0.976562;-0.63;-0.42;0.91;222.0;-0.148518;-0.127692
4.06;1.75;1.25;1.25;0.5;0.5;0.0;0.25;0.5;0.25;1.25;1.25;0.5;0.25;0.5;0.0;0.5;-0.210938;0.045898;0.979492;-1.47;1.89;1.26;100.0;-0.061194;-0.037315;2.5;4.0;2.5;3.0;1.25;1.75;0.25;1.75;0.0;1.0;1.0;0.75;0.5;0.5;0.25;0.75;-0.230469;-0.004395;0.980469;-0.63;-0.35;0.84;211.0;-0.15472;-0.12002
4.07;1.5;1.5;1.25;0.5;0.5;0.25;0.25;0.25;0.5;1.0;1.0;0.25;0.5;0.75;0.0;0.25;-0.204102;0.036621;0.984863;-1.54;1.61;1.26;98.0;-0.067138;-0.022451;2.5;4.25;2.5;3.0;1.25;1.75;0.25;1.75;0.25;1.0;0.5;0.75;0.5;0.0;0.75;0.5;-0.237305;-0.006348;0.980469;-0.63;-0.28;0.84;211.0;-0.160821;-0.11848
4.08;1.75;1.25;1.0;0.75;0.75;0.0;0.25;0.0;0.25;1.0;1.0;0.0;0.25;0.5;0.0;0.0;-0.202637;0.035156;0.979004;-1.47;1.82;1.19;84.0;-0.11256;0.008073;2.5;3.75;2.5;2.5;1.25;1.75;0.0;1.75;0.25;1.0;0.75;1.0;0.75;0.25;0.5;1.0;-0.235352;-0.012695;0.987305;-0.77;-0.35;0.91;207.0;-0.139603;-0.126321
4.09;2.25;1.0;0.5;1.0;0.5;0.25;0.25;0.25;0.25;0.5;1.0;0.5;0.5;0.5;0.25;0.25;-0.211426;0.037598;0.97998;-1.47;1.75;1.19;93.0;-0.089275;-0.052839;2.75;3.5;2.5;2.5;1.25;1.5;0.0;1.5;0.0;1.0;1.0;1.0;0.75;0.5;0.5;0.75;-0.23877;-0.006836;0.979004;-0.7;-0.21;0.91;202.0;-0.141131;-0.118483
4.1;2.25;1.5;0.5;1.0;0.5;0.5;0.25;0.25;0.0;0.5;1.0;0.5;0.25;0.5;0.25;0.25;-0.20752;0.03418;0.981445;-1.47;1.82;1.33;95.0;-0.121837;-0.065383;3.5;2.75;2.25;2.25;1.0;1.5;0.25;1.5;0.0;1.25;1.0;0.75;0.75;0.75;0.25;0.75;-0.234375;-0.009277;0.982422;-0.63;-0.28;0.84;198.0;-0.135494;-0.099226
4.11;2.5;1.5;1.0;1.0;0.5;0.25;0.25;0.25;0.25;0.75;1.0;0.25;0.25;0.5;0.25;0.25;-0.211914;0.038574;0.98877;-1.4;1.96;1.4;103.0;-0.123082;-0.030338;2.75;3.5;2.5;2.5;1.0;1.5;0.25;1.5;0.0;1.25;1.0;1.0;0.75;0.75;0.0;0.75;-0.235352;-0.001465;0.985352;-0.7;-0.28;0.77;202.0;-0.140773;-0.11035
4.12;2.5;1.5;1.0;0.5;0.25;0.5;0.25;0.0;0.5;1.25;0.75;0.25;0.25;0.5;0.5;0.25;-0.205078;0.034668;0.988281;-1.47;1.96;1.4;102.0;-0.086948;-0.002488;2.75;4.0;2.5;2.75;1.25;1.75;0.25;1.5;0.25;1.0;1.0;1.0;0.5;0.5;0.25;0.5;-0.231934;-0.006348;0.984375;-0.63;-0.42;0.84;212.0;-0.151348;-0.107038
4.13;2.5;1.5;1.0;0.5;0.0;0.25;0.25;0.25;0.5;1.25;0.75;0.5;0.25;0.25;0.25;0.5;-0.208984;0.04248;0.984375;-1.4;1.96;1.4;100.0;-0.09076;-0.023521;3.5;4.0;2.25;3.0;1.25;2.0;0.25;2.0;0.75;1.25;0.25;1.0;0.5;0.5;0.25;1.0;-0.234375;-0.007812;0.983887;-0.77;-0.35;0.63;232.0;-0.146751;-0.104531
4.14;2.5;1.5;1.0;0.5;0.5;0.0;0.25;0.25;0.0;1.25;1.0;0.5;0.0;0.25;0.0;0.5;-0.195801;0.03418;0.989258;-1.4;1.82;1.47;94.0;-0.123243;-0.022908;2.5;4.25;2.5;3.25;1.25;1.75;0.25;1.5;0.5;1.0;0.5;0.75;0.5;0.75;0.0;1.0;-0.237793;-0.010742;0.981445;-0.77;-0.42;0.63;214.0;-0.156343;-0.105206
4.15;2.5;1.5;1.0;1.0;0.5;0.25;0.0;0.25;0.0;0.75;1.0;0.0;0.5;0.25;0.0;0.25;-0.204102;0.043945;0.985352;-1.26;1.96;1.47;91.0;-0.171096;-0.056199;2.75;4.25;2.0;2.75;1.25;1.75;0.0;1.5;0.5;1.0;0.5;0.75;0.5;0.5;0.25;0.75;-0.231934;-0.006836;0.984863;-0.77;-0.49;0.63;202.0;-0.159256;-0.111808
4.16;2.5;1.25;1.25;1.25;0.5;0.5;0.25;0.25;0.25;0.75;1.25;0.0;0.5;0.0;0.0;0.25;-0.20459;0.037598;0.987305;-1.19;1.82;1.47;104.0;-0.151849;-0.045871;3.5;3.5;1.75;3.0;1.5;1.5;0.0;1.75;0.25;1.0;0.75;0.75;0.5;0.5;0.0;0.5;-0.234863;-0.006348;0.980469;-0.77;-0.49;0.77;202.0;-0.168742;-0.111858
4.17;2.75;1.5;1.25;0.5;0.75;0.5;0.0;0.25;0.5;0.5;1.25;0.25;0.25;0.0;0.0;0.25;-0.203613;0.04248;0.993164;-1.19;2.17;1.47;101.0;-0.155381;-0.029527;3.5;2.75;2.5;2.5;1.5;1.5;0.25;1.5;0.0;1.0;0.75;1.0;0.5;0.5;0.0;0.5;-0.234375;-0.002441;0.986328;-0.84;-0.28;0.7;198.0;-0.161755;-0.096401
4.18;2.75;1.75;1.25;0.5;0.75;0.5;0.0;0.5;0.5;0.5;1.25;0.25;0.25;0.25;0.0;0.5;-0.206055;0.036133;0.987793;-1.19;2.17;1.33;110.0;-0.13986;-0.04319;2.75;3.75;1.75;2.25;1.5;1.75;0.0;1.25;0.0;1.25;0.5;0.75;0.25;0.5;0.0;0.5;-0.231934;-0.006348;0.980469;-0.7;-0.42;0.7;180.0;-0.173886;-0.108061
