Time;left pressure 1[N/cm²];left pressure 2[N/cm²];left pressure 3[N/cm²];left pressure 4[N/cm²];left pressure 5[N/cm²];left pressure 6[N/cm²];left pressure 7[N/cm²];left pressure 8[N/cm²];left pressure 9[N/cm²];left pressure 10[N/cm²];left pressure 11[N/cm²];left pressure 12[N/cm²];left pressure 13[N/cm²];left pressure 14[N/cm²];left pressure 15[N/cm²];left pressure 16[N/cm²];left acceleration X[g];left acceleration Y[g];left acceleration Z[g];left angular X[dps];left angular Y[dps];left angular Z[dps];left total force[N];left center of pressure X[-0.5...+0.5];left center of pressure Y[-0.5...+0.5];right pressure 1[N/cm²];right pressure 2[N/cm²];right pressure 3[N/cm²];right pressure 4[N/cm²];right pressure 5[N/cm²];right pressure 6[N/cm²];right pressure 7[N/cm²];right pressure 8[N/cm²];right pressure 9[N/cm²];right pressure 10[N/cm²];right pressure 11[N/cm²];right pressure 12[N/cm²];right pressure 13[N/cm²];right pressure 14[N/cm²];right pressure 15[N/cm²];right pressure 16[N/cm²];right acceleration X[g];right acceleration Y[g];right acceleration Z[g];right angular X[dps];right angular Y[dps];right angular Z[dps];right total force[N];right center of pressure X[-0.5...+0.5];right center of pressure Y[-0.5...+0.5]
0.0;11.5;8.0;6.5;6.75;3.75;3.75;0.25;0.75;0.0;0.0;0.25;0.0;0.0;1.5;0.0;0.0;-0.183105;0.019043;0.982422;-1.82;1.96;-0.07;541.0;-0.275954;-0.043614;3.75;6.0;4.5;5.0;4.25;2.0;0.0;0.25;0.25;0.5;0.5;0.0;0.0;1.25;0.75;0.5;-0.210938;0.03125;0.98877;-1.54;-1.4;1.12;366.0;-0.212961;-0.053491
0.01;9.5;8.25;6.75;7.0;3.75;3.75;0.25;0.75;0.0;0.0;0.25;0.0;0.0;1.5;0.0;0.0;-0.182617;0.021484;0.986816;-1.75;1.89;-0.07;525.0;-0.270691;-0.051739;3.75;6.0;4.5;5.0;4.25;2.0;0.0;0.25;0.25;0.5;0.5;0.0;0.0;1.25;0.75;0.5;-0.210938;0.03125;0.98877;-1.54;-1.4;1.12;366.0;-0.212961;-0.053491
0.02;9.5;8.25;6.75;6.75;3.75;4.0;0.25;0.5;0.0;0.0;0.25;0.0;0.0;1.5;0.0;0.0;-0.18457;0.019043;0.982422;-1.89;2.1;-0.07;521.0;-0.272105;-0.049054;3.75;6.0;5.25;5.0;3.75;2.0;0.0;0.25;0.25;0.5;0.25;0.0;0.0;1.25;0.75;0.75;-0.208984;0.029297;0.98584;-1.68;-1.47;1.19;368.0;-0.217162;-0.052268
0.03;9.5;8.25;6.75;6.75;3.75;4.0;0.25;0.5;0.0;0.0;0.0;0.25;0.0;1.0;0.0;0.0;-0.180664;0.020508;0.987305;-1.82;2.03;-0.14;516.0;-0.278916;-0.052384;4.0;5.75;5.25;5.5;4.0;2.0;0.0;0.0;0.25;0.25;0.25;0.0;0.0;0.75;1.0;0.75;-0.210449;0.028809;0.989258;-1.54;-1.4;1.19;369.0;-0.227407;-0.052321
0.04;9.5;8.25;6.25;7.25;3.75;3.75;0.25;0.5;0.0;0.0;0.0;0.0;0.0;0.75;0.0;0.0;-0.191406;0.020508;0.983887;-1.75;1.96;-0.07;507.0;-0.286515;-0.054707;4.0;5.5;5.25;5.5;4.25;2.5;0.0;0.25;0.25;0.0;0.25;0.0;0.0;0.75;0.75;0.5;-0.211914;0.032227;0.985352;-1.61;-1.4;1.26;373.0;-0.23294;-0.058067
0.05;9.5;8.25;6.0;7.25;3.75;4.0;0.25;0.5;0.0;0.0;0.0;0.0;0.0;0.5;0.0;0.0;-0.187988;0.016113;0.983887;-1.75;1.89;-0.14;504.0;-0.289303;-0.058239;4.0;5.5;5.25;5.25;4.25;2.0;0.25;0.25;0.25;0.25;0.5;0.0;0.0;1.25;0.5;0.5;-0.212402;0.029297;0.980469;-1.61;-1.54;1.26;376.0;-0.219009;-0.045387
0.06;9.75;8.25;7.0;7.0;3.75;3.5;0.25;0.5;0.0;0.0;0.0;0.0;0.0;0.5;0.0;0.0;-0.1875;0.020996;0.98584;-1.61;1.96;0.0;511.0;-0.29113;-0.04956;4.0;5.5;5.25;5.0;3.75;2.0;0.0;0.25;0.25;0.25;0.0;0.0;0.0;1.25;0.75;0.5;-0.214355;0.03125;0.988281;-1.61;-1.26;1.19;358.0;-0.226141;-0.048392
0.07;9.5;8.25;6.5;6.75;3.75;3.75;0.25;0.5;0.0;0.0;0.0;0.0;0.0;0.5;0.0;0.0;-0.179199;0.02002;0.984863;-1.61;1.82;0.07;501.0;-0.289898;-0.052693;3.75;5.5;5.0;5.0;3.75;2.0;0.0;0.0;0.5;0.0;0.0;0.0;0.0;1.0;0.75;0.25;-0.21875;0.03418;0.983887;-1.68;-1.4;1.19;344.0;-0.233189;-0.044356
0.08;10.25;8.0;6.25;6.75;3.75;3.75;0.25;0.5;0.0;0.0;0.0;0.0;0.0;0.5;0.0;0.0;-0.19043;0.022949;0.989746;-1.82;2.17;-0.07;504.0;-0.291457;-0.050034;3.5;5.5;5.0;5.0;4.0;1.75;0.0;0.0;0.5;0.25;0.0;0.0;0.0;0.75;0.75;0.25;-0.210938;0.032715;0.97998;-1.54;-1.47;1.26;341.0;-0.231862;-0.043213
0.09;10.5;7.75;6.5;6.75;3.75;3.75;0.25;0.5;0.0;0.0;0.0;0.0;0.0;0.5;0.0;0.0;-0.188477;0.021484;0.981934;-1.75;2.03;-0.07;508.0;-0.291288;-0.047517;3.25;5.5;5.0;5.0;3.75;2.0;0.0;0.0;0.5;0.5;0.0;0.0;0.0;1.0;0.75;0.5;-0.211914;0.02832;0.980957;-1.61;-1.4;1.12;345.0;-0.218839;-0.046414
0.1;10.5;7.5;6.5;6.75;3.75;3.75;0.25;0.5;0.0;0.0;0.0;0.0;0.0;0.25;0.0;0.0;-0.195312;0.020996;0.990723;-1.75;2.1;-0.07;502.0;-0.29415;-0.048002;4.0;5.5;5.0;5.0;4.0;1.75;0.0;0.0;0.5;0.25;0.0;0.0;0.0;1.25;0.75;0.25;-0.211914;0.030762;0.984863;-1.68;-1.4;1.26;353.0;-0.225608;-0.037365
0.11;10.5;7.75;6.5;7.25;3.75;4.0;0.0;0.75;0.0;0.0;0.25;0.0;0.0;0.25;0.0;0.0;-0.18457;0.023926;0.983887;-1.75;1.96;-0.07;518.0;-0.291449;-0.058231;4.0;6.0;5.0;5.25;4.0;1.75;0.0;0.0;0.25;0.0;0.25;0.0;0.0;1.0;0.25;0.0;-0.210938;0.032715;0.989258;-1.61;-1.4;1.26;347.0;-0.253577;-0.045794
0.12;10.5;7.75;6.5;7.25;3.75;3.75;0.0;0.5;0.0;0.0;0.0;0.0;0.0;0.25;0.0;0.0;-0.188477;0.022461;0.980469;-1.82;2.03;-0.07;507.0;-0.298039;-0.053501;4.0;5.75;4.75;5.0;4.0;1.75;0.0;0.0;0.25;0.0;0.25;0.0;0.0;0.75;0.25;0.25;-0.209473;0.031738;0.984863;-1.61;-1.47;1.12;337.0;-0.253858;-0.047367
0.13;10.5;7.5;6.5;7.0;3.75;3.75;0.0;0.5;0.0;0.0;0.0;0.0;0.0;0.5;0.0;0.0;-0.183105;0.023438;0.989746;-1.89;2.1;-0.14;504.0;-0.293882;-0.050603;3.5;5.75;5.0;5.0;3.75;2.0;0.0;0.0;0.0;0.25;0.25;0.0;0.0;0.75;0.25;0.5;-0.211426;0.033691;0.990723;-1.68;-1.4;1.26;335.0;-0.249891;-0.056168
0.14;10.5;7.75;6.5;6.75;3.75;4.0;0.0;0.5;0.0;0.0;0.25;0.0;0.0;0.5;0.0;0.0;-0.18457;0.019043;0.98877;-1.68;1.75;0.0;510.0;-0.290493;-0.051928;3.5;5.5;5.0;5.25;3.75;1.75;0.0;0.0;0.0;0.25;0.25;0.0;0.0;0.75;0.75;0.0;-0.212891;0.033203;0.982422;-1.68;-1.47;1.19;335.0;-0.243443;-0.052812
0.15;9.75;8.25;6.5;6.75;3.75;4.0;0.0;0.5;0.0;0.0;0.0;0.0;0.0;0.5;0.0;0.0;-0.186523;0.020996;0.987793;-1.75;2.03;-0.14;503.0;-0.293005;-0.055756;3.75;5.25;5.0;5.0;3.75;2.25;0.0;0.0;0.0;0.25;0.0;0.0;0.0;0.75;0.5;0.0;-0.217285;0.033691;0.986816;-1.61;-1.33;1.12;332.0;-0.251816;-0.052106
0.16;10.5;8.25;6.5;6.75;3.75;3.75;0.0;0.5;0.0;0.0;0.0;0.0;0.0;0.25;0.0;0.0;-0.189453;0.021973;0.988281;-1.82;2.03;-0.14;506.0;-0.29947;-0.052507;3.25;5.5;5.0;5.0;4.0;2.25;0.0;0.0;0.25;0.0;0.0;0.0;0.0;0.75;0.0;0.25;-0.209473;0.029297;0.985352;-1.75;-1.47;1.19;328.0;-0.257233;-0.052888
0.17;9.5;8.0;6.5;6.75;3.75;3.75;0.0;0.25;0.0;0.0;0.25;0.0;0.0;0.25;0.0;0.0;-0.185547;0.022461;0.984863;-1.75;1.82;-0.07;490.0;-0.295497;-0.053196;3.5;5.75;5.0;5.0;4.25;2.25;0.0;0.0;0.25;0.0;0.0;0.0;0.0;1.0;0.0;0.25;-0.205078;0.034668;0.978516;-1.61;-1.4;1.12;340.0;-0.253591;-0.049512
0.18;9.5;7.75;6.5;6.75;3.75;3.75;0.25;0.5;0.0;0.0;0.25;0.0;0.0;0.5;0.0;0.0;-0.188965;0.023926;0.987793;-1.82;2.03;0.0;498.0;-0.285258;-0.051833;4.0;5.5;5.0;5.5;3.75;2.25;0.0;0.0;0.25;0.25;0.0;0.0;0.0;0.75;0.25;0.25;-0.20752;0.03125;0.989258;-1.61;-1.4;1.12;347.0;-0.252518;-0.05211
0.19;9.5;8.25;6.25;6.75;3.75;3.75;0.25;0.5;0.0;0.0;0.0;0.0;0.0;0.75;0.0;0.0;-0.1875;0.027344;0.98877;-1.82;1.96;-0.07;500.0;-0.286501;-0.052473;3.5;5.5;5.0;5.0;3.75;1.75;0.0;0.0;0.25;0.25;0.25;0.0;0.0;0.75;0.25;0.25;-0.208496;0.035156;0.988281;-1.54;-1.4;1.19;331.0;-0.246454;-0.047955
0.2;9.75;8.25;6.5;6.75;3.75;3.75;0.0;0.5;0.0;0.0;0.0;0.0;0.0;0.5;0.0;0.0;-0.188965;0.020508;0.98877;-1.82;1.96;-0.14;499.0;-0.293923;-0.054341;3.25;5.5;5.0;4.75;4.0;1.75;0.0;0.0;0.0;0.25;0.25;0.0;0.0;1.0;0.25;0.5;-0.213379;0.033691;0.98291;-1.61;-1.4;1.26;328.0;-0.241267;-0.04998
0.21;10.5;7.5;6.25;6.75;3.75;3.75;0.25;0.5;0.0;0.0;0.0;0.0;0.0;0.5;0.0;0.0;-0.181152;0.022949;0.981445;-1.89;2.03;-0.14;502.0;-0.29077;-0.047775;3.5;5.5;5.0;5.0;4.0;2.0;0.0;0.0;0.25;0.25;0.0;0.0;0.0;1.0;0.25;0.25;-0.213379;0.030273;0.984375;-1.54;-1.33;1.19;337.0;-0.243789;-0.046735
0.22;9.5;8.25;6.25;6.75;3.75;3.75;0.25;0.5;0.0;0.0;0.25;0.0;0.0;0.5;0.0;0.0;-0.186523;0.021484;0.984863;-1.68;1.82;-0.07;501.0;-0.286839;-0.054035;3.5;5.5;5.0;4.75;4.0;2.0;0.0;0.0;0.0;0.25;0.0;0.0;0.0;0.75;0.0;0.0;-0.208008;0.029785;0.98291;-1.47;-1.4;1.26;322.0;-0.263919;-0.048903
0.23;9.5;7.5;6.5;6.75;3.75;3.75;0.0;0.5;0.0;0.0;0.0;0.25;0.0;0.25;0.0;0.0;-0.188965;0.020996;0.985352;-1.82;2.1;-0.07;489.0;-0.291569;-0.056239;3.75;5.5;5.0;5.0;4.0;2.0;0.0;0.25;0.0;0.25;0.25;0.0;0.0;1.0;0.0;0.25;-0.209961;0.029785;0.985352;-1.54;-1.4;1.19;341.0;-0.249558;-0.053935
0.24;9.75;7.75;6.5;6.75;3.75;3.75;0.0;0.5;0.0;0.0;0.0;0.0;0.0;0.25;0.0;0.0;-0.188965;0.018555;0.98877;-1.75;1.89;0.07;491.0;-0.296188;-0.054281;3.5;5.5;5.0;5.0;4.0;1.75;0.0;0.0;0.0;0.25;0.0;0.0;0.0;1.0;0.25;0.25;-0.213867;0.032227;0.980469;-1.61;-1.33;1.12;330.0;-0.250629;-0.048313
0.25;10.5;8.0;6.5;7.0;3.75;3.75;0.0;0.5;0.0;0.0;0.0;0.0;0.0;0.5;0.0;0.0;-0.186035;0.021973;0.983887;-1.89;1.89;-0.07;509.0;-0.295213;-0.051856;3.5;5.5;5.0;5.0;4.0;2.0;0.0;0.0;0.25;0.25;0.0;0.0;0.0;0.75;0.5;0.0;-0.211426;0.036133;0.98291;-1.54;-1.47;1.19;336.0;-0.245582;-0.047476
0.26;10.5;8.25;6.75;7.0;3.75;3.75;0.0;0.75;0.0;0.0;0.0;0.0;0.0;0.75;0.0;0.0;-0.185059;0.021973;0.982422;-1.82;1.96;-0.07;522.0;-0.289764;-0.05341;3.5;5.5;5.0;5.0;3.75;2.0;0.0;0.0;0.0;0.0;0.0;0.0;0.0;1.0;0.5;0.25;-0.210938;0.030273;0.98291;-1.61;-1.47;1.19;330.0;-0.249289;-0.053001
0.27;10.5;8.25;6.25;7.0;3.75;3.75;0.0;0.5;0.0;0.0;0.0;0.0;0.0;1.0;0.0;0.0;-0.186035;0.016602;0.986328;-1.82;2.03;-0.07;514.0;-0.289076;-0.051123;3.5;5.5;5.0;5.0;3.75;2.0;0.0;0.25;0.0;0.0;0.0;0.0;0.0;1.0;0.25;0.5;-0.210938;0.036621;0.987793;-1.54;-1.54;1.33;333.0;-0.249258;-0.058631
0.28;11.25;8.25;6.25;6.75;3.75;3.75;0.0;0.5;0.0;0.0;0.0;0.0;0.0;0.75;0.0;0.0;-0.1875;0.018555;0.990234;-1.75;2.03;0.0;517.0;-0.294577;-0.048267;3.5;5.5;4.75;5.0;4.0;1.25;0.0;0.0;0.25;0.25;0.25;0.0;0.0;1.0;0.0;0.25;-0.207031;0.029785;0.98291;-1.61;-1.4;1.19;324.0;-0.248083;-0.041642
0.29;10.25;7.75;6.25;6.75;3.75;3.5;0.0;0.5;0.0;0.0;0.0;0.0;0.0;0.75;0.0;0.0;-0.189941;0.02002;0.987305;-1.75;2.1;-0.07;496.0;-0.291435;-0.049405;3.75;5.5;5.0;5.0;4.25;1.5;0.0;0.0;0.25;0.25;0.25;0.0;0.0;0.5;0.25;0.25;-0.212891;0.032227;0.981934;-1.61;-1.54;1.19;335.0;-0.251434;-0.043882
0.3;9.75;7.5;6.25;6.75;3.75;3.75;0.25;0.75;0.0;0.0;0.0;0.0;0.0;0.5;0.0;0.0;-0.186035;0.020508;0.991699;-1.82;1.96;0.0;497.0;-0.28611;-0.053859;3.75;5.5;5.0;5.0;4.25;1.75;0.0;0.0;0.0;0.5;0.25;0.0;0.0;0.25;0.25;0.25;-0.212402;0.032227;0.98291;-1.61;-1.4;1.19;335.0;-0.256866;-0.050506
0.31;10.25;7.5;6.75;7.0;3.75;3.75;0.25;0.75;0.0;0.0;0.0;0.0;0.0;0.25;0.0;0.0;-0.192871;0.023926;0.984375;-1.82;2.17;-0.07;510.0;-0.290741;-0.052262;3.5;5.75;4.5;5.25;4.0;1.75;0.0;0.0;0.0;0.5;0.25;0.0;0.0;0.75;0.25;0.0;-0.213867;0.03418;0.983398;-1.68;-1.33;1.19;331.0;-0.251029;-0.05384
0.32;10.5;7.75;6.25;6.75;3.75;3.75;0.0;0.75;0.0;0.0;0.0;0.0;0.0;0.5;0.0;0.0;-0.189941;0.023926;0.981445;-1.68;1.89;-0.14;504.0;-0.29224;-0.05411;3.5;5.5;5.0;5.25;4.0;1.75;0.0;0.0;0.0;0.25;0.25;0.0;0.0;0.75;0.25;0.25;-0.20459;0.033691;0.990234;-1.61;-1.4;1.19;334.0;-0.251564;-0.0524
0.33;11.25;7.75;6.5;6.75;3.75;3.75;0.0;0.25;0.0;0.0;0.0;0.0;0.0;0.5;0.0;0.0;-0.192871;0.022949;0.989258;-1.82;1.89;-0.07;508.0;-0.299119;-0.044127;3.75;5.5;5.0;5.25;4.0;1.5;0.0;0.0;0.0;0.25;0.25;0.0;0.0;1.0;0.75;0.5;-0.208008;0.033203;0.987305;-1.54;-1.4;1.26;344.0;-0.234109;-0.048933
0.34;9.75;8.25;6.75;7.0;3.75;3.75;0.0;0.25;0.0;0.0;0.0;0.0;0.0;0.5;0.0;0.0;-0.184082;0.018066;0.98584;-1.75;1.89;-0.14;501.0;-0.296251;-0.051435;3.75;6.25;5.0;5.25;4.0;1.5;0.0;0.0;0.0;0.0;0.0;0.0;0.0;1.25;0.75;0.5;-0.209473;0.029297;0.985352;-1.54;-1.47;1.12;348.0;-0.242105;-0.050476
0.35;10.5;8.25;6.25;6.75;3.75;3.75;0.0;0.25;0.0;0.0;0.0;0.0;0.0;0.5;0.0;0.0;-0.186523;0.022461;0.983398;-1.82;1.82;-0.14;501.0;-0.298705;-0.0492;3.5;6.25;5.25;5.0;4.0;2.25;0.0;0.25;0.0;0.0;0.0;0.0;0.0;0.75;0.75;0.0;-0.208496;0.033691;0.986816;-1.54;-1.47;1.26;351.0;-0.249988;-0.060405
0.36;9.5;8.0;6.0;6.75;3.75;3.75;0.0;0.5;0.0;0.0;0.0;0.0;0.0;0.5;0.0;0.0;-0.188477;0.023926;0.993652;-1.89;1.96;-0.07;487.0;-0.292921;-0.056714;4.0;6.0;5.0;5.25;4.0;2.25;0.0;0.0;0.25;0.25;0.25;0.0;0.0;0.75;0.75;0.0;-0.216797;0.030762;0.992676;-1.54;-1.47;1.26;360.0;-0.240694;-0.051154
0.37;9.5;8.0;6.25;7.0;4.0;3.75;0.0;0.5;0.0;0.0;0.0;0.0;0.0;0.5;0.0;0.0;-0.192383;0.01709;0.976562;-1.75;1.82;-0.07;497.0;-0.291594;-0.056064;4.0;5.75;5.0;4.75;4.0;1.75;0.0;0.0;0.25;0.25;0.25;0.0;0.0;0.75;0.5;0.25;-0.211914;0.032227;0.984375;-1.61;-1.4;1.12;343.0;-0.24314;-0.043648
0.38;9.5;7.5;6.25;6.75;3.75;3.75;0.0;0.5;0.0;0.0;0.25;0.0;0.0;0.75;0.0;0.0;-0.184082;0.020508;0.981934;-1.82;2.17;-0.07;490.0;-0.284386;-0.053654;3.5;5.5;5.0;5.0;4.0;2.0;0.0;0.0;0.5;0.0;0.0;0.0;0.0;0.75;0.5;0.25;-0.214844;0.031738;0.990234;-1.54;-1.4;1.19;338.0;-0.241347;-0.046047
0.39;9.75;7.5;6.5;6.75;3.75;4.0;0.0;0.5;0.0;0.0;0.25;0.0;0.0;0.75;0.0;0.0;-0.188477;0.020996;0.979492;-1.82;2.1;-0.07;500.0;-0.284136;-0.053121;3.75;5.5;5.0;5.0;4.0;2.0;0.0;0.0;0.25;0.25;0.0;0.0;0.0;0.75;0.75;0.25;-0.213379;0.033203;0.987793;-1.61;-1.4;1.26;344.0;-0.238211;-0.047633
0.4;10.25;7.75;6.0;6.75;3.75;3.75;0.0;0.5;0.25;0.0;0.25;0.0;0.0;0.5;0.0;0.0;-0.186035;0.022949;0.984375;-1.75;1.96;0.0;500.0;-0.286752;-0.050818;3.75;5.75;4.75;5.0;4.0;2.0;0.0;0.25;0.25;0.0;0.25;0.0;0.0;0.75;0.5;0.25;-0.215332;0.030762;0.97998;-1.61;-1.33;1.33;345.0;-0.242357;-0.055772
0.41;11.25;7.5;6.25;6.75;3.75;3.5;0.25;0.5;0.25;0.0;0.0;0.0;0.0;0.5;0.0;0.0;-0.187012;0.01709;0.986328;-1.75;2.03;0.0;511.0;-0.289511;-0.041033;3.5;5.5;5.0;5.0;4.0;2.0;0.0;0.0;0.0;0.25;0.25;0.0;0.0;1.0;0.25;0.25;-0.209961;0.032715;0.980469;-1.47;-1.4;1.19;336.0;-0.245242;-0.051117
0.42;9.75;7.5;6.5;7.0;3.75;3.75;0.0;0.25;0.0;0.0;0.0;0.0;0.0;0.75;0.0;0.0;-0.189453;0.020996;0.983887;-1.75;1.96;0.0;492.0;-0.290785;-0.049279;3.75;5.5;4.75;5.0;4.0;1.75;0.0;0.0;0.0;0.0;0.25;0.0;0.0;1.0;0.75;0.25;-0.208008;0.035156;0.981445;-1.47;-1.4;1.26;336.0;-0.239733;-0.05053
0.43;9.5;7.5;6.5;6.75;3.75;3.75;0.0;0.5;0.25;0.0;0.0;0.0;0.0;1.0;0.0;0.0;-0.187012;0.024414;0.984863;-1.75;1.96;-0.14;497.0;-0.279657;-0.04854;3.75;5.5;5.25;5.0;4.25;2.5;0.0;0.0;0.0;0.0;0.25;0.0;0.0;0.75;0.5;0.5;-0.208008;0.03125;0.978516;-1.61;-1.47;1.19;351.0;-0.244428;-0.055581
0.44;9.5;7.5;6.25;6.5;3.75;3.75;0.0;0.5;0.25;0.0;0.0;0.0;0.0;0.75;0.0;0.0;-0.185059;0.022949;0.989746;-1.82;2.17;-0.07;488.0;-0.283297;-0.049472;4.0;5.5;5.0;5.0;4.0;2.25;0.0;0.0;0.0;0.25;0.0;0.0;0.0;0.5;0.5;0.5;-0.208008;0.033203;0.986328;-1.68;-1.4;1.19;342.0;-0.252444;-0.054652
0.45;9.5;7.5;6.5;6.75;3.75;3.75;0.25;0.5;0.0;0.0;0.25;0.0;0.0;1.0;0.0;0.0;-0.194824;0.020508;0.98877;-1.82;1.89;-0.07;501.0;-0.277468;-0.048879;4.0;5.5;5.0;5.0;3.75;2.0;0.0;0.0;0.0;0.25;0.0;0.0;0.0;0.5;0.5;0.0;-0.208984;0.031738;0.979492;-1.54;-1.47;1.26;332.0;-0.26064;-0.051144
0.46;9.5;7.5;6.5;6.75;3.75;3.25;0.0;0.25;0.0;0.0;0.0;0.0;0.0;1.25;0.0;0.0;-0.191895;0.018066;0.990234;-1.82;2.1;-0.21;485.0;-0.284592;-0.043722;3.75;5.5;4.75;5.0;3.75;1.5;0.0;0.0;0.0;0.0;0.0;0.0;0.0;0.75;0.25;0.0;-0.209961;0.030273;0.983887;-1.54;-1.33;1.26;316.0;-0.267574;-0.048612
0.47;9.5;7.5;6.0;6.75;3.75;3.75;0.0;0.5;0.0;0.0;0.0;0.0;0.0;1.25;0.0;0.0;-0.1875;0.025391;0.987793;-1.75;2.03;-0.07;489.0;-0.280553;-0.051833;3.5;5.5;5.0;5.0;4.0;1.75;0.0;0.0;0.25;0.0;0.25;0.0;0.0;1.25;0.25;0.25;-0.210938;0.031738;0.980469;-1.54;-1.33;1.19;336.0;-0.239834;-0.044519
0.48;9.75;7.75;6.5;6.75;4.0;3.75;0.0;0.5;0.0;0.0;0.25;0.25;0.0;0.75;0.0;0.0;-0.184082;0.023926;0.984863;-1.75;1.96;-0.07;506.0;-0.281606;-0.053091;3.75;5.75;5.0;5.0;4.0;2.0;0.0;0.0;0.25;0.25;0.0;0.0;0.0;1.0;0.25;0.25;-0.209961;0.032227;0.978027;-1.47;-1.33;1.19;343.0;-0.246623;-0.046291
0.49;9.5;8.25;6.5;6.75;3.75;3.5;0.0;0.0;0.0;0.0;0.25;0.0;0.0;0.75;0.0;0.0;-0.187012;0.020508;0.986328;-1.82;2.03;-0.07;490.0;-0.292438;-0.04683;3.75;5.75;5.0;5.0;4.0;2.0;0.0;0.25;0.25;0.25;0.0;0.0;0.0;1.0;0.25;0.25;-0.213379;0.02832;0.986816;-1.54;-1.33;1.12;347.0;-0.243549;-0.050825
0.5;10.25;7.75;6.5;7.25;3.5;3.75;0.0;0.25;0.0;0.0;0.0;0.0;0.0;1.0;0.0;0.0;-0.192383;0.019531;0.98291;-1.82;1.89;-0.14;504.0;-0.290378;-0.048699;3.5;6.25;5.0;5.0;3.75;2.0;0.0;0.25;0.0;0.25;0.0;0.0;0.0;0.5;0.25;0.25;-0.214355;0.031738;0.987793;-1.47;-1.4;1.26;337.0;-0.261718;-0.062471
0.51;10.25;7.5;6.25;6.75;3.75;3.75;0.0;0.0;0.0;0.0;0.0;0.0;0.0;0.75;0.0;0.0;-0.187988;0.022461;0.98877;-1.82;2.03;0.0;487.0;-0.295014;-0.043834;3.5;6.5;5.0;5.25;4.0;2.0;0.0;0.25;0.0;0.0;0.0;0.0;0.0;0.5;0.25;0.0;-0.212891;0.029785;0.98584;-1.61;-1.4;1.12;342.0;-0.269408;-0.06364
0.52;11.25;7.75;6.25;7.0;3.75;3.75;0.0;0.25;0.0;0.0;0.0;0.0;0.0;0.75;0.0;0.0;-0.185547;0.021973;0.986816;-1.75;1.96;-0.14;510.0;-0.295731;-0.04506;3.75;5.75;5.0;5.5;4.0;2.25;0.0;0.25;0.0;0.25;0.25;0.0;0.0;0.75;0.75;0.25;-0.213867;0.036621;0.982422;-1.54;-1.47;1.19;360.0;-0.238188;-0.062258
0.53;11.25;7.5;6.0;6.75;3.75;3.75;0.0;0.5;0.0;0.0;0.0;0.0;0.0;1.0;0.0;0.0;-0.191406;0.025391;0.983398;-1.82;1.89;0.0;508.0;-0.28925;-0.046122;3.75;5.5;5.0;5.0;4.0;1.75;0.0;0.25;0.0;0.25;0.0;0.0;0.0;0.75;0.75;0.25;-0.210938;0.036133;0.979004;-1.54;-1.47;1.12;341.0;-0.241688;-0.053775
0.54;9.5;7.5;6.25;6.5;3.75;3.5;0.0;0.25;0.25;0.0;0.0;0.0;0.0;1.0;0.0;0.0;-0.186523;0.022949;0.981445;-1.82;1.96;-0.14;483.0;-0.283086;-0.043539;3.5;5.75;5.0;5.25;4.0;1.75;0.0;0.25;0.0;0.0;0.0;0.0;0.0;0.75;0.25;0.0;-0.210938;0.029297;0.986816;-1.68;-1.4;1.26;333.0;-0.261701;-0.057209
0.55;9.5;7.5;6.5;6.5;3.75;3.5;0.0;0.25;0.0;0.0;0.0;0.0;0.0;1.25;0.0;0.0;-0.183594;0.023438;0.986816;-1.82;1.89;0.0;485.0;-0.283682;-0.044034;4.0;6.0;5.0;5.0;4.25;2.0;0.0;0.25;0.25;0.0;0.25;0.0;0.0;0.5;0.25;0.0;-0.212402;0.031738;0.986816;-1.47;-1.4;1.26;350.0;-0.257622;-0.052968
0.56;9.5;8.0;6.5;6.75;3.75;3.75;0.0;0.25;0.0;0.0;0.0;0.0;0.0;1.0;0.0;0.0;-0.183594;0.023438;0.986328;-1.89;1.89;0.0;494.0;-0.2879;-0.049246;3.75;5.75;5.0;5.0;4.25;2.25;0.0;0.25;0.0;0.0;0.0;0.0;0.0;0.5;0.25;0.25;-0.209473;0.03125;0.984375;-1.61;-1.4;1.19;342.0;-0.2614;-0.060018
0.57;10.5;8.25;6.25;6.75;3.75;3.5;0.0;0.25;0.0;0.0;0.0;0.0;0.0;0.5;0.0;0.0;-0.192871;0.023438;0.987305;-1.82;1.96;-0.07;498.0;-0.299664;-0.047736;4.0;5.5;5.0;5.0;4.25;1.5;0.0;0.25;0.25;0.0;0.0;0.0;0.0;0.75;0.25;0.25;-0.210938;0.030762;0.98584;-1.61;-1.4;1.19;339.0;-0.253556;-0.045832
0.58;9.75;8.25;6.5;7.0;3.75;3.5;0.0;0.25;0.0;0.0;0.0;0.25;0.0;0.5;0.0;0.0;-0.187012;0.022461;0.988281;-1.75;1.96;0.0;498.0;-0.294201;-0.052475;3.5;5.75;5.0;5.0;3.75;1.25;0.0;0.25;0.0;0.25;0.0;0.0;0.0;0.75;0.25;0.25;-0.216309;0.03418;0.985352;-1.61;-1.33;1.26;325.0;-0.257113;-0.052505
0.59;9.5;7.5;6.5;7.0;3.75;3.5;0.0;0.5;0.0;0.0;0.0;0.0;0.0;0.75;0.0;0.0;-0.187988;0.021484;0.990234;-1.82;2.03;-0.07;491.0;-0.288408;-0.051975;3.25;5.75;5.0;5.0;3.75;2.0;0.0;0.25;0.0;0.25;0.25;0.0;0.0;0.75;0.0;0.5;-0.206055;0.031738;0.983887;-1.54;-1.33;1.19;333.0;-0.251389;-0.062051
0.6;9.5;7.5;6.5;6.75;3.75;3.75;0.25;0.25;0.0;0.0;0.0;0.0;0.0;0.5;0.0;0.0;-0.184082;0.022461;0.985352;-1.82;1.96;-0.14;488.0;-0.290338;-0.047601;3.75;5.75;5.0;5.0;4.0;2.0;0.0;0.25;0.0;0.25;0.25;0.0;0.0;1.0;0.25;0.5;-0.213867;0.03125;0.982422;-1.68;-1.47;1.19;348.0;-0.242149;-0.056283
0.61;9.5;7.5;6.25;6.75;3.75;3.75;0.25;0.25;0.0;0.0;0.0;0.0;0.0;0.5;0.0;0.0;-0.183105;0.019043;0.984375;-1.68;1.96;-0.07;485.0;-0.29051;-0.048543;3.5;5.5;5.0;5.25;4.0;2.0;0.0;0.25;0.5;0.0;0.25;0.0;0.0;1.0;0.25;0.5;-0.214355;0.029785;0.986328;-1.61;-1.4;1.26;350.0;-0.232917;-0.052136
0.62;9.75;7.5;6.5;7.25;3.75;3.5;0.25;0.25;0.0;0.0;0.25;0.0;0.0;0.5;0.0;0.0;-0.1875;0.018555;0.987305;-1.68;2.03;-0.07;497.0;-0.288664;-0.047921;4.0;5.5;4.75;5.0;4.0;2.25;0.0;0.0;0.0;0.0;0.25;0.0;0.0;0.75;0.25;0.25;-0.208008;0.033691;0.979004;-1.61;-1.47;1.19;337.0;-0.256489;-0.054495
0.63;9.5;8.25;6.25;7.0;3.75;3.0;0.0;0.25;0.0;0.0;0.0;0.25;0.0;0.5;0.0;0.0;-0.189453;0.02002;0.980469;-1.68;2.03;-0.07;485.0;-0.295608;-0.051522;3.5;5.5;4.75;5.0;3.75;2.0;0.0;0.0;0.0;0.0;0.25;0.0;0.0;0.75;0.75;0.25;-0.211914;0.03418;0.98291;-1.68;-1.4;1.12;330.0;-0.243482;-0.057083
0.64;9.5;7.5;6.25;6.75;3.75;3.0;0.0;0.5;0.0;0.0;0.0;0.0;0.0;0.5;0.0;0.0;-0.187988;0.021484;0.980469;-1.75;1.96;-0.07;475.0;-0.294182;-0.04997;3.5;5.5;5.0;5.0;4.0;2.0;0.0;0.0;0.25;0.25;0.25;0.0;0.0;1.0;0.75;0.5;-0.211426;0.030762;0.986816;-1.61;-1.4;1.19;348.0;-0.225049;-0.049233
0.65;9.5;7.5;6.5;6.75;3.75;3.5;0.0;0.25;0.0;0.0;0.0;0.0;0.0;1.0;0.0;0.0;-0.185547;0.020508;0.98291;-1.75;1.96;0.0;485.0;-0.287345;-0.046415;3.75;5.5;5.0;5.0;4.0;2.0;0.0;0.0;0.0;0.25;0.0;0.0;0.0;1.0;0.25;0.25;-0.212891;0.035645;0.972656;-1.54;-1.54;1.19;336.0;-0.251082;-0.04904
0.66;9.5;7.5;6.0;7.0;3.75;3.5;0.25;0.25;0.25;0.0;0.0;0.0;0.0;0.25;0.0;0.0;-0.188965;0.018555;0.983398;-1.89;2.03;0.0;483.0;-0.290854;-0.047753;3.75;5.5;5.0;5.0;4.25;1.5;0.0;0.0;0.0;0.25;0.25;0.0;0.0;1.0;0.0;0.25;-0.210938;0.037109;0.981934;-1.68;-1.4;1.26;333.0;-0.253484;-0.043889
0.67;9.5;7.75;6.25;6.75;3.75;3.75;0.0;0.25;0.0;0.25;0.0;0.0;0.0;0.25;0.0;0.0;-0.187988;0.022461;0.986328;-1.89;2.17;-0.14;483.0;-0.294939;-0.052376;3.5;5.25;5.0;5.0;4.0;2.0;0.0;0.0;0.25;0.0;0.25;0.0;0.0;1.0;0.25;0.5;-0.214355;0.024902;0.987793;-1.54;-1.4;1.12;336.0;-0.239568;-0.048705
0.68;9.5;8.25;6.25;6.75;3.75;3.75;0.0;0.5;0.0;0.0;0.0;0.0;0.0;0.5;0.0;0.0;-0.188965;0.021973;0.983398;-1.82;1.82;-0.07;493.0;-0.293428;-0.056338;3.25;5.5;5.0;5.0;4.0;2.0;0.0;0.0;0.25;0.0;0.5;0.0;0.0;1.0;0.75;0.25;-0.210449;0.028809;0.98877;-1.61;-1.4;1.19;343.0;-0.226302;-0.051047
0.69;9.5;7.75;6.5;6.75;3.75;3.75;0.0;0.5;0.0;0.0;0.0;0.0;0.0;0.75;0.0;0.0;-0.188965;0.017578;0.987793;-1.82;1.96;-0.07;493.0;-0.288233;-0.052922;3.25;6.0;5.0;5.0;4.0;1.5;0.0;0.0;0.25;0.25;0.25;0.0;0.0;1.25;0.75;0.25;-0.216797;0.03125;0.987305;-1.75;-1.4;1.26;345.0;-0.225948;-0.045395
0.7;10.25;7.5;6.5;6.75;3.75;3.75;0.0;0.5;0.0;0.0;0.0;0.0;0.0;0.75;0.0;0.0;-0.189453;0.02832;0.980957;-1.75;2.1;-0.07;500.0;-0.289663;-0.049289;3.5;5.75;5.0;5.0;4.0;1.0;0.0;0.0;0.5;0.5;0.25;0.0;0.0;0.75;0.25;0.25;-0.210938;0.032715;0.979492;-1.61;-1.4;1.26;334.0;-0.239009;-0.036473
0.71;11.25;7.5;6.0;6.75;3.75;3.75;0.0;0.5;0.0;0.0;0.0;0.0;0.0;0.75;0.0;0.0;-0.187012;0.019531;0.98584;-1.75;1.96;-0.14;506.0;-0.292769;-0.047244;3.5;5.5;5.0;5.0;4.0;2.0;0.0;0.0;0.25;0.25;0.5;0.0;0.0;0.75;0.25;0.5;-0.210938;0.032715;0.983398;-1.68;-1.4;1.19;342.0;-0.237215;-0.05092
0.72;10.25;7.5;6.0;6.5;3.75;3.75;0.0;0.25;0.0;0.0;0.25;0.0;0.0;1.0;0.0;0.0;-0.188965;0.018555;0.982422;-1.61;1.96;-0.14;491.0;-0.285672;-0.046073;4.0;5.5;5.25;5.0;4.0;2.25;0.0;0.0;0.0;0.25;0.25;0.0;0.0;1.0;0.25;0.25;-0.209473;0.033691;0.98877;-1.54;-1.4;1.19;349.0;-0.247374;-0.049003
0.73;10.5;7.75;6.25;6.75;3.75;3.75;0.25;0.25;0.0;0.0;0.25;0.0;0.0;1.0;0.0;0.0;-0.186523;0.022949;0.98291;-1.75;1.96;0.0;508.0;-0.283753;-0.043501;4.0;5.5;4.75;5.0;4.0;2.25;0.0;0.0;0.25;0.25;0.25;0.0;0.0;0.75;0.0;0.25;-0.207031;0.032227;0.986816;-1.54;-1.4;1.26;340.0;-0.252159;-0.049381
0.74;10.5;7.75;6.25;6.5;3.75;3.75;0.25;0.0;0.25;0.0;0.25;0.0;0.0;0.75;0.0;0.0;-0.183594;0.02002;0.97998;-1.89;2.17;-0.07;501.0;-0.285498;-0.037787;3.75;5.5;4.5;5.0;4.0;2.25;0.0;0.0;0.25;0.25;0.25;0.0;0.0;0.75;0.25;0.25;-0.214844;0.034668;0.986328;-1.68;-1.47;1.19;337.0;-0.244519;-0.052511
0.75;9.75;7.5;6.5;6.75;3.75;3.75;0.25;0.0;0.25;0.25;0.0;0.0;0.0;0.75;0.0;0.0;-0.189941;0.025391;0.98584;-1.75;1.96;-0.07;496.0;-0.282368;-0.039073;3.75;5.5;4.75;5.0;4.0;2.0;0.0;0.25;0.0;0.0;0.25;0.0;0.0;0.75;0.25;0.5;-0.213379;0.029297;0.982422;-1.68;-1.47;1.19;336.0;-0.249876;-0.059698
0.76;9.5;7.5;6.25;6.75;3.75;3.75;0.25;0.25;0.0;0.25;0.25;0.0;0.0;0.5;0.0;0.0;-0.188477;0.024414;0.990723;-1.82;1.89;-0.07;491.0;-0.283859;-0.048261;3.75;5.25;5.0;5.0;4.0;1.75;0.0;0.0;0.0;0.0;0.25;0.0;0.0;0.75;0.25;0.5;-0.211426;0.033203;0.981934;-1.54;-1.33;1.26;329.0;-0.252889;-0.050589
0.77;10.5;7.5;6.5;6.75;3.75;3.75;0.25;0.25;0.0;0.0;0.0;0.0;0.0;0.5;0.0;0.0;-0.181641;0.023438;0.98584;-1.75;2.03;-0.07;500.0;-0.293137;-0.043727;3.5;5.5;4.75;5.0;4.0;1.75;0.0;0.0;0.0;0.25;0.25;0.0;0.0;0.75;0.5;0.5;-0.212891;0.03125;0.980957;-1.47;-1.33;1.19;332.0;-0.241873;-0.053672
0.78;9.5;7.75;6.0;6.75;3.75;3.75;0.25;0.25;0.0;0.0;0.0;0.0;0.0;1.0;0.0;0.0;-0.187012;0.020508;0.986328;-1.75;1.89;-0.07;489.0;-0.284106;-0.047803;4.0;5.5;5.0;5.0;4.0;1.75;0.0;0.0;0.0;0.25;0.0;0.0;0.0;1.25;0.5;0.5;-0.212402;0.030762;0.982422;-1.54;-1.4;1.26;343.0;-0.239611;-0.045364
0.79;9.5;7.75;6.0;6.75;3.75;3.75;0.0;0.25;0.0;0.0;0.0;0.0;0.0;0.5;0.0;0.0;-0.185547;0.020996;0.984863;-1.75;1.96;-0.07;480.0;-0.294875;-0.0529;3.75;5.5;5.0;5.0;4.0;2.0;0.0;0.0;0.0;0.25;0.25;0.0;0.0;0.75;0.5;0.5;-0.213867;0.032715;0.982422;-1.68;-1.4;1.19;341.0;-0.242713;-0.05289
0.8;9.5;7.75;6.5;6.75;3.5;3.75;0.0;0.5;0.25;0.0;0.0;0.0;0.0;0.5;0.0;0.0;-0.190918;0.027832;0.977539;-1.75;2.03;-0.07;491.0;-0.288598;-0.052269;3.25;5.5;4.75;5.0;3.75;1.75;0.0;0.0;0.0;0.25;0.0;0.0;0.0;0.75;0.75;0.25;-0.212891;0.037598;0.981934;-1.68;-1.47;1.26;324.0;-0.242759;-0.05477
0.81;9.5;8.25;6.0;6.75;3.25;3.75;0.25;0.5;0.25;0.5;0.0;0.0;0.0;0.5;0.0;0.0;-0.189453;0.019043;0.986328;-1.68;2.03;0.0;498.0;-0.281479;-0.052075;3.25;5.5;4.5;5.0;3.75;1.75;0.0;0.0;0.0;0.0;0.0;0.0;0.0;0.75;0.75;0.25;-0.215332;0.032715;0.980957;-1.61;-1.47;1.19;317.0;-0.247253;-0.057448
0.82;9.5;7.75;6.5;6.75;3.75;3.75;0.25;0.5;0.0;0.25;0.0;0.0;0.0;0.5;0.0;0.0;-0.187988;0.020508;0.983887;-1.82;2.17;-0.14;498.0;-0.285187;-0.050709;3.75;5.5;4.75;5.0;4.0;2.0;0.0;0.0;0.25;0.25;0.25;0.0;0.0;0.75;0.25;0.5;-0.210449;0.037109;0.981934;-1.61;-1.33;1.19;339.0;-0.242728;-0.050242
0.83;9.5;8.0;6.5;6.75;3.75;4.0;0.25;0.5;0.0;0.0;0.25;0.0;0.0;0.5;0.0;0.0;-0.185547;0.023926;0.983398;-1.82;2.03;-0.14;504.0;-0.285118;-0.053885;3.75;5.5;5.0;5.0;4.0;2.0;0.0;0.0;0.25;0.5;0.25;0.0;0.0;0.75;0.25;0.75;-0.208984;0.032227;0.988281;-1.54;-1.4;1.19;347.0;-0.23581;-0.049103
0.84;9.75;7.75;6.5;6.75;3.75;3.75;0.25;0.5;0.0;0.0;0.5;0.0;0.0;0.75;0.0;0.0;-0.18457;0.017578;0.985352;-1.68;1.89;-0.14;507.0;-0.27934;-0.0501;3.5;5.5;5.0;5.0;4.0;2.0;0.0;0.0;0.5;0.5;0.25;0.0;0.0;0.75;0.5;0.25;-0.209473;0.035645;0.981934;-1.68;-1.33;1.26;348.0;-0.22853;-0.04471
0.85;10.5;7.5;6.5;6.75;3.5;3.75;0.0;0.5;0.0;0.25;0.0;0.0;0.0;1.0;0.0;0.0;-0.184082;0.022949;0.983887;-1.75;2.1;-0.07;505.0;-0.284645;-0.047204;3.25;5.5;5.0;5.0;4.0;2.25;0.0;0.0;0.25;0.5;0.0;0.0;0.0;0.75;0.75;0.25;-0.209961;0.027832;0.983887;-1.54;-1.33;1.26;344.0;-0.230098;-0.051576
0.86;9.5;7.75;6.25;6.75;3.75;3.75;0.0;0.5;0.0;0.0;0.0;0.0;0.0;1.25;0.0;0.0;-0.189453;0.021484;0.988281;-1.82;1.96;-0.07;495.0;-0.281211;-0.051519;4.0;5.5;4.5;5.0;3.75;2.25;0.0;0.0;0.0;0.5;0.0;0.0;0.0;0.75;0.5;0.25;-0.210449;0.03125;0.984375;-1.61;-1.4;1.19;336.0;-0.246802;-0.054551
0.87;11.25;7.5;6.25;6.75;3.75;3.25;0.25;0.25;0.0;0.0;0.0;0.0;0.0;1.0;0.0;0.0;-0.188477;0.02002;0.985352;-1.82;2.03;-0.14;505.0;-0.29008;-0.036619;4.0;5.5;4.75;5.0;3.75;1.75;0.0;0.0;0.0;0.25;0.0;0.0;0.0;0.75;0.0;0.25;-0.209473;0.027832;0.976074;-1.54;-1.4;1.19;324.0;-0.266224;-0.049279
0.88;9.75;7.5;6.5;6.75;3.75;3.75;0.0;0.25;0.0;0.0;0.0;0.0;0.0;0.75;0.0;0.0;-0.191895;0.020508;0.98584;-1.68;1.82;0.0;489.0;-0.290807;-0.048101;4.0;5.5;5.0;4.5;3.75;1.5;0.0;0.0;0.25;0.25;0.0;0.0;0.0;1.0;0.0;0.25;-0.212402;0.033203;0.972168;-1.54;-1.4;1.19;324.0;-0.255294;-0.036348
0.89;10.25;7.5;6.25;7.0;3.75;3.75;0.0;0.5;0.0;0.0;0.0;0.0;0.0;0.75;0.25;0.0;-0.186035;0.022461;0.986328;-1.82;1.96;-0.14;503.0;-0.285474;-0.051559;3.5;5.5;5.0;5.0;3.75;1.5;0.0;0.0;0.0;0.0;0.0;0.0;0.0;0.75;0.5;0.5;-0.208984;0.030273;0.979492;-1.54;-1.4;1.19;322.0;-0.253399;-0.051678
0.9;9.5;7.75;6.0;6.75;3.75;3.75;0.0;0.5;0.0;0.0;0.0;0.0;0.0;0.5;0.0;0.0;-0.186523;0.026367;0.987793;-1.89;2.17;-0.21;484.0;-0.292215;-0.05609;3.75;5.25;5.0;5.0;4.0;1.5;0.0;0.0;0.0;0.0;0.0;0.0;0.0;0.75;0.25;0.5;-0.210449;0.034668;0.981934;-1.54;-1.47;1.19;323.0;-0.258543;-0.047714
0.91;10.5;8.0;6.5;6.5;3.75;3.75;0.0;0.5;0.0;0.0;0.0;0.0;0.0;0.5;0.0;0.0;-0.193359;0.022949;0.990723;-1.68;1.89;0.0;503.0;-0.295313;-0.049597;3.25;5.5;4.75;5.0;3.75;1.5;0.0;0.0;0.0;0.25;0.25;0.0;0.0;1.25;0.0;0.25;-0.212402;0.036621;0.983887;-1.75;-1.33;1.26;319.0;-0.247801;-0.048649
0.92;9.75;7.75;6.5;6.75;3.75;3.75;0.0;0.0;0.0;0.0;0.0;0.0;0.0;1.0;0.0;0.0;-0.187012;0.025391;0.987793;-1.82;2.03;0.0;490.0;-0.290468;-0.044401;3.5;5.5;5.0;5.0;4.0;2.0;0.0;0.0;0.25;0.25;0.0;0.0;0.0;0.75;0.25;0.5;-0.210449;0.033203;0.983887;-1.54;-1.33;1.26;336.0;-0.245835;-0.049711
0.93;10.25;8.0;6.25;6.75;3.75;3.75;0.0;0.25;0.0;0.0;0.25;0.0;0.0;0.75;0.0;0.0;-0.19043;0.024902;0.985352;-1.75;1.96;-0.07;501.0;-0.290529;-0.048801;4.0;6.0;5.0;5.25;4.25;2.0;0.0;0.25;0.5;0.25;0.0;0.0;0.0;0.75;0.75;0.5;-0.212891;0.03125;0.987793;-1.61;-1.4;1.19;369.0;-0.231046;-0.0507
0.94;9.5;7.5;6.25;6.5;3.75;3.75;0.0;0.25;0.0;0.0;0.0;0.0;0.0;0.5;0.0;0.0;-0.187988;0.03125;0.985352;-1.75;1.89;-0.07;477.0;-0.294014;-0.050065;3.5;5.5;5.0;5.0;4.5;1.75;0.0;0.25;0.0;0.25;0.25;0.0;0.0;1.0;0.75;0.25;-0.212891;0.02832;0.980469;-1.54;-1.4;1.19;350.0;-0.229167;-0.051934
0.95;9.5;7.0;6.25;6.75;3.75;3.75;0.25;0.25;0.0;0.0;0.0;0.0;0.0;0.5;0.0;0.0;-0.18457;0.023438;0.983887;-1.82;1.96;-0.07;479.0;-0.289055;-0.047188;3.25;5.5;5.0;5.0;4.5;2.0;0.0;0.25;0.25;0.25;0.25;0.0;0.0;1.0;0.75;0.25;-0.209473;0.032227;0.981445;-1.61;-1.47;1.12;354.0;-0.221575;-0.051766
0.96;9.5;8.25;6.25;6.75;3.75;3.5;0.0;0.25;0.0;0.0;0.0;0.0;0.0;0.75;0.0;0.0;-0.188477;0.017578;0.983887;-1.75;1.82;-0.14;488.0;-0.293328;-0.050542;3.75;5.5;5.25;5.0;4.25;2.25;0.0;0.0;0.0;0.25;0.0;0.0;0.0;0.75;0.75;0.75;-0.208984;0.031738;0.976562;-1.61;-1.4;1.12;353.0;-0.236629;-0.053406
0.97;9.75;7.5;6.25;6.75;3.75;3.5;0.0;0.25;0.0;0.0;0.0;0.0;0.0;0.5;0.0;0.0;-0.189453;0.020508;0.983398;-1.82;1.96;-0.07;480.0;-0.295637;-0.048724;3.75;5.75;5.0;5.25;4.5;2.0;0.0;0.0;0.0;0.0;0.0;0.0;0.0;0.75;0.5;0.25;-0.210938;0.03125;0.981934;-1.54;-1.4;1.12;346.0;-0.253684;-0.05252
0.98;9.5;7.5;6.5;7.0;3.75;3.5;0.0;0.5;0.25;0.0;0.0;0.0;0.0;0.75;0.0;0.0;-0.188477;0.022461;0.984863;-1.75;1.96;-0.14;494.0;-0.284097;-0.049393;3.5;5.75;5.0;5.0;4.25;1.75;0.0;0.0;0.0;0.25;0.25;0.0;0.0;0.75;0.25;0.0;-0.211914;0.037598;0.983887;-1.61;-1.4;1.26;335.0;-0.254288;-0.049272
0.99;9.5;7.5;6.5;6.75;3.75;3.75;0.0;0.5;0.0;0.0;0.0;0.0;0.0;1.0;0.0;0.0;-0.186035;0.020508;0.978027;-1.68;1.82;-0.21;493.0;-0.283911;-0.051102;3.25;5.5;5.0;5.0;3.75;2.25;0.0;0.0;0.0;0.25;0.5;0.0;0.0;0.75;0.5;0.0;-0.209473;0.03125;0.979492;-1.68;-1.47;1.26;335.0;-0.241458;-0.057212
1.0;9.5;7.5;6.0;6.75;3.75;3.75;0.25;0.5;0.0;0.0;0.0;0.0;0.0;1.25;0.0;0.0;-0.182617;0.020508;0.984375;-1.75;1.96;-0.07;493.0;-0.277276;-0.049159;3.5;5.5;5.0;5.0;4.5;2.0;0.0;0.0;0.0;0.0;0.25;0.0;0.0;0.75;0.5;0.0;-0.213867;0.032715;0.985352;-1.68;-1.47;1.19;339.0;-0.249158;-0.050739
1.01;9.5;7.5;6.25;6.75;3.75;3.75;0.0;0.5;0.0;0.0;0.0;0.0;0.0;1.0;0.0;0.0;-0.187988;0.014648;0.98584;-1.75;2.03;-0.07;490.0;-0.284037;-0.052059;3.5;5.5;5.0;5.0;4.0;2.0;0.0;0.0;0.0;0.0;0.25;0.0;0.0;1.0;1.0;0.5;-0.209961;0.028809;0.980469;-1.68;-1.4;1.12;344.0;-0.228978;-0.054235
1.02;9.5;7.75;6.25;6.75;4.0;4.0;0.0;0.5;0.0;0.0;0.0;0.0;0.0;0.75;0.0;0.0;-0.187012;0.026855;0.981934;-1.82;2.03;-0.07;497.0;-0.286417;-0.054564;3.75;5.25;4.75;5.0;4.0;2.0;0.0;0.25;0.0;0.25;0.0;0.0;0.0;1.0;0.5;0.5;-0.214355;0.033691;0.98584;-1.61;-1.33;1.12;339.0;-0.237403;-0.055616
1.03;9.5;7.75;6.25;6.75;3.75;3.75;0.25;0.5;0.0;0.0;0.0;0.0;0.0;0.5;0.0;0.0;-0.187012;0.023926;0.990234;-1.75;1.96;-0.07;492.0;-0.288641;-0.052383;3.25;5.5;4.75;5.0;3.75;2.0;0.0;0.25;0.0;0.0;0.0;0.0;0.0;0.75;0.5;0.25;-0.208008;0.033203;0.980469;-1.61;-1.47;1.19;325.0;-0.249494;-0.062544
1.04;9.5;8.0;6.5;6.75;3.75;3.75;0.25;0.5;0.0;0.0;0.0;0.0;0.0;0.5;0.0;0.0;-0.1875;0.025879;0.984375;-1.75;1.75;-0.07;498.0;-0.289195;-0.052064;3.25;6.0;5.0;5.0;3.75;2.0;0.0;0.0;0.0;0.0;0.25;0.0;0.0;0.75;0.75;0.25;-0.210449;0.032715;0.983398;-1.68;-1.33;1.12;336.0;-0.245075;-0.058951
1.05;10.5;7.75;6.25;6.75;3.75;3.75;0.0;0.5;0.0;0.0;0.0;0.0;0.0;0.5;0.0;0.0;-0.19043;0.023438;0.989746;-2.03;2.03;-0.07;500.0;-0.294791;-0.051031;3.5;5.5;5.0;5.0;4.0;1.75;0.0;0.0;0.0;0.25;0.25;0.0;0.0;1.0;0.5;0.25;-0.210449;0.030762;0.984375;-1.75;-1.33;1.12;336.0;-0.240066;-0.049257
1.06;9.5;7.5;6.25;6.75;3.75;3.75;0.0;0.5;0.0;0.0;0.0;0.0;0.0;0.75;0.0;0.0;-0.18457;0.025879;0.986816;-1.82;1.96;-0.14;487.0;-0.287661;-0.053254;4.0;5.5;5.0;5.0;4.0;1.75;0.0;0.0;0.0;0.0;0.0;0.0;0.0;1.0;0.25;0.25;-0.208984;0.033203;0.983887;-1.54;-1.47;1.19;333.0;-0.258056;-0.046435
1.07;9.5;7.5;6.25;7.0;3.75;3.75;0.0;0.5;0.0;0.0;0.25;0.0;0.0;0.5;0.0;0.0;-0.187988;0.019043;0.98584;-1.75;1.82;-0.07;491.0;-0.288004;-0.055992;4.0;5.75;5.0;5.0;3.75;2.0;0.0;0.0;0.25;0.0;0.0;0.0;0.0;1.25;0.25;0.5;-0.210449;0.035156;0.984375;-1.54;-1.33;1.19;344.0;-0.245883;-0.046522
1.08;9.5;8.25;6.25;6.75;3.75;3.5;0.0;0.25;0.0;0.0;0.0;0.0;0.0;0.5;0.0;0.0;-0.186035;0.022461;0.983887;-1.82;2.03;-0.07;485.0;-0.297016;-0.051735;3.75;5.75;5.0;5.0;4.0;2.25;0.0;0.25;0.0;0.0;0.25;0.0;0.0;1.0;0.25;0.5;-0.211914;0.030762;0.990723;-1.61;-1.4;1.19;348.0;-0.245614;-0.05938
1.09;10.5;8.0;6.25;6.5;3.75;3.75;0.25;0.25;0.0;0.0;0.0;0.0;0.0;1.0;0.25;0.0;-0.18457;0.019043;0.985352;-1.75;2.03;-0.07;507.0;-0.283331;-0.042787;3.5;5.5;4.75;5.0;3.5;1.5;0.0;0.0;0.0;0.0;0.25;0.0;0.0;1.0;0.25;0.5;-0.210449;0.029297;0.980957;-1.61;-1.47;1.19;318.0;-0.251076;-0.052827
1.1;10.5;7.5;6.25;6.75;3.75;4.0;0.0;0.5;0.0;0.0;0.0;0.0;0.0;1.25;0.0;0.0;-0.187012;0.022949;0.981445;-1.82;2.03;-0.07;508.0;-0.282626;-0.048404;3.75;5.5;4.75;5.25;3.75;1.5;0.0;0.0;0.25;0.0;0.25;0.0;0.0;1.0;0.5;0.25;-0.214844;0.033691;0.984375;-1.68;-1.4;1.26;333.0;-0.242436;-0.047065
1.11;10.25;7.75;6.5;6.75;3.75;3.75;0.25;0.5;0.25;0.0;0.0;0.0;0.0;1.25;0.0;0.0;-0.18457;0.018555;0.984863;-1.75;1.89;-0.07;516.0;-0.276093;-0.042697;4.0;5.5;4.75;4.75;4.0;1.75;0.0;0.0;0.25;0.0;0.25;0.0;0.0;1.0;0.25;0.25;-0.208984;0.032715;0.98291;-1.68;-1.47;1.12;333.0;-0.247109;-0.042922
1.12;9.5;8.25;6.5;6.75;3.75;3.75;0.0;0.5;0.25;0.0;0.0;0.0;0.0;1.0;0.0;0.0;-0.191406;0.021973;0.981445;-1.68;1.75;0.0;505.0;-0.281904;-0.050468;3.5;5.5;5.0;4.75;4.0;2.25;0.0;0.0;0.0;0.25;0.5;0.0;0.0;1.0;0.25;0.25;-0.213379;0.032715;0.983398;-1.68;-1.54;1.26;339.0;-0.239597;-0.052161
1.13;9.5;8.25;6.5;6.75;3.75;3.75;0.0;0.5;0.0;0.0;0.0;0.0;0.0;0.5;0.0;0.0;-0.185547;0.02002;0.989746;-1.82;1.96;-0.07;496.0;-0.29324;-0.055359;3.5;5.5;5.0;5.0;4.0;2.0;0.0;0.0;0.0;0.25;0.0;0.0;0.0;1.25;0.25;0.5;-0.214844;0.033203;0.98584;-1.61;-1.4;1.19;337.0;-0.241764;-0.050053
1.14;10.5;7.75;6.0;6.75;3.75;3.75;0.25;0.25;0.0;0.0;0.0;0.0;0.0;0.5;0.0;0.0;-0.18457;0.020508;0.982422;-1.75;1.82;-0.07;496.0;-0.294196;-0.046196;4.0;5.5;5.0;5.0;4.25;2.0;0.0;0.25;0.0;0.5;0.0;0.0;0.0;1.25;0.25;0.5;-0.208984;0.034668;0.983398;-1.61;-1.33;1.26;354.0;-0.236328;-0.049639
1.15;10.5;7.75;6.75;6.75;3.75;3.75;0.25;0.0;0.0;0.0;0.0;0.0;0.0;0.75;0.0;0.0;-0.183594;0.025879;0.983398;-1.82;2.03;-0.07;504.0;-0.292621;-0.03926;3.25;5.5;4.75;5.0;4.0;2.0;0.0;0.0;0.25;0.5;0.0;0.0;0.0;1.25;0.25;0.5;-0.212402;0.030273;0.983887;-1.61;-1.54;1.19;338.0;-0.229839;-0.04808
1.16;9.75;7.75;6.5;6.75;3.75;3.75;0.25;0.25;0.0;0.0;0.0;0.0;0.0;0.75;0.0;0.0;-0.187988;0.021484;0.984375;-1.82;1.96;0.0;496.0;-0.288157;-0.046134;3.0;5.5;4.75;4.75;3.75;2.0;0.0;0.0;0.25;0.25;0.25;0.0;0.0;0.75;0.25;0.0;-0.210449;0.029297;0.983398;-1.68;-1.4;1.19;320.0;-0.244902;-0.051557
1.17;10.5;8.25;6.5;6.75;3.75;3.75;0.0;0.5;0.25;0.0;0.0;0.0;0.0;1.0;0.0;0.0;-0.1875;0.015137;0.987305;-1.75;1.96;0.0;518.0;-0.28481;-0.046656;3.25;5.5;4.75;5.0;3.75;2.0;0.0;0.0;0.25;0.5;0.25;0.0;0.0;0.75;0.5;0.0;-0.214355;0.03125;0.987305;-1.61;-1.33;1.19;332.0;-0.236121;-0.050983
1.18;9.5;7.5;6.0;6.75;3.75;3.75;0.0;0.5;0.0;0.0;0.0;0.0;0.0;0.75;0.0;0.0;-0.187012;0.023438;0.983398;-1.75;1.89;0.0;484.0;-0.287814;-0.054237;3.25;5.0;4.75;4.75;3.5;1.75;0.0;0.0;0.25;0.25;0.5;0.0;0.0;0.75;0.0;0.25;-0.209961;0.032227;0.984863;-1.61;-1.47;1.26;312.0;-0.244348;-0.048514
1.19;9.5;8.25;6.5;6.75;3.75;3.75;0.0;0.5;0.0;0.0;0.0;0.0;0.0;1.0;0.0;0.0;-0.182129;0.029297;0.980957;-1.75;1.82;-0.07;501.0;-0.286105;-0.053003;3.25;5.25;5.0;4.75;3.5;1.75;0.0;0.0;0.25;0.0;0.5;0.0;0.0;1.0;0.25;0.5;-0.210449;0.033203;0.987793;-1.54;-1.4;1.19;323.0;-0.236204;-0.049054
1.2;9.5;7.5;6.25;6.75;3.75;3.75;0.0;0.5;0.0;0.0;0.0;0.0;0.0;1.0;0.0;0.0;-0.179688;0.022949;0.98291;-1.68;1.89;0.0;490.0;-0.284037;-0.052059;3.5;5.5;5.0;4.75;4.25;1.75;0.0;0.0;0.25;0.0;0.5;0.0;0.0;1.0;0.25;0.25;-0.212891;0.033691;0.975586;-1.61;-1.47;1.26;337.0;-0.238838;-0.044065
1.21;11.25;7.75;6.25;6.75;3.75;3.5;0.0;0.5;0.0;0.0;0.0;0.0;0.0;0.75;0.0;0.0;-0.187988;0.022949;0.983398;-1.68;2.03;0.0;508.0;-0.294162;-0.045549;3.25;5.5;5.0;5.0;4.0;1.75;0.0;0.0;0.5;0.0;0.5;0.0;0.0;1.0;0.25;0.25;-0.211426;0.031738;0.98291;-1.61;-1.47;1.19;338.0;-0.233168;-0.04456
1.22;10.5;7.5;6.25;6.75;3.75;3.5;0.0;0.5;0.0;0.0;0.0;0.25;0.0;0.75;0.0;0.0;-0.1875;0.02002;0.985352;-1.75;2.03;0.07;500.0;-0.288279;-0.049331;3.5;5.5;4.75;5.0;3.75;1.75;0.0;0.0;0.25;0.5;0.5;0.0;0.0;1.0;0.75;0.5;-0.214844;0.029785;0.98584;-1.54;-1.33;1.19;344.0;-0.217999;-0.0491
1.23;9.5;7.0;6.25;6.75;3.75;3.5;0.0;0.5;0.0;0.0;0.25;0.0;0.0;0.75;0.0;0.0;-0.1875;0.016602;0.984863;-1.82;2.1;-0.07;482.0;-0.283762;-0.050882;3.5;5.5;4.75;5.0;4.0;2.0;0.0;0.0;0.0;0.0;0.25;0.0;0.0;1.0;0.5;0.75;-0.21582;0.032715;0.983887;-1.54;-1.47;1.19;336.0;-0.237633;-0.056387
1.24;9.5;7.5;6.5;6.5;3.75;3.5;0.0;0.25;0.0;0.0;0.25;0.0;0.0;0.5;0.0;0.0;-0.188965;0.022461;0.98584;-1.75;2.03;-0.07;480.0;-0.29139;-0.048014;3.5;5.5;5.0;5.0;4.0;1.75;0.0;0.0;0.0;0.0;0.0;0.0;0.0;1.25;0.5;0.75;-0.213867;0.038086;0.978027;-1.47;-1.4;1.12;336.0;-0.238146;-0.050514
1.25;10.25;8.25;6.5;6.5;3.75;3.75;0.0;0.25;0.25;0.0;0.25;0.0;0.0;0.5;0.0;0.0;-0.188477;0.025391;0.984863;-1.75;1.96;-0.07;505.0;-0.290363;-0.046017;3.5;5.5;5.0;5.0;4.0;1.75;0.0;0.0;0.0;0.25;0.0;0.0;0.0;1.0;0.5;0.5;-0.214844;0.03418;0.981934;-1.54;-1.4;1.12;334.0;-0.241522;-0.04991
1.26;10.25;7.5;6.25;6.75;3.75;3.75;0.0;0.25;0.25;0.0;0.0;0.0;0.0;0.25;0.0;0.0;-0.196777;0.015625;0.986328;-1.75;1.89;-0.07;491.0;-0.295301;-0.046816;4.0;5.5;4.75;4.75;4.0;1.75;0.0;0.0;0.0;0.25;0.0;0.0;0.0;1.0;0.75;0.25;-0.213379;0.028809;0.986816;-1.54;-1.19;1.19;336.0;-0.240668;-0.045684
1.27;9.5;7.75;6.25;6.75;3.75;3.5;0.0;0.5;0.25;0.0;0.0;0.0;0.0;0.5;0.0;0.0;-0.186035;0.024414;0.98291;-1.68;1.75;-0.07;488.0;-0.288568;-0.051001;3.25;5.5;4.75;5.25;4.25;1.5;0.0;0.0;0.0;0.0;0.0;0.0;0.0;1.0;0.25;0.25;-0.210449;0.028809;0.979004;-1.61;-1.4;1.19;323.0;-0.253824;-0.050733
1.28;9.5;8.25;6.75;7.0;3.75;3.75;0.0;0.25;0.25;0.0;0.0;0.0;0.0;0.25;0.0;0.0;-0.189941;0.022949;0.991211;-1.82;2.1;-0.14;500.0;-0.294854;-0.051039;3.0;5.75;5.0;5.0;4.25;1.75;0.0;0.0;0.25;0.25;0.25;0.0;0.0;0.75;0.25;0.5;-0.209961;0.032227;0.98584;-1.68;-1.54;1.19;336.0;-0.239669;-0.05096
1.29;10.25;7.75;6.5;6.75;3.75;4.0;0.0;0.25;0.0;0.0;0.0;0.0;0.0;0.25;0.0;0.0;-0.187012;0.018555;0.984863;-1.82;1.96;0.07;496.0;-0.299187;-0.05058;3.25;5.5;5.0;5.0;3.75;2.0;0.0;0.0;0.25;0.25;0.25;0.0;0.0;1.0;0.0;0.5;-0.209961;0.02832;0.987305;-1.54;-1.33;1.26;332.0;-0.242245;-0.050869
1.3;9.75;7.75;6.5;6.75;3.75;3.75;0.0;0.25;0.0;0.0;0.0;0.0;0.0;0.5;0.0;0.0;-0.188477;0.025391;0.983398;-1.82;1.96;-0.14;489.0;-0.29516;-0.049937;3.75;5.5;5.0;5.5;4.5;1.5;0.0;0.0;0.0;0.25;0.0;0.0;0.0;0.75;0.25;0.5;-0.212891;0.029785;0.98291;-1.61;-1.47;1.12;342.0;-0.253281;-0.048963
1.31;10.25;8.25;6.0;6.75;3.75;3.5;0.0;0.25;0.25;0.0;0.0;0.0;0.0;0.75;0.0;0.0;-0.185059;0.024902;0.987793;-1.75;2.1;-0.07;498.0;-0.291247;-0.045949;3.25;5.5;5.0;5.0;4.5;1.75;0.0;0.0;0.0;0.0;0.25;0.0;0.0;0.75;0.25;0.25;-0.209961;0.030762;0.986816;-1.54;-1.33;1.26;331.0;-0.251902;-0.051033
1.32;9.75;7.5;6.0;7.25;3.75;3.5;0.0;0.25;0.0;0.0;0.0;0.0;0.0;0.5;0.0;0.0;-0.188965;0.021484;0.981934;-1.75;2.03;0.07;483.0;-0.295736;-0.05207;3.25;5.5;5.0;4.75;4.0;1.75;0.0;0.0;0.0;0.0;0.25;0.0;0.0;0.75;0.25;0.25;-0.210449;0.033203;0.98584;-1.54;-1.4;1.19;321.0;-0.254128;-0.051555
1.33;10.25;7.75;6.0;6.75;3.75;3.75;0.25;0.5;0.0;0.0;0.0;0.0;0.0;0.5;0.0;0.0;-0.185547;0.021973;0.983398;-1.82;2.03;0.0;498.0;-0.290937;-0.050324;3.5;5.5;5.0;5.0;4.0;2.0;0.0;0.0;0.0;0.25;0.0;0.0;0.0;1.0;0.75;0.25;-0.208008;0.032227;0.980469;-1.61;-1.33;1.19;339.0;-0.237547;-0.051092
1.34;9.5;7.5;6.25;6.75;3.75;3.75;0.0;0.5;0.0;0.0;0.0;0.0;0.0;0.5;0.0;0.0;-0.186035;0.02002;0.988281;-1.75;1.89;0.0;485.0;-0.291322;-0.054462;3.75;5.5;5.0;5.0;4.25;2.0;0.0;0.0;0.25;0.25;0.0;0.0;0.0;1.25;0.25;0.5;-0.213867;0.03418;0.987793;-1.61;-1.47;1.19;347.0;-0.236493;-0.04393
1.35;9.5;7.75;6.5;6.75;3.75;3.75;0.0;0.5;0.0;0.0;0.0;0.0;0.0;0.5;0.0;0.0;-0.188477;0.022461;0.985352;-1.68;1.82;-0.07;491.0;-0.291851;-0.054113;3.75;5.5;5.0;5.0;4.0;1.75;0.0;0.0;0.0;0.25;0.25;0.0;0.0;1.25;0.0;0.25;-0.208496;0.027832;0.985352;-1.54;-1.4;1.19;335.0;-0.248722;-0.045468
1.36;9.5;7.5;6.5;6.5;3.75;3.75;0.25;0.5;0.0;0.0;0.0;0.0;0.0;0.5;0.0;0.0;-0.189453;0.020508;0.985352;-1.82;2.03;-0.14;489.0;-0.287767;-0.049617;3.25;5.5;5.0;3.75;4.0;1.75;0.0;0.0;0.0;0.5;0.0;0.0;0.0;1.25;0.0;0.25;-0.211426;0.033691;0.975586;-1.54;-1.4;1.19;313.0;-0.243507;-0.03732
1.37;9.5;7.0;6.5;6.75;3.75;3.75;0.0;0.5;0.0;0.0;0.0;0.0;0.0;1.0;0.0;0.0;-0.193848;0.026855;0.984375;-1.68;2.03;-0.07;488.0;-0.282408;-0.049799;3.25;5.5;5.0;5.0;4.0;1.75;0.0;0.0;0.25;0.25;0.0;0.0;0.0;0.75;0.25;0.25;-0.207031;0.030762;0.983398;-1.68;-1.4;1.19;328.0;-0.248263;-0.047694
1.38;9.5;7.75;6.5;6.75;3.75;3.75;0.0;0.25;0.0;0.0;0.0;0.0;0.0;0.5;0.0;0.0;-0.183594;0.021973;0.979492;-1.68;2.03;-0.21;486.0;-0.294471;-0.050948;3.25;5.5;4.75;5.0;3.75;1.5;0.0;0.0;0.0;0.0;0.0;0.0;0.0;1.0;0.5;0.25;-0.209961;0.033203;0.97998;-1.68;-1.4;1.33;317.0;-0.249608;-0.051563
1.39;9.5;8.0;6.5;6.75;3.75;3.75;0.25;0.25;0.0;0.0;0.0;0.0;0.0;0.5;0.0;0.0;-0.188965;0.021973;0.985352;-1.75;2.03;-0.14;493.0;-0.291752;-0.048927;3.75;5.5;5.0;5.25;3.75;1.75;0.0;0.0;0.0;0.0;0.0;0.0;0.0;1.25;0.25;0.25;-0.209473;0.036133;0.984375;-1.61;-1.54;1.26;332.0;-0.253189;-0.049001
1.4;9.5;8.25;6.25;6.75;3.75;3.75;0.25;0.5;0.0;0.0;0.0;0.0;0.0;0.25;0.0;0.0;-0.188965;0.022461;0.983398;-1.75;1.89;-0.07;495.0;-0.29366;-0.054831;3.75;5.5;5.0;5.25;3.75;2.0;0.0;0.0;0.0;0.25;0.25;0.0;0.0;1.0;0.0;0.25;-0.212402;0.036133;0.978516;-1.54;-1.4;1.19;336.0;-0.254359;-0.052149
1.41;10.25;8.25;6.25;6.75;3.75;3.75;0.0;0.5;0.0;0.0;0.0;0.0;0.0;0.25;0.0;0.0;-0.192383;0.021973;0.97998;-1.75;2.1;-0.07;500.0;-0.299053;-0.054454;3.75;5.5;5.0;5.0;3.75;1.5;0.0;0.0;0.25;0.5;0.5;0.0;0.0;1.0;0.25;0.25;-0.210449;0.030273;0.980957;-1.54;-1.4;1.26;340.0;-0.235063;-0.042286
1.42;9.75;7.5;6.25;7.0;3.75;3.75;0.0;0.25;0.25;0.0;0.0;0.0;0.0;0.25;0.0;0.0;-0.18457;0.025391;0.984863;-1.75;1.82;0.0;488.0;-0.293877;-0.04999;3.25;5.5;5.0;4.75;3.75;1.5;0.0;0.0;0.25;0.25;0.5;0.0;0.0;1.25;0.5;0.25;-0.208008;0.03125;0.98877;-1.61;-1.47;1.26;333.0;-0.224877;-0.04299
1.43;9.5;7.75;6.5;6.75;3.75;3.75;0.0;0.25;0.0;0.0;0.0;0.0;0.0;0.25;0.0;0.0;-0.188477;0.021973;0.984863;-1.75;1.89;0.07;484.0;-0.298175;-0.052146;3.0;5.5;4.75;5.0;4.0;2.0;0.0;0.0;0.25;0.0;0.5;0.0;0.0;0.75;0.25;0.25;-0.209473;0.030273;0.980469;-1.54;-1.4;1.26;328.0;-0.24126;-0.055159
1.44;9.75;7.5;6.5;6.75;3.75;3.75;0.0;0.25;0.0;0.0;0.0;0.25;0.0;0.75;0.0;0.0;-0.187012;0.020996;0.988281;-1.75;2.03;-0.07;492.0;-0.287607;-0.049685;3.25;5.5;4.75;5.0;4.0;2.0;0.0;0.0;0.0;0.25;0.25;0.0;0.0;0.75;0.25;0.0;-0.214355;0.03125;0.983887;-1.68;-1.4;1.26;326.0;-0.251658;-0.054557
1.45;10.5;7.0;6.25;6.75;3.75;3.75;0.0;0.25;0.0;0.0;0.0;0.0;0.0;0.5;0.0;0.0;-0.187012;0.024902;0.980469;-1.82;1.89;-0.07;487.0;-0.295361;-0.045885;3.5;5.75;4.5;5.0;4.0;2.0;0.0;0.0;0.25;0.25;0.0;0.0;0.0;0.75;0.25;0.5;-0.212402;0.033691;0.984863;-1.61;-1.33;1.26;332.0;-0.24686;-0.053473
1.46;9.75;7.5;6.0;6.75;3.75;3.75;0.0;0.25;0.0;0.0;0.0;0.0;0.0;0.5;0.0;0.0;-0.183594;0.023926;0.979492;-1.75;2.03;-0.14;480.0;-0.294874;-0.051204;4.0;5.25;5.0;5.0;3.75;1.75;0.0;0.0;0.0;0.0;0.0;0.0;0.0;0.75;0.5;0.75;-0.213379;0.035645;0.985352;-1.61;-1.47;1.26;331.0;-0.250848;-0.051172
1.47;9.5;8.0;6.5;6.75;3.75;3.75;0.0;0.5;0.0;0.0;0.0;0.0;0.0;0.5;0.0;0.0;-0.185059;0.021973;0.980469;-1.82;2.03;-0.07;494.0;-0.29255;-0.054739;3.5;5.5;4.75;5.0;3.75;2.0;0.0;0.0;0.25;0.0;0.0;0.0;0.0;1.0;0.25;0.75;-0.214355;0.03418;0.98291;-1.61;-1.33;1.12;330.0;-0.243393;-0.052832
1.48;9.5;8.0;6.75;6.75;3.75;3.75;0.25;0.5;0.0;0.0;0.0;0.0;0.0;0.5;0.0;0.0;-0.188477;0.022461;0.98291;-1.75;1.96;0.0;501.0;-0.289037;-0.051124;3.25;5.75;4.75;5.0;4.0;1.75;0.0;0.25;0.0;0.0;0.0;0.0;0.0;1.0;0.25;0.5;-0.209961;0.031738;0.984375;-1.61;-1.47;1.26;329.0;-0.248772;-0.059292
1.49;10.5;8.25;6.75;6.75;3.75;3.75;0.25;0.25;0.0;0.0;0.0;0.0;0.0;0.75;0.0;0.0;-0.1875;0.020508;0.989258;-1.82;2.1;-0.07;514.0;-0.29147;-0.043744;3.25;5.5;5.0;5.0;4.0;1.75;0.0;0.0;0.0;0.0;0.25;0.0;0.0;1.0;0.25;0.25;-0.209473;0.030762;0.979492;-1.47;-1.33;1.19;327.0;-0.249291;-0.051517
1.5;9.5;7.5;6.0;6.75;3.75;3.75;0.25;0.25;0.0;0.0;0.0;0.0;0.0;0.75;0.0;0.0;-0.192383;0.018555;0.98877;-1.68;1.82;0.07;484.0;-0.286999;-0.048309;3.75;5.5;5.0;5.0;3.75;2.0;0.0;0.0;0.0;0.0;0.25;0.0;0.0;0.75;0.25;0.25;-0.206543;0.033203;0.981934;-1.54;-1.4;1.33;330.0;-0.257534;-0.053573
1.51;9.75;7.5;6.0;6.75;3.75;3.75;0.25;0.25;0.0;0.0;0.0;0.0;0.0;1.0;0.0;0.0;-0.188965;0.01709;0.987305;-1.75;2.17;0.0;489.0;-0.284113;-0.046144;3.5;5.5;5.0;4.5;3.75;2.0;0.0;0.0;0.0;0.0;0.0;0.0;0.0;0.75;0.5;0.25;-0.209473;0.033691;0.98584;-1.61;-1.4;1.26;321.0;-0.253738;-0.051306
1.52;9.75;7.75;6.25;7.0;3.75;3.75;0.25;0.5;0.0;0.0;0.0;0.0;0.0;1.0;0.0;0.0;-0.19043;0.019531;0.981934;-1.82;2.17;-0.07;503.0;-0.282279;-0.050199;3.5;5.5;5.0;5.0;4.0;2.0;0.0;0.0;0.25;0.25;0.0;0.0;0.0;0.75;0.25;0.0;-0.213867;0.030762;0.976074;-1.54;-1.4;1.33;333.0;-0.251722;-0.04715
1.53;10.25;7.75;6.25;6.75;3.75;3.75;0.0;0.0;0.0;0.0;0.0;0.0;0.0;1.0;0.0;0.0;-0.18457;0.019531;0.983887;-1.68;1.96;0.0;493.0;-0.292056;-0.04338;3.5;5.5;5.0;5.0;4.0;1.75;0.0;0.0;0.25;0.25;0.25;0.0;0.0;0.75;0.0;0.0;-0.211426;0.032227;0.98291;-1.61;-1.4;1.19;329.0;-0.254431;-0.045239
1.54;10.5;8.25;6.5;6.75;3.75;3.75;0.0;0.0;0.0;0.0;0.0;0.0;0.0;1.0;0.0;0.0;-0.184082;0.024414;0.987305;-1.75;2.03;-0.07;505.0;-0.293927;-0.042911;3.75;5.0;5.0;4.5;4.0;1.5;0.0;0.0;0.25;0.0;0.5;0.0;0.0;1.0;0.0;0.5;-0.211914;0.03125;0.98291;-1.61;-1.47;1.19;323.0;-0.242169;-0.038419
1.55;10.5;8.25;6.5;7.0;4.0;4.0;0.0;0.25;0.25;0.0;0.0;0.0;0.0;0.75;0.0;0.0;-0.194824;0.02002;0.985352;-1.68;1.82;-0.07;520.0;-0.288774;-0.046584;4.0;5.5;5.0;5.0;4.0;1.5;0.0;0.0;0.5;0.25;0.0;0.0;0.0;1.25;0.5;0.5;-0.210449;0.027832;0.982422;-1.61;-1.4;1.19;348.0;-0.229267;-0.03604
1.56;10.5;7.5;6.25;6.75;3.75;4.0;0.25;0.5;0.0;0.0;0.0;0.0;0.0;0.75;0.0;0.0;-0.183594;0.019531;0.983887;-1.82;2.03;-0.07;507.0;-0.286367;-0.048093;3.5;5.75;5.0;5.5;4.0;1.75;0.0;0.0;0.25;0.25;0.0;0.0;0.0;1.0;0.5;0.5;-0.206543;0.031738;0.981934;-1.61;-1.47;1.19;348.0;-0.238178;-0.050487
1.57;11.25;7.75;6.25;6.5;3.75;3.75;0.0;0.25;0.0;0.0;0.0;0.0;0.0;0.75;0.0;0.0;-0.18457;0.026855;0.990234;-1.89;2.03;-0.14;504.0;-0.295837;-0.042718;3.75;5.75;5.0;5.0;4.0;1.75;0.0;0.0;0.0;0.0;0.0;0.0;0.0;1.0;0.5;0.5;-0.203613;0.03125;0.982422;-1.54;-1.4;1.19;337.0;-0.248883;-0.050453
1.58;10.5;7.5;6.25;6.75;3.75;3.75;0.0;0.25;0.0;0.0;0.0;0.0;0.0;0.75;0.0;0.0;-0.188965;0.021973;0.984863;-1.82;2.03;-0.07;495.0;-0.29309;-0.046082;3.75;5.75;5.0;5.0;4.0;2.0;0.0;0.0;0.0;0.25;0.0;0.0;0.0;1.25;0.25;0.75;-0.209961;0.03418;0.97998;-1.54;-1.33;1.19;345.0;-0.241794;-0.05079
1.59;9.75;7.75;6.75;6.75;3.75;3.75;0.0;0.5;0.0;0.0;0.0;0.0;0.0;0.75;0.0;0.0;-0.189453;0.019043;0.981445;-1.82;2.03;-0.14;500.0;-0.288794;-0.05097;3.5;5.75;4.5;5.0;4.0;2.25;0.0;0.0;0.0;0.25;0.25;0.0;0.0;0.5;0.25;0.5;-0.205566;0.029297;0.984375;-1.61;-1.33;1.26;332.0;-0.252445;-0.061841
1.6;9.5;8.25;6.25;6.75;3.75;3.75;0.0;0.25;0.0;0.0;0.0;0.0;0.0;0.75;0.0;0.0;-0.189941;0.020508;0.979492;-1.75;1.89;-0.07;491.0;-0.292393;-0.052017;3.5;5.5;4.5;4.75;3.75;1.75;0.0;0.0;0.0;0.25;0.0;0.0;0.0;0.25;0.5;0.5;-0.211914;0.029785;0.983398;-1.54;-1.4;1.19;314.0;-0.257605;-0.057724
1.61;9.5;8.25;6.25;6.75;3.75;4.0;0.0;0.25;0.0;0.0;0.25;0.0;0.0;1.0;0.0;0.0;-0.186523;0.025879;0.990234;-1.68;1.89;-0.07;500.0;-0.284664;-0.05269;3.5;6.0;4.5;5.25;3.75;1.75;0.0;0.0;0.0;0.5;0.0;0.0;0.0;0.5;0.5;0.25;-0.210449;0.031738;0.984375;-1.54;-1.33;1.19;330.0;-0.254048;-0.058659
1.62;9.75;8.25;6.5;6.75;3.5;3.5;0.0;0.0;0.0;0.0;0.0;0.0;0.0;1.0;0.0;0.0;-0.186035;0.025879;0.987305;-1.82;2.1;0.0;489.0;-0.293923;-0.044965;3.5;5.75;5.0;5.25;4.0;2.0;0.0;0.0;0.0;0.0;0.25;0.0;0.0;0.75;0.75;0.0;-0.214844;0.033691;0.980469;-1.61;-1.26;1.19;341.0;-0.247246;-0.055794
1.63;10.25;7.75;6.5;7.0;3.75;3.75;0.0;0.25;0.0;0.0;0.0;0.0;0.0;1.0;0.0;0.0;-0.187988;0.021973;0.988281;-1.82;1.89;0.0;504.0;-0.289321;-0.046834;3.5;5.5;4.75;5.0;4.0;1.75;0.0;0.0;0.0;0.0;0.25;0.0;0.0;1.0;0.25;0.25;-0.206543;0.028809;0.985352;-1.54;-1.33;1.19;326.0;-0.250587;-0.051435
1.64;10.5;8.25;6.5;7.0;3.75;3.75;0.0;0.25;0.0;0.0;0.25;0.0;0.0;0.5;0.0;0.0;-0.186523;0.021973;0.979492;-1.89;2.1;-0.07;511.0;-0.295203;-0.049832;3.5;5.75;5.0;5.0;4.0;1.5;0.0;0.0;0.0;0.0;0.0;0.0;0.0;1.0;0.0;0.25;-0.215332;0.029785;0.98291;-1.61;-1.47;1.26;323.0;-0.264138;-0.047808
1.65;11.25;8.25;6.5;6.75;3.75;3.5;0.0;0.5;0.0;0.0;0.0;0.0;0.0;0.25;0.0;0.0;-0.191406;0.022461;0.983398;-1.82;2.03;-0.07;512.0;-0.30229;-0.04818;3.25;5.5;5.0;5.0;3.75;1.75;0.0;0.0;0.0;0.0;0.0;0.0;0.0;1.0;0.25;0.25;-0.208496;0.028809;0.979004;-1.47;-1.4;1.19;320.0;-0.255202;-0.052046
1.66;9.5;8.25;6.5;7.0;4.0;3.5;0.0;0.25;0.0;0.0;0.0;0.0;0.0;0.5;0.0;0.0;-0.19043;0.021484;0.991699;-1.82;2.1;-0.07;495.0;-0.295602;-0.051182;3.5;6.0;5.0;4.75;4.0;1.5;0.0;0.0;0.0;0.0;0.25;0.0;0.0;1.0;0.5;0.25;-0.212402;0.03418;0.98584;-1.54;-1.4;1.12;332.0;-0.247896;-0.048331
1.67;9.5;7.75;6.25;6.75;3.75;3.75;0.0;0.25;0.0;0.0;0.0;0.0;0.0;0.5;0.25;0.0;-0.183105;0.021484;0.986816;-1.82;2.1;-0.07;486.0;-0.290152;-0.052112;3.5;5.5;5.0;5.0;4.0;1.75;0.0;0.0;0.25;0.0;0.25;0.0;0.0;0.75;0.75;0.5;-0.209473;0.027832;0.980957;-1.61;-1.33;1.19;339.0;-0.234783;-0.049819
1.68;9.5;8.25;6.25;7.0;3.5;3.75;0.0;0.5;0.0;0.0;0.0;0.0;0.0;0.75;0.0;0.0;-0.188965;0.020508;0.986816;-1.82;1.96;-0.14;495.0;-0.290892;-0.057037;3.5;5.75;5.0;5.0;4.0;1.75;0.0;0.0;0.25;0.25;0.25;0.0;0.0;0.75;0.25;0.5;-0.210449;0.03125;0.988281;-1.54;-1.4;1.19;339.0;-0.243771;-0.049126
1.69;9.5;7.75;6.25;6.75;3.5;3.75;0.0;0.5;0.0;0.0;0.0;0.0;0.0;1.0;0.0;0.0;-0.189453;0.026367;0.986328;-1.75;2.03;-0.07;489.0;-0.285851;-0.053464;3.5;6.0;4.25;5.0;4.0;2.0;0.0;0.0;0.25;0.25;0.25;0.0;0.0;0.75;0.25;0.25;-0.210938;0.032227;0.982422;-1.54;-1.33;1.19;333.0;-0.246589;-0.055163
1.7;9.75;8.0;6.25;6.75;3.75;3.75;0.0;0.5;0.0;0.0;0.0;0.0;0.0;1.0;0.0;0.0;-0.189941;0.019531;0.983398;-1.68;1.96;-0.07;498.0;-0.286248;-0.052323;3.75;6.0;4.5;5.0;4.0;2.0;0.0;0.0;0.0;0.25;0.25;0.0;0.0;0.75;0.5;0.0;-0.209473;0.032715;0.975586;-1.61;-1.4;1.19;337.0;-0.250895;-0.055064
1.71;9.5;8.25;6.5;6.75;3.75;3.75;0.0;0.25;0.0;0.0;0.0;0.0;0.0;1.0;0.0;0.0;-0.185547;0.021484;0.992676;-1.82;2.03;-0.14;497.0;-0.288616;-0.049896;3.5;5.75;5.0;5.25;4.0;1.75;0.0;0.0;0.0;0.25;0.0;0.0;0.0;1.0;0.25;0.25;-0.209473;0.036133;0.976562;-1.68;-1.54;1.12;336.0;-0.252355;-0.051008
1.72;9.5;7.75;6.5;7.25;3.75;3.75;0.0;0.25;0.0;0.0;0.0;0.0;0.0;1.0;0.0;0.0;-0.184082;0.024902;0.992188;-1.82;2.03;-0.07;498.0;-0.287181;-0.050913;3.75;5.5;5.0;5.25;3.75;1.75;0.0;0.0;0.0;0.0;0.0;0.0;0.0;1.0;0.0;0.25;-0.211426;0.033203;0.98291;-1.54;-1.4;1.26;327.0;-0.264684;-0.050442
1.73;11.25;7.75;6.5;6.75;3.75;3.5;0.25;0.5;0.0;0.0;0.0;0.0;0.0;1.0;0.0;0.0;-0.1875;0.023926;0.987793;-1.61;1.89;-0.07;519.0;-0.28729;-0.041102;3.75;5.75;5.0;5.25;4.0;2.0;0.0;0.0;0.25;0.25;0.0;0.0;0.0;1.0;0.25;0.0;-0.212891;0.030273;0.98584;-1.61;-1.4;1.19;344.0;-0.24986;-0.04674
1.74;9.75;7.75;6.0;7.25;3.75;3.5;0.25;0.25;0.0;0.0;0.0;0.0;0.0;1.25;0.0;0.0;-0.186035;0.014648;0.987793;-1.82;2.03;-0.14;498.0;-0.28221;-0.046544;4.0;5.25;5.0;5.0;4.0;1.75;0.0;0.0;0.25;0.25;0.25;0.0;0.0;1.25;0.0;0.0;-0.211914;0.030762;0.983887;-1.61;-1.33;1.12;338.0;-0.24583;-0.038084
1.75;9.5;7.5;6.25;6.75;3.75;3.75;0.25;0.0;0.0;0.0;0.0;0.0;0.0;0.75;0.0;0.0;-0.19043;0.021484;0.984375;-1.75;2.03;-0.14;483.0;-0.289444;-0.044114;3.5;5.25;5.0;5.0;4.0;1.75;0.0;0.0;0.0;0.25;0.5;0.0;0.0;1.25;0.5;0.25;-0.20752;0.030762;0.984863;-1.68;-1.4;1.19;339.0;-0.229446;-0.047222
1.76;9.5;8.25;6.5;6.75;3.75;3.75;0.0;0.25;0.0;0.0;0.25;0.0;0.0;0.75;0.0;0.0;-0.181641;0.025879;0.984863;-1.61;2.03;0.0;497.0;-0.288954;-0.05147;3.5;5.5;4.75;5.0;3.75;2.0;0.0;0.0;0.0;0.25;0.25;0.0;0.0;1.25;0.75;0.5;-0.207031;0.033691;0.980957;-1.54;-1.47;1.26;340.0;-0.226403;-0.053694
1.77;10.5;7.5;6.75;6.75;3.75;3.75;0.0;0.25;0.0;0.0;0.0;0.0;0.0;0.5;0.0;0.0;-0.186035;0.018066;0.982422;-1.75;1.89;-0.07;499.0;-0.296303;-0.045408;3.5;5.25;5.0;5.25;3.75;1.75;0.0;0.0;0.0;0.25;0.0;0.0;0.0;1.0;0.25;0.5;-0.212402;0.035156;0.980469;-1.54;-1.33;1.26;329.0;-0.24785;-0.051486
1.78;9.5;7.75;7.0;7.0;3.75;3.75;0.0;0.25;0.0;0.0;0.0;0.0;0.0;0.5;0.0;0.0;-0.184082;0.026367;0.98291;-1.68;1.96;-0.07;496.0;-0.294035;-0.050212;4.0;5.5;5.0;5.25;3.75;1.75;0.0;0.0;0.0;0.25;0.25;0.0;0.0;1.0;0.0;0.25;-0.212402;0.032715;0.981934;-1.54;-1.4;1.19;336.0;-0.256723;-0.048525
1.79;9.5;8.0;7.0;6.75;3.75;3.75;0.25;0.25;0.0;0.0;0.0;0.0;0.0;0.5;0.0;0.0;-0.186523;0.024414;0.984375;-1.82;1.89;-0.07;500.0;-0.291401;-0.047083;3.25;5.5;5.0;5.0;3.5;1.75;0.0;0.0;0.0;0.25;0.25;0.0;0.0;1.25;0.25;0.25;-0.205566;0.029297;0.977051;-1.61;-1.4;1.33;326.0;-0.241968;-0.050908
1.8;11.25;8.0;7.0;6.75;3.75;3.75;0.0;0.5;0.0;0.0;0.25;0.0;0.0;0.5;0.0;0.0;-0.1875;0.020996;0.989746;-1.82;2.03;-0.07;525.0;-0.293693;-0.046518;3.5;5.5;4.75;5.0;3.5;1.75;0.0;0.0;0.0;0.25;0.25;0.0;0.0;0.75;0.25;0.25;-0.211426;0.029785;0.982422;-1.61;-1.26;1.19;320.0;-0.253638;-0.05444
1.81;11.25;8.25;6.5;6.75;3.75;4.0;0.0;0.5;0.0;0.0;0.0;0.0;0.0;0.5;0.0;0.0;-0.190918;0.016602;0.987305;-1.75;1.89;-0.07;521.0;-0.29694;-0.049888;3.75;5.75;5.5;5.0;4.25;1.75;0.0;0.0;0.25;0.25;0.25;0.0;0.0;0.5;0.5;0.25;-0.212402;0.03418;0.980469;-1.61;-1.33;1.26;351.0;-0.246203;-0.044778
1.82;10.5;8.0;6.5;6.75;3.5;3.75;0.25;0.5;0.0;0.0;0.0;0.0;0.0;0.5;0.0;0.0;-0.183594;0.018066;0.992188;-1.89;1.96;-0.14;507.0;-0.293045;-0.048868;3.75;5.75;4.75;5.0;3.75;1.75;0.0;0.0;0.5;0.25;0.25;0.0;0.0;0.75;1.0;0.25;-0.216309;0.030273;0.981934;-1.61;-1.33;1.26;347.0;-0.225655;-0.046105
1.83;10.5;8.0;7.0;7.25;3.75;3.75;0.0;0.25;0.0;0.0;0.0;0.25;0.0;0.75;0.0;0.0;-0.193359;0.020996;0.981445;-1.75;1.89;-0.07;520.0;-0.290759;-0.048518;3.75;5.75;4.5;4.75;3.75;2.0;0.0;0.0;0.25;0.0;0.0;0.0;0.0;0.5;0.5;0.25;-0.212891;0.034668;0.981445;-1.54;-1.26;1.26;324.0;-0.255706;-0.053264
1.84;10.5;8.0;7.0;7.25;3.75;3.75;0.0;0.25;0.0;0.0;0.0;0.0;0.0;0.5;0.0;0.0;-0.183594;0.017578;0.985352;-1.75;1.96;-0.07;515.0;-0.297283;-0.048119;3.25;5.5;4.5;5.0;3.75;1.75;0.0;0.0;0.0;0.0;0.0;0.0;0.0;0.25;0.0;0.0;-0.210449;0.030273;0.978516;-1.47;-1.33;1.19;301.0;-0.282014;-0.059262
1.85;10.5;7.5;5.5;7.25;3.75;3.5;0.0;0.5;0.0;0.0;0.0;0.0;0.0;0.5;0.0;0.0;-0.189453;0.019531;0.990723;-1.75;1.96;-0.07;490.0;-0.295554;-0.054102;3.5;5.5;4.5;5.0;3.75;2.0;0.0;0.25;0.25;0.0;0.25;0.0;0.0;0.75;0.25;0.0;-0.214355;0.031738;0.97998;-1.47;-1.26;1.33;327.0;-0.249487;-0.057528
1.86;10.25;7.75;6.25;6.75;3.75;3.75;0.0;0.25;0.0;0.0;0.0;0.0;0.0;0.5;0.0;0.0;-0.183594;0.020996;0.984863;-1.75;2.03;-0.07;492.0;-0.296723;-0.048882;3.75;5.5;4.5;5.0;3.5;2.0;0.0;0.0;0.25;0.25;0.25;0.0;0.0;0.5;0.5;0.0;-0.209961;0.032715;0.980957;-1.47;-1.33;1.19;326.0;-0.249687;-0.053384
1.87;11.25;8.25;6.75;7.0;3.75;3.75;0.0;0.25;0.0;0.0;0.0;0.0;0.0;0.5;0.0;0.0;-0.188965;0.01709;0.980957;-1.82;2.1;-0.14;520.0;-0.300078;-0.045707;3.25;5.5;5.0;5.0;3.75;1.75;0.0;0.0;0.25;0.0;0.0;0.0;0.0;0.25;0.25;0.25;-0.212402;0.032227;0.988281;-1.54;-1.4;1.26;317.0;-0.264918;-0.053529
1.88;11.5;8.0;6.75;7.0;3.75;3.75;0.0;0.5;0.0;0.0;0.0;0.0;0.0;0.5;0.0;0.0;-0.187012;0.022461;0.983887;-1.82;1.75;0.07;525.0;-0.297576;-0.047166;3.25;5.75;5.0;5.0;3.5;1.75;0.0;0.0;0.25;0.0;0.0;0.0;0.0;0.25;0.0;0.0;-0.208496;0.03418;0.979492;-1.54;-1.26;1.26;311.0;-0.277738;-0.054103
1.89;11.5;7.75;6.5;7.0;3.75;3.75;0.0;0.25;0.0;0.0;0.0;0.0;0.0;0.75;0.0;0.0;-0.189453;0.018555;0.984375;-1.82;1.96;0.0;517.0;-0.29618;-0.04327;3.5;5.75;5.0;5.0;3.5;1.5;0.0;0.0;0.25;0.25;0.0;0.0;0.0;0.25;0.25;0.0;-0.210449;0.036133;0.986816;-1.54;-1.26;1.26;317.0;-0.268424;-0.04939
1.9;9.5;7.5;6.75;6.75;3.75;3.75;0.0;0.25;0.0;0.0;0.0;0.0;0.0;0.75;0.0;0.0;-0.191406;0.018555;0.98291;-1.61;1.89;-0.14;489.0;-0.289922;-0.048157;3.5;5.75;4.75;5.0;3.75;1.75;0.0;0.0;0.25;0.0;0.0;0.0;0.0;0.25;0.25;0.25;-0.208008;0.033203;0.97998;-1.47;-1.33;1.26;319.0;-0.267569;-0.054422
1.91;10.25;7.75;7.0;6.75;3.75;3.75;0.0;0.25;0.0;0.0;0.0;0.0;0.0;0.75;0.0;0.0;-0.177734;0.021484;0.983887;-1.75;1.96;-0.07;505.0;-0.292541;-0.045004;3.5;5.75;4.75;5.0;3.75;1.5;0.0;0.0;0.0;0.0;0.25;0.0;0.0;0.25;0.25;0.5;-0.212891;0.03418;0.988281;-1.54;-1.33;1.33;317.0;-0.267152;-0.058167
1.92;10.5;8.25;6.75;7.0;3.75;3.75;0.0;0.5;0.0;0.0;0.0;0.25;0.0;0.75;0.0;0.0;-0.185059;0.020996;0.985352;-1.82;2.03;-0.07;521.0;-0.289173;-0.051915;3.25;5.75;5.0;5.0;3.75;1.75;0.0;0.0;0.25;0.25;0.25;0.0;0.0;0.25;0.25;0.0;-0.212891;0.036621;0.980469;-1.68;-1.26;1.26;324.0;-0.259744;-0.052668
1.93;11.5;8.25;7.0;7.0;3.75;3.75;0.0;0.25;0.0;0.0;0.0;0.0;0.0;0.5;0.0;0.0;-0.18457;0.021484;0.987305;-1.75;1.89;-0.07;526.0;-0.300466;-0.043942;3.5;5.5;4.75;5.0;3.75;1.5;0.0;0.0;0.25;0.25;0.0;0.0;0.0;0.75;0.75;0.0;-0.206543;0.032227;0.982422;-1.54;-1.47;1.26;326.0;-0.242186;-0.045802
1.94;11.5;8.25;6.75;7.0;3.75;4.0;0.0;0.25;0.0;0.0;0.0;0.0;0.0;0.5;0.0;0.0;-0.18457;0.019531;0.985352;-1.68;1.96;-0.07;526.0;-0.299771;-0.046203;3.25;5.5;4.75;5.0;3.5;1.25;0.0;0.0;0.25;0.25;0.0;0.0;0.0;0.75;0.75;0.25;-0.210938;0.029297;0.982422;-1.61;-1.19;1.26;318.0;-0.239682;-0.04745
1.95;11.25;8.5;6.75;7.0;3.75;4.0;0.0;0.5;0.0;0.0;0.0;0.0;0.0;0.25;0.0;0.0;-0.186523;0.019043;0.982422;-1.75;2.17;-0.14;528.0;-0.300714;-0.051796;3.5;6.0;4.75;5.0;3.5;1.5;0.0;0.0;0.0;0.0;0.0;0.0;0.0;0.5;0.75;0.0;-0.213867;0.037598;0.986816;-1.54;-1.4;1.33;319.0;-0.262458;-0.055773
1.96;10.5;9.0;6.75;7.5;3.75;4.0;0.0;0.5;0.0;0.0;0.0;0.0;0.0;0.25;0.0;0.0;-0.191406;0.024902;0.989746;-1.75;2.03;-0.07;531.0;-0.299961;-0.057937;3.5;6.0;4.25;5.0;3.5;1.75;0.0;0.0;0.0;0.0;0.0;0.0;0.0;0.0;0.25;0.0;-0.214355;0.030762;0.986328;-1.54;-1.33;1.26;304.0;-0.286269;-0.064638
1.97;11.5;8.5;7.0;7.75;3.75;3.75;0.0;0.5;0.0;0.0;0.0;0.0;0.0;0.5;0.0;0.0;-0.194336;0.025879;0.983398;-1.75;1.96;-0.07;544.0;-0.298408;-0.050756;3.5;5.5;4.5;5.0;3.5;1.75;0.0;0.0;0.0;0.0;0.0;0.0;0.0;0.25;0.25;0.25;-0.20752;0.032227;0.98291;-1.61;-1.26;1.19;306.0;-0.274478;-0.060431
1.98;11.5;8.25;7.0;7.25;3.75;3.5;0.0;0.0;0.0;0.0;0.25;0.0;0.0;0.5;0.0;0.0;-0.193359;0.02002;0.989258;-1.54;1.82;-0.07;525.0;-0.300671;-0.041063;3.5;5.0;5.0;5.0;3.5;1.5;0.0;0.0;0.0;0.0;0.25;0.0;0.0;0.5;0.5;0.0;-0.213379;0.033691;0.975098;-1.54;-1.26;1.33;311.0;-0.258841;-0.050633
1.99;11.25;8.25;6.75;7.25;3.75;3.75;0.0;0.0;0.0;0.0;0.25;0.0;0.0;0.5;0.0;0.0;-0.185059;0.026855;0.987305;-1.68;2.03;0.0;522.0;-0.299361;-0.044233;3.5;5.5;4.5;4.75;3.75;2.0;0.0;0.0;0.0;0.25;0.5;0.0;0.0;0.75;0.25;0.0;-0.214355;0.032227;0.98291;-1.47;-1.26;1.26;322.0;-0.249258;-0.054518
2.0;11.5;8.25;6.75;7.25;3.75;3.75;0.0;0.0;0.0;0.0;0.25;0.0;0.0;0.5;0.0;0.0;-0.191406;0.018066;0.985352;-1.68;1.89;-0.14;525.0;-0.299974;-0.04333;3.0;5.5;4.75;5.0;3.75;1.5;0.0;0.0;0.0;0.25;0.0;0.0;0.0;0.75;0.25;0.25;-0.216309;0.030273;0.984375;-1.54;-1.33;1.26;311.0;-0.255184;-0.053566
2.01;11.5;8.25;6.75;7.25;3.75;4.0;0.0;0.25;0.0;0.0;0.0;0.0;0.0;0.5;0.0;0.0;-0.186523;0.018066;0.983398;-1.75;1.82;-0.07;530.0;-0.299696;-0.04731;3.25;5.5;4.75;4.75;3.5;1.5;0.0;0.0;0.0;0.0;0.0;0.0;0.0;0.75;0.25;0.25;-0.216309;0.028809;0.981445;-1.54;-1.4;1.26;305.0;-0.262799;-0.052506
2.02;11.5;8.25;6.75;7.5;3.75;4.0;0.0;0.0;0.0;0.0;0.0;0.0;0.0;0.75;0.0;0.0;-0.187012;0.024414;0.989258;-1.75;1.96;-0.07;531.0;-0.298687;-0.044377;3.25;5.25;4.75;4.75;3.75;1.5;0.0;0.0;0.0;0.0;0.0;0.0;0.0;0.75;0.25;0.25;-0.212891;0.030273;0.984863;-1.54;-1.33;1.26;305.0;-0.259927;-0.050252
2.03;11.5;8.25;6.75;7.75;3.75;4.0;0.0;0.0;0.0;0.0;0.0;0.0;0.0;0.25;0.0;0.0;-0.186523;0.026367;0.984863;-1.82;2.03;-0.14;529.0;-0.305432;-0.047624;3.5;5.5;4.75;5.0;3.75;1.5;0.0;0.0;0.0;0.25;0.0;0.0;0.0;0.75;0.0;0.25;-0.205566;0.027832;0.974609;-1.54;-1.33;1.19;314.0;-0.264702;-0.050079
2.04;11.5;8.25;6.75;6.75;3.75;4.0;0.25;0.25;0.0;0.0;0.0;0.0;0.0;0.25;0.0;0.0;-0.19043;0.020996;0.984863;-1.75;1.75;-0.14;525.0;-0.300043;-0.043702;3.25;5.5;4.25;4.5;3.5;1.5;0.0;0.0;0.0;0.25;0.25;0.0;0.0;0.75;0.25;0.5;-0.209961;0.030762;0.98291;-1.47;-1.33;1.26;302.0;-0.248919;-0.054618
2.05;11.25;8.25;7.0;7.0;3.75;3.75;0.0;0.25;0.0;0.0;0.0;0.0;0.0;0.5;0.0;0.0;-0.188477;0.019043;0.983887;-1.75;2.03;-0.14;523.0;-0.299857;-0.044847;3.25;5.0;4.25;5.0;3.75;1.5;0.0;0.0;0.0;0.0;0.25;0.0;0.0;0.75;0.75;0.5;-0.20752;0.031738;0.977539;-1.54;-1.26;1.26;310.0;-0.237095;-0.056753
2.06;11.5;8.25;7.0;7.75;3.75;3.5;0.0;0.25;0.0;0.0;0.0;0.0;0.0;0.5;0.0;0.0;-0.189453;0.019043;0.984863;-1.68;1.96;-0.07;533.0;-0.301133;-0.045886;3.5;5.5;4.5;5.0;4.0;1.75;0.0;0.0;0.0;0.0;0.25;0.0;0.0;0.75;0.25;0.25;-0.215332;0.026367;0.986328;-1.47;-1.33;1.19;321.0;-0.255676;-0.054712
2.07;11.5;9.5;7.0;7.0;3.75;3.5;0.0;0.25;0.0;0.0;0.0;0.0;0.0;0.5;0.0;0.0;-0.186035;0.019531;0.984863;-1.68;2.03;-0.07;537.0;-0.304352;-0.045696;3.25;5.75;4.75;5.0;3.75;1.5;0.0;0.0;0.0;0.0;0.0;0.0;0.0;0.25;0.25;0.25;-0.209473;0.027344;0.98291;-1.54;-1.47;1.19;309.0;-0.274062;-0.057922
2.08;11.25;9.5;6.5;7.0;3.75;3.75;0.0;0.25;0.0;0.0;0.0;0.0;0.0;0.0;0.0;0.0;-0.18457;0.020508;0.983887;-1.68;1.96;0.0;525.0;-0.310236;-0.051884;3.25;5.25;4.75;4.75;3.5;1.5;0.0;0.0;0.0;0.0;0.0;0.0;0.0;0.5;0.5;0.0;-0.211914;0.029785;0.979492;-1.47;-1.47;1.19;301.0;-0.263454;-0.052309
2.09;11.5;8.25;7.0;7.25;3.75;3.75;0.0;0.25;0.0;0.0;0.0;0.0;0.0;0.25;0.0;0.0;-0.1875;0.021973;0.986328;-1.61;1.96;0.0;527.0;-0.303814;-0.046134;3.25;5.5;4.75;5.0;3.5;1.75;0.0;0.25;0.0;0.0;0.0;0.0;0.0;0.75;0.5;0.0;-0.213379;0.029785;0.98584;-1.47;-1.4;1.26;317.0;-0.254885;-0.06039
2.1;11.5;8.25;7.0;7.25;3.75;3.75;0.0;0.25;0.0;0.0;0.0;0.0;0.0;0.5;0.0;0.0;-0.187988;0.019043;0.981934;-1.75;2.17;-0.07;530.0;-0.300386;-0.045063;3.5;5.0;4.75;5.0;3.25;2.0;0.0;0.0;0.0;0.0;0.0;0.0;0.0;0.75;0.5;0.0;-0.21582;0.035645;0.980957;-1.4;-1.54;1.33;310.0;-0.257345;-0.055466
2.11;11.5;8.25;7.0;7.5;3.75;3.75;0.0;0.5;0.0;0.0;0.0;0.0;0.0;0.5;0.0;0.0;-0.191406;0.022461;0.981445;-1.75;2.17;-0.07;538.0;-0.297867;-0.0491;3.75;5.5;5.0;5.0;3.25;1.75;0.0;0.0;0.0;0.0;0.25;0.0;0.0;0.75;0.25;0.0;-0.21582;0.030762;0.981934;-1.47;-1.47;1.33;319.0;-0.264464;-0.052383
2.12;11.5;8.25;6.75;7.5;3.75;3.75;0.0;0.25;0.0;0.0;0.0;0.0;0.0;0.5;0.0;0.0;-0.187012;0.020508;0.983887;-1.75;1.96;-0.14;530.0;-0.300527;-0.047024;3.75;6.0;5.0;5.0;3.5;1.75;0.0;0.0;0.25;0.0;0.0;0.0;0.0;0.25;0.0;0.5;-0.207031;0.030762;0.98584;-1.47;-1.47;1.26;323.0;-0.274954;-0.05453
2.13;10.25;8.5;6.75;7.25;3.75;3.75;0.0;0.25;0.0;0.0;0.0;0.0;0.0;0.0;0.0;0.0;-0.184082;0.023438;0.987793;-1.75;2.03;-0.14;509.0;-0.305217;-0.053508;3.75;5.75;5.0;5.0;3.5;1.75;0.0;0.0;0.0;0.0;0.0;0.0;0.0;0.25;0.0;0.25;-0.213379;0.03125;0.98291;-1.4;-1.47;1.19;315.0;-0.283567;-0.056308
2.14;10.25;8.5;6.75;7.0;3.75;3.75;0.0;0.25;0.0;0.0;0.0;0.0;0.0;0.25;0.0;0.0;-0.183105;0.021973;0.986328;-1.68;2.1;-0.07;508.0;-0.301749;-0.051247;3.75;5.25;4.75;5.0;3.75;2.0;0.0;0.0;0.0;0.25;0.0;0.0;0.0;0.75;0.0;0.5;-0.207031;0.035645;0.978516;-1.4;-1.54;1.26;323.0;-0.259333;-0.053376
2.15;11.5;8.25;6.5;7.25;3.75;3.75;0.0;0.25;0.0;0.0;0.0;0.0;0.0;0.25;0.0;0.0;-0.185547;0.022949;0.984375;-1.68;2.03;0.0;521.0;-0.304306;-0.047871;3.75;5.5;4.75;5.25;3.75;2.0;0.0;0.0;0.0;0.25;0.25;0.0;0.0;0.75;0.25;0.25;-0.209473;0.03418;0.980469;-1.4;-1.54;1.26;333.0;-0.253108;-0.055594
2.16;11.5;9.0;6.75;7.25;3.75;3.75;0.0;0.25;0.0;0.0;0.0;0.0;0.0;0.25;0.0;0.0;-0.189453;0.022461;0.980957;-1.75;1.96;0.0;532.0;-0.305811;-0.048851;3.5;6.0;4.5;5.0;3.75;1.75;0.0;0.0;0.0;0.0;0.5;0.0;0.0;1.0;0.5;0.25;-0.212402;0.032715;0.983398;-1.47;-1.54;1.26;332.0;-0.243741;-0.056777
2.17;11.5;8.25;6.75;7.0;3.75;3.75;0.0;0.5;0.0;0.0;0.0;0.0;0.0;0.0;0.0;0.0;-0.1875;0.022461;0.983887;-1.68;1.82;-0.14;523.0;-0.305093;-0.049976;3.5;6.0;4.5;5.25;3.5;1.75;0.0;0.0;0.0;0.0;0.25;0.0;0.0;1.0;0.25;0.25;-0.212402;0.030762;0.981934;-1.4;-1.54;1.33;325.0;-0.256155;-0.058852
2.18;10.25;8.25;6.75;7.25;3.75;3.75;0.0;0.5;0.0;0.0;0.0;0.0;0.0;0.25;0.0;0.0;-0.186035;0.020996;0.978516;-1.75;2.03;-0.07;513.0;-0.298469;-0.054765;3.75;5.75;4.75;5.0;3.5;2.0;0.0;0.0;0.0;0.0;0.25;0.0;0.0;0.75;0.25;0.5;-0.213867;0.03418;0.980957;-1.47;-1.47;1.33;328.0;-0.257073;-0.058403
2.19;11.5;8.25;6.75;7.25;3.75;3.5;0.0;0.5;0.0;0.0;0.0;0.0;0.0;0.5;0.0;0.0;-0.180176;0.026367;0.987305;-1.75;1.75;-0.21;528.0;-0.299034;-0.047502;3.5;6.25;5.0;5.0;3.75;2.25;0.0;0.0;0.0;0.0;0.25;0.0;0.0;0.5;0.25;0.5;-0.213379;0.03418;0.98584;-1.4;-1.47;1.33;338.0;-0.261157;-0.062913
2.2;11.5;8.25;7.0;7.25;3.75;3.5;0.0;0.5;0.0;0.0;0.0;0.0;0.0;0.5;0.0;0.0;-0.183594;0.018555;0.980469;-1.82;1.96;0.0;531.0;-0.298823;-0.046642;3.75;6.25;5.0;5.0;3.75;1.75;0.0;0.0;0.0;0.0;0.25;0.0;0.0;0.5;0.0;0.25;-0.210938;0.035156;0.980957;-1.33;-1.4;1.19;330.0;-0.274036;-0.055742
2.21;11.5;8.0;7.0;7.0;3.75;3.75;0.0;0.5;0.0;0.0;0.0;0.0;0.0;0.5;0.0;0.0;-0.185059;0.025391;0.987793;-1.75;1.96;-0.07;528.0;-0.297373;-0.046304;4.0;6.5;4.75;5.5;3.5;2.25;0.0;0.0;0.0;0.0;0.25;0.0;0.0;0.25;0.25;0.5;-0.214355;0.031738;0.984375;-1.33;-1.4;1.4;344.0;-0.271683;-0.068172
2.22;11.5;8.25;7.0;7.0;3.75;3.75;0.25;0.25;0.0;0.0;0.0;0.0;0.0;0.25;0.0;0.0;-0.189941;0.018555;0.985352;-1.82;1.82;0.0;528.0;-0.300658;-0.042576;4.0;6.5;5.0;5.5;3.5;2.0;0.0;0.0;0.0;0.0;0.25;0.0;0.0;0.5;0.5;0.5;-0.210938;0.028809;0.986328;-1.4;-1.33;1.26;350.0;-0.261707;-0.06311
2.23;11.5;8.25;7.0;7.75;3.75;3.75;0.25;0.25;0.0;0.0;0.0;0.0;0.0;0.25;0.0;0.0;-0.19043;0.022461;0.987305;-1.82;1.89;-0.07;538.0;-0.300418;-0.04591;3.75;6.25;5.0;5.0;3.5;2.25;0.0;0.0;0.0;0.0;0.0;0.0;0.0;0.75;0.25;0.25;-0.208984;0.032227;0.981445;-1.4;-1.4;1.26;335.0;-0.266243;-0.059025
2.24;11.5;8.25;7.0;8.0;3.75;3.75;0.0;0.25;0.0;0.0;0.0;0.0;0.0;0.0;0.0;0.0;-0.183105;0.019531;0.98877;-1.82;1.89;-0.07;535.0;-0.306911;-0.050488;3.75;6.25;4.75;5.25;3.5;2.0;0.0;0.0;0.0;0.25;0.0;0.0;0.0;0.75;0.25;0.25;-0.212402;0.035156;0.98291;-1.4;-1.26;1.19;335.0;-0.26287;-0.058909
2.25;11.5;8.25;6.75;7.75;3.5;3.75;0.0;0.25;0.0;0.0;0.0;0.0;0.0;0.25;0.0;0.0;-0.188477;0.015625;0.984375;-1.96;2.24;-0.07;527.0;-0.304966;-0.049886;3.75;6.0;5.0;5.75;3.75;1.5;0.0;0.0;0.0;0.0;0.0;0.0;0.0;0.75;0.25;0.25;-0.213867;0.029297;0.979492;-1.4;-1.33;1.33;336.0;-0.267569;-0.055613
2.26;11.5;8.5;6.75;7.25;3.75;3.75;0.0;0.25;0.0;0.0;0.0;0.0;0.0;0.5;0.0;0.0;-0.188477;0.022949;0.986328;-1.89;2.03;-0.07;529.0;-0.301214;-0.046542;3.5;5.5;5.25;5.75;3.75;2.0;0.0;0.0;0.0;0.0;0.25;0.0;0.0;0.75;0.0;0.5;-0.206055;0.03125;0.985352;-1.54;-1.4;1.33;339.0;-0.260345;-0.059602
2.27;11.5;9.5;7.25;7.25;4.0;3.75;0.0;0.25;0.0;0.0;0.0;0.0;0.0;0.5;0.0;0.0;-0.193359;0.021484;0.983887;-1.89;1.89;0.07;550.0;-0.302048;-0.046652;4.0;6.0;5.0;5.75;3.75;2.25;0.0;0.0;0.25;0.0;0.25;0.0;0.0;0.75;0.0;0.25;-0.214844;0.030273;0.989258;-1.47;-1.61;1.33;353.0;-0.261368;-0.056823
2.28;11.25;8.25;7.0;7.0;3.75;3.0;0.0;0.25;0.0;0.0;0.0;0.0;0.0;0.5;0.0;0.0;-0.185547;0.020508;0.989746;-1.89;1.89;-0.07;514.0;-0.302664;-0.04051;3.75;6.5;5.0;5.25;3.75;1.75;0.0;0.0;0.0;0.0;0.0;0.0;0.0;0.5;0.25;0.0;-0.211914;0.032715;0.984863;-1.47;-1.54;1.33;334.0;-0.276714;-0.056754
2.29;11.5;8.25;7.25;7.25;3.75;3.0;0.0;0.25;0.0;0.0;0.0;0.0;0.0;0.5;0.0;0.0;-0.18457;0.020508;0.988281;-1.89;1.89;-0.07;523.0;-0.302929;-0.039955;3.875;6.125;4.875;5.125;3.625;2.0;0.0;0.125;0.0;0.0;0.0;0.0;0.0;0.5;0.375;0.125;-0.2111815;0.031494;0.982666;-1.47;-1.505;1.33;334.5;-0.26857;-0.0602375
2.3;11.25;8.25;7.0;7.5;3.75;3.25;0.0;0.25;0.0;0.0;0.0;0.0;0.0;0.25;0.0;0.0;-0.189941;0.021973;0.983887;-1.89;1.75;0.0;521.0;-0.305014;-0.045348;4.0;5.75;4.75;5.0;3.5;2.25;0.0;0.25;0.0;0.0;0.0;0.0;0.0;0.5;0.5;0.25;-0.210449;0.030273;0.980469;-1.47;-1.47;1.33;335.0;-0.260426;-0.063721
2.31;11.5;8.25;7.5;7.0;4.0;3.75;0.0;0.25;0.0;0.0;0.0;0.0;0.0;0.25;0.0;0.0;-0.187988;0.027344;0.981934;-1.89;2.03;-0.07;534.0;-0.302336;-0.042682;3.5;6.5;5.0;5.5;3.75;1.75;0.0;0.0;0.0;0.0;0.0;0.0;0.0;0.5;0.5;0.25;-0.208496;0.03125;0.986328;-1.47;-1.33;1.26;339.0;-0.266312;-0.061353
2.32;11.5;8.25;7.0;7.75;3.75;3.75;0.0;0.25;0.0;0.0;0.0;0.0;0.0;0.5;0.0;0.0;-0.187988;0.023926;0.986816;-1.75;1.89;-0.07;536.0;-0.30023;-0.047264;4.0;5.5;5.0;5.5;3.75;2.25;0.0;0.0;0.25;0.0;0.0;0.0;0.0;0.5;0.0;0.25;-0.213379;0.032227;0.983887;-1.47;-1.33;1.26;338.0;-0.268131;-0.054619
2.33;10.25;8.25;6.75;7.75;3.75;3.75;0.0;0.5;0.0;0.0;0.0;0.0;0.0;0.5;0.0;0.0;-0.19043;0.017578;0.989258;-1.96;2.17;0.0;522.0;-0.29488;-0.055775;4.0;6.0;5.0;5.25;3.75;2.5;0.0;0.0;0.25;0.25;0.0;0.0;0.0;0.75;0.0;0.0;-0.208496;0.032227;0.979492;-1.47;-1.33;1.33;348.0;-0.262637;-0.052872
2.34;11.5;8.25;6.5;7.25;3.5;3.75;0.0;0.25;0.0;0.0;0.0;0.0;0.0;0.5;0.0;0.0;-0.185059;0.023438;0.984863;-1.75;1.96;-0.07;520.0;-0.301941;-0.047461;4.0;6.5;5.0;5.25;3.75;2.25;0.0;0.0;0.0;0.0;0.0;0.0;0.0;0.25;0.0;0.0;-0.207031;0.032227;0.987305;-1.54;-1.26;1.33;338.0;-0.286976;-0.060923
2.35;11.5;8.5;7.25;7.0;3.5;3.75;0.0;0.25;0.0;0.0;0.0;0.0;0.0;0.5;0.0;0.0;-0.187012;0.021484;0.988281;-1.82;1.89;-0.07;529.0;-0.301938;-0.044393;4.0;6.0;5.0;5.5;3.75;2.5;0.0;0.0;0.0;0.0;0.0;0.0;0.0;0.5;0.0;0.0;-0.210938;0.030762;0.97998;-1.4;-1.33;1.33;342.0;-0.27841;-0.061047
2.36;11.25;8.25;7.25;7.0;3.75;3.75;0.25;0.25;0.0;0.0;0.0;0.0;0.0;0.25;0.0;0.0;-0.185059;0.020996;0.98291;-1.89;1.96;0.0;529.0;-0.299834;-0.042631;3.75;6.5;5.0;5.5;3.5;2.25;0.0;0.25;0.0;0.0;0.0;0.0;0.0;0.75;0.25;0.0;-0.213867;0.033203;0.986328;-1.54;-1.47;1.19;348.0;-0.267425;-0.066186
2.37;11.5;8.25;7.0;7.0;4.25;3.75;0.25;0.25;0.0;0.0;0.0;0.0;0.0;0.5;0.0;0.0;-0.188477;0.02002;0.984863;-1.96;1.82;-0.07;538.0;-0.295153;-0.040268;4.0;6.5;5.0;5.25;3.5;1.5;0.0;0.0;0.0;0.25;0.0;0.0;0.0;0.75;0.0;0.25;-0.206543;0.029785;0.980469;-1.61;-1.4;1.19;335.0;-0.27388;-0.052385
2.38;11.25;8.0;7.0;6.75;3.75;3.75;0.0;0.5;0.0;0.0;0.0;0.0;0.0;0.5;0.0;0.0;-0.189453;0.022949;0.98584;-1.89;1.89;-0.07;522.0;-0.296806;-0.046102;4.0;6.75;5.0;5.25;3.75;1.5;0.0;0.0;0.25;0.0;0.25;0.0;0.0;0.75;0.0;0.25;-0.211426;0.029785;0.980469;-1.61;-1.33;1.33;345.0;-0.267693;-0.050129
2.39;11.5;8.25;7.0;7.25;3.75;3.25;0.0;0.5;0.0;0.0;0.0;0.0;0.0;0.0;0.0;0.0;-0.183594;0.01709;0.985352;-1.89;1.89;-0.07;523.0;-0.306634;-0.047408;3.75;6.5;5.0;5.25;3.75;1.75;0.0;0.0;0.25;0.0;0.0;0.0;0.0;0.5;0.25;0.25;-0.205566;0.038086;0.980469;-1.68;-1.33;1.26;340.0;-0.26754;-0.05416
2.4;11.5;8.0;7.0;7.0;3.75;3.75;0.0;0.5;0.0;0.0;0.0;0.0;0.0;0.25;0.0;0.0;-0.187012;0.019531;0.982422;-1.82;1.82;0.0;526.0;-0.300796;-0.047384;3.75;6.5;5.0;5.0;3.75;1.75;0.0;0.0;0.0;0.25;0.0;0.0;0.0;0.25;0.25;0.25;-0.213379;0.030762;0.980469;-1.61;-1.26;1.19;333.0;-0.273935;-0.057001
2.41;11.5;8.25;6.75;7.5;3.75;3.75;0.25;0.5;0.0;0.0;0.0;0.0;0.0;0.5;0.0;0.0;-0.184082;0.025879;0.98584;-1.89;1.96;-0.21;539.0;-0.294922;-0.047531;4.0;6.0;5.0;5.25;3.5;1.75;0.0;0.0;0.0;0.0;0.0;0.0;0.0;0.25;0.5;0.25;-0.211426;0.031738;0.981934;-1.61;-1.26;1.19;331.0;-0.272762;-0.057841
2.42;10.25;8.25;7.0;7.25;3.75;3.75;0.0;0.5;0.0;0.0;0.0;0.0;0.0;0.5;0.0;0.0;-0.185547;0.020996;0.985352;-1.82;1.82;-0.14;519.0;-0.294783;-0.052702;4.0;5.75;5.0;5.25;3.5;2.0;0.0;0.0;0.0;0.0;0.0;0.0;0.0;0.5;0.25;0.0;-0.211426;0.035645;0.984863;-1.61;-1.4;1.19;329.0;-0.27466;-0.055758
2.43;11.5;8.25;7.25;7.0;3.75;3.5;0.0;0.5;0.0;0.0;0.0;0.0;0.0;0.0;0.0;0.0;-0.185059;0.01709;0.987793;-1.89;1.82;0.14;526.0;-0.305536;-0.046829;4.0;6.5;5.0;5.25;3.75;2.25;0.0;0.0;0.25;0.25;0.0;0.0;0.0;0.5;0.5;0.0;-0.208008;0.033691;0.980469;-1.54;-1.47;1.26;354.0;-0.259045;-0.054785
2.44;11.25;8.25;7.0;7.25;3.75;3.5;0.0;0.5;0.0;0.0;0.0;0.0;0.0;0.25;0.0;0.0;-0.185547;0.023438;0.980469;-1.96;1.89;-0.07;525.0;-0.301638;-0.048641;3.75;6.5;5.0;5.5;3.75;1.75;0.0;0.0;0.0;0.0;0.0;0.0;0.0;0.5;0.75;0.0;-0.208008;0.03125;0.983398;-1.68;-1.54;1.26;344.0;-0.26436;-0.058823
2.45;11.5;8.25;6.75;7.5;3.75;3.5;0.0;0.5;0.0;0.0;0.0;0.0;0.0;0.25;0.0;0.0;-0.188965;0.027344;0.980469;-1.75;1.82;0.07;528.0;-0.302376;-0.049683;3.75;6.25;5.0;5.25;3.5;1.75;0.0;0.0;0.0;0.0;0.25;0.0;0.0;0.5;0.5;0.25;-0.205566;0.033691;0.981934;-1.47;-1.4;1.26;336.0;-0.262928;-0.059031
2.46;10.25;8.25;7.0;7.5;4.0;4.0;0.25;0.5;0.0;0.0;0.0;0.25;0.0;0.5;0.0;0.0;-0.185059;0.019043;0.984375;-1.82;1.89;0.0;536.0;-0.286742;-0.053354;4.0;7.0;5.0;5.25;3.25;2.0;0.0;0.0;0.0;0.0;0.25;0.0;0.0;0.75;0.25;0.25;-0.210449;0.02832;0.986328;-1.47;-1.33;1.26;347.0;-0.269231;-0.0613
2.47;10.25;9.0;7.0;7.5;3.75;4.0;0.0;0.25;0.0;0.0;0.0;0.0;0.0;0.5;0.0;0.0;-0.187012;0.019531;0.984375;-1.82;1.82;0.07;529.0;-0.298202;-0.053981;4.0;6.5;5.0;5.75;3.5;1.75;0.0;0.0;0.0;0.0;0.0;0.0;0.0;0.5;0.5;0.25;-0.203613;0.03125;0.97998;-1.54;-1.26;1.19;345.0;-0.270314;-0.06102
2.48;10.5;8.25;6.75;7.5;3.75;3.75;0.0;0.25;0.25;0.0;0.0;0.0;0.0;0.5;0.0;0.0;-0.187988;0.023926;0.987793;-1.68;2.03;0.0;521.0;-0.293902;-0.048316;3.5;6.5;4.75;5.25;3.5;1.75;0.0;0.0;0.0;0.25;0.0;0.0;0.0;0.5;0.75;0.5;-0.20752;0.028809;0.983398;-1.61;-1.19;1.26;337.0;-0.253554;-0.062694
2.49;11.5;8.25;7.25;7.5;3.75;3.75;0.0;0.5;0.0;0.0;0.0;0.0;0.0;0.5;0.0;0.0;-0.185547;0.023438;0.987305;-1.68;1.89;0.07;541.0;-0.297667;-0.048246;4.0;6.5;4.75;5.0;3.25;1.75;0.0;0.0;0.0;0.0;0.0;0.0;0.0;0.5;0.75;0.5;-0.208984;0.02832;0.984863;-1.47;-1.33;1.19;333.0;-0.261867;-0.060313
2.5;11.5;9.0;7.25;7.5;3.75;3.75;0.25;0.5;0.0;0.0;0.0;0.0;0.0;0.5;0.0;0.0;-0.186035;0.020508;0.980469;-1.75;2.17;0.0;554.0;-0.296388;-0.047657;4.0;6.0;5.0;5.25;3.5;1.5;0.0;0.0;0.0;0.0;0.0;0.0;0.0;0.5;0.25;0.25;-0.208984;0.033691;0.980957;-1.68;-1.33;1.33;327.0;-0.27516;-0.053638
2.51;11.5;8.25;6.75;7.5;3.75;4.0;0.25;0.5;0.0;0.0;0.0;0.0;0.0;1.0;0.0;0.0;-0.187012;0.024414;0.984375;-1.82;2.17;-0.07;547.0;-0.287518;-0.046786;4.0;6.25;5.0;5.25;3.5;1.75;0.0;0.0;0.25;0.0;0.0;0.0;0.0;0.5;0.25;0.0;-0.211914;0.027832;0.984375;-1.68;-1.4;1.19;335.0;-0.271988;-0.051612
2.52;11.5;9.0;7.25;7.5;3.5;3.25;0.0;0.5;0.0;0.0;0.0;0.0;0.0;0.5;0.0;0.0;-0.18457;0.027832;0.981445;-1.75;2.1;0.07;539.0;-0.302298;-0.048012;4.0;6.5;4.75;5.5;3.5;2.0;0.0;0.0;0.25;0.0;0.25;0.0;0.0;0.25;0.25;0.0;-0.211426;0.035645;0.981445;-1.68;-1.33;1.19;342.0;-0.272752;-0.059978
2.53;11.5;8.25;7.0;7.25;3.75;3.75;0.0;0.5;0.0;0.0;0.0;0.0;0.0;0.25;0.0;0.0;-0.190918;0.020996;0.987793;-1.82;1.96;0.07;532.0;-0.301316;-0.049096;3.75;6.5;5.0;5.5;3.5;1.75;0.0;0.0;0.0;0.0;0.0;0.0;0.0;0.75;0.5;0.0;-0.212891;0.032715;0.983887;-1.75;-1.47;1.12;340.0;-0.26684;-0.058005
2.54;11.5;8.25;7.0;7.5;3.75;3.75;0.25;0.25;0.0;0.0;0.0;0.0;0.0;0.5;0.0;0.0;-0.189453;0.016602;0.983398;-1.61;1.89;0.0;538.0;-0.297135;-0.043763;3.75;6.0;5.0;5.5;3.75;1.75;0.0;0.0;0.25;0.25;0.0;0.0;0.0;0.75;0.25;0.0;-0.210938;0.035156;0.983887;-1.82;-1.47;1.19;341.0;-0.258619;-0.049967
2.55;11.5;8.5;7.25;7.75;3.75;4.0;0.25;0.25;0.0;0.0;0.0;0.0;0.0;0.5;0.0;0.0;-0.189941;0.018555;0.987305;-1.68;1.75;0.0;550.0;-0.296628;-0.046007;3.75;6.0;5.0;5.5;3.5;1.5;0.0;0.0;0.25;0.0;0.0;0.0;0.0;0.5;0.25;0.25;-0.206543;0.032227;0.975586;-1.75;-1.4;1.12;331.0;-0.267796;-0.052979
2.56;11.5;9.0;6.75;7.5;3.75;3.75;0.25;0.25;0.0;0.0;0.0;0.0;0.0;0.25;0.0;0.0;-0.186035;0.02002;0.98584;-1.68;2.03;0.07;540.0;-0.302496;-0.047503;4.0;6.25;5.0;5.5;3.5;1.625;0.0;0.0;0.125;0.0;0.0;0.0;0.0;0.5;0.25;0.125;-0.2070315;0.032715;0.9782715;-1.75;-1.365;1.155;335.5;-0.2741905;-0.05474
2.57;11.5;8.25;6.75;7.75;3.75;3.75;0.25;0.5;0.0;0.0;0.0;0.0;0.0;0.5;0.0;0.0;-0.187988;0.02002;0.984375;-1.75;2.03;0.0;542.0;-0.294878;-0.048605;4.25;6.5;5.0;5.5;3.5;1.75;0.0;0.0;0.0;0.0;0.0;0.0;0.0;0.5;0.25;0.0;-0.20752;0.033203;0.980957;-1.75;-1.33;1.19;340.0;-0.280585;-0.056501
2.58;11.5;9.0;7.0;8.0;3.75;3.75;0.0;0.5;0.0;0.0;0.0;0.0;0.0;0.25;0.0;0.0;-0.187012;0.023438;0.983398;-1.75;2.1;0.14;550.0;-0.302808;-0.054007;4.0;6.0;4.75;5.0;3.5;1.75;0.0;0.0;0.0;0.25;0.0;0.0;0.0;0.75;0.25;0.25;-0.208008;0.035645;0.981445;-1.75;-1.33;1.19;329.0;-0.26375;-0.052657
2.59;11.5;8.5;7.25;7.5;3.75;4.0;0.0;0.5;0.0;0.0;0.0;0.0;0.0;0.25;0.0;0.0;-0.185547;0.024902;0.984375;-1.82;2.1;0.0;544.0;-0.300707;-0.051239;3.25;6.0;4.75;5.0;3.25;2.0;0.0;0.0;0.25;0.0;0.25;0.0;0.0;0.75;0.5;0.5;-0.211914;0.03125;0.98584;-1.75;-1.19;1.12;328.0;-0.244524;-0.059923
2.6;11.5;9.75;7.25;7.75;3.75;4.0;0.0;0.25;0.0;0.0;0.0;0.0;0.0;0.5;0.0;0.0;-0.186035;0.019531;0.98584;-1.75;2.03;0.07;559.0;-0.302609;-0.051282;3.5;5.75;5.0;5.25;3.25;2.0;0.0;0.0;0.0;0.0;0.0;0.0;0.0;0.75;0.5;0.25;-0.210449;0.032715;0.990723;-1.75;-1.26;1.12;327.0;-0.258716;-0.059772
2.61;10.25;9.5;6.75;7.75;3.75;4.0;0.0;0.25;0.0;0.0;0.0;0.0;0.0;0.5;0.0;0.0;-0.182617;0.017578;0.983398;-1.82;2.17;0.07;535.0;-0.299565;-0.057083;3.625;5.875;5.0;5.125;3.375;2.0;0.0;0.0;0.0;0.0;0.0;0.0;0.0;0.75;0.5;0.25;-0.210205;0.032959;0.9863284999999999;-1.7149999999999999;-1.26;1.12;330.0;-0.2592445;-0.058016
2.62;10.25;9.75;6.5;7.5;3.75;4.0;0.0;0.25;0.0;0.0;0.0;0.0;0.0;0.25;0.0;0.0;-0.189941;0.019043;0.990234;-1.68;1.82;0.0;528.0;-0.303885;-0.058662;3.75;6.0;5.0;5.0;3.5;2.0;0.0;0.0;0.0;0.0;0.0;0.0;0.0;0.75;0.5;0.25;-0.209961;0.033203;0.981934;-1.68;-1.26;1.12;333.0;-0.259773;-0.05626
2.63;10.25;9.0;6.75;7.75;3.75;3.75;0.0;0.25;0.0;0.0;0.0;0.0;0.0;0.25;0.0;0.0;-0.188477;0.018555;0.983887;-1.61;1.82;0.0;523.0;-0.302695;-0.055727;4.0;6.0;5.0;5.25;3.5;1.25;0.0;0.0;0.25;0.0;0.0;0.0;0.0;0.75;0.0;0.5;-0.207031;0.028809;0.989746;-1.82;-1.4;1.19;328.0;-0.268113;-0.046778
2.64;10.25;9.5;6.75;7.75;3.5;3.25;0.0;0.25;0.0;0.0;0.0;0.0;0.0;0.25;0.0;0.0;-0.189941;0.021973;0.986328;-1.61;1.96;0.0;519.0;-0.306918;-0.054918;4.0;5.875;5.0;5.25;3.375;1.625;0.0;0.0;0.25;0.0;0.125;0.0;0.0;0.75;0.0;0.25;-0.2089845;0.03125;0.9851075;-1.7850000000000001;-1.365;1.19;330.0;-0.267229;-0.049169500000000005
2.65;10.5;10.0;7.0;8.5;3.5;3.75;0.0;0.25;0.0;0.0;0.0;0.0;0.0;0.0;0.0;0.0;-0.181152;0.021973;0.993164;-1.54;1.75;0.14;545.0;-0.309473;-0.06099;4.0;5.75;5.0;5.25;3.25;2.0;0.0;0.0;0.25;0.0;0.25;0.0;0.0;0.75;0.0;0.0;-0.210938;0.033691;0.980469;-1.75;-1.33;1.19;332.0;-0.266345;-0.051561
2.66;10.5;10.0;7.0;8.5;3.75;4.0;0.0;0.5;0.0;0.0;0.0;0.0;0.0;0.0;0.0;0.0;-0.183594;0.021484;0.984375;-1.54;1.82;0.14;556.0;-0.305029;-0.06422;4.0;5.5;5.0;5.0;3.5;1.75;0.0;0.0;0.25;0.0;0.0;0.0;0.0;0.75;0.0;0.0;-0.211426;0.027832;0.986328;-1.75;-1.33;1.26;323.0;-0.269328;-0.044817
2.67;10.25;10.0;7.25;8.75;4.0;4.0;0.25;0.25;0.0;0.0;0.0;0.0;0.0;0.25;0.0;0.0;-0.191406;0.018555;0.98291;-1.47;1.68;0.14;565.0;-0.299198;-0.058307;3.5;5.5;4.75;5.0;3.5;1.75;0.0;0.0;0.0;0.0;0.0;0.0;0.0;0.25;0.0;0.25;-0.212402;0.026367;0.980469;-1.68;-1.33;1.19;306.0;-0.281351;-0.058576
2.68;10.5;9.75;7.0;8.0;3.75;4.0;0.0;0.25;0.0;0.0;0.0;0.0;0.0;0.5;0.0;0.0;-0.191406;0.022461;0.984375;-1.47;1.61;0.0;547.0;-0.300464;-0.056808;3.25;5.5;4.75;5.0;3.5;1.5;0.0;0.0;0.0;0.0;0.0;0.0;0.0;0.0;0.0;0.25;-0.212891;0.036133;0.987305;-1.68;-1.4;1.12;297.0;-0.287413;-0.059988
2.69;10.5;9.75;6.75;8.5;3.75;4.0;0.0;0.5;0.0;0.0;0.0;0.0;0.0;0.25;0.0;0.0;-0.188965;0.018066;0.987793;-1.54;1.82;0.07;552.0;-0.301417;-0.063528;3.5;5.5;4.75;5.0;3.5;1.5;0.0;0.0;0.0;0.0;0.25;0.0;0.0;0.25;0.0;0.5;-0.209473;0.032715;0.98877;-1.68;-1.33;1.12;307.0;-0.274187;-0.058229
2.7;10.5;9.75;7.0;8.0;3.5;4.0;0.0;0.25;0.0;0.0;0.0;0.0;0.0;0.0;0.0;0.0;-0.187012;0.023926;0.988281;-1.33;1.68;0.07;539.0;-0.30824;-0.059734;3.5;5.5;4.75;5.0;3.25;1.75;0.0;0.0;0.0;0.0;0.25;0.0;0.0;0.5;0.25;0.25;-0.212402;0.02832;0.980957;-1.68;-1.54;1.12;311.0;-0.26534;-0.05873
2.71;11.5;9.75;7.25;8.25;3.75;4.0;0.0;0.5;0.0;0.0;0.0;0.0;0.0;0.0;0.0;0.0;-0.186523;0.02002;0.987793;-1.47;1.75;0.07;566.0;-0.306506;-0.058093;3.75;5.5;4.75;5.0;3.25;1.75;0.0;0.0;0.0;0.25;0.0;0.0;0.0;0.75;0.75;0.0;-0.20752;0.02832;0.979492;-1.68;-1.33;1.12;322.0;-0.251276;-0.052691
2.72;10.5;9.5;7.25;8.0;3.75;4.0;0.0;0.5;0.0;0.0;0.0;0.0;0.0;0.0;0.0;0.0;-0.189941;0.021484;0.982422;-1.61;1.82;0.0;547.0;-0.30387;-0.060328;3.5;5.75;4.75;4.75;3.75;1.75;0.0;0.0;0.25;0.25;0.0;0.0;0.0;0.25;0.25;0.25;-0.210449;0.026367;0.979492;-1.82;-1.4;1.05;319.0;-0.262412;-0.051514
2.73;11.5;9.75;6.75;8.25;4.0;4.0;0.25;0.25;0.0;0.0;0.0;0.0;0.0;0.0;0.0;0.0;-0.185547;0.023926;0.984375;-1.54;1.68;0.0;562.0;-0.305237;-0.054044;3.25;6.0;4.75;5.0;3.5;1.75;0.0;0.0;0.25;0.25;0.0;0.0;0.0;0.25;0.0;0.25;-0.215332;0.03418;0.984375;-1.68;-1.47;1.05;315.0;-0.270711;-0.056767
2.74;11.25;9.75;7.0;8.0;4.25;4.0;0.25;0.25;0.0;0.0;0.0;0.0;0.0;0.5;0.0;0.0;-0.185547;0.023438;0.983398;-1.68;1.75;-0.07;567.0;-0.297115;-0.050363;3.5;5.5;4.5;5.0;3.5;1.75;0.0;0.0;0.0;0.0;0.0;0.0;0.0;0.5;0.25;0.0;-0.211426;0.03418;0.979004;-1.68;-1.47;1.05;307.0;-0.272145;-0.057131
2.75;11.5;9.5;7.25;8.25;3.75;4.0;0.25;0.5;0.0;0.0;0.0;0.0;0.0;0.25;0.0;0.0;-0.189941;0.020508;0.987793;-1.82;1.82;-0.14;570.0;-0.299732;-0.054157;3.0;5.5;4.5;4.75;3.25;1.5;0.0;0.0;0.25;0.25;0.25;0.0;0.0;0.75;0.0;0.0;-0.212402;0.03125;0.985352;-1.61;-1.33;1.12;300.0;-0.256096;-0.050473
2.76;11.5;9.5;7.0;8.25;4.0;4.0;0.0;0.5;0.0;0.0;0.0;0.0;0.0;0.0;0.0;0.0;-0.18457;0.020508;0.97998;-1.82;1.96;-0.14;563.0;-0.305152;-0.057741;3.0;5.5;4.5;5.0;3.25;1.5;0.0;0.0;0.25;0.0;0.25;0.0;0.0;0.25;0.25;0.0;-0.214844;0.029785;0.97998;-1.68;-1.19;1.05;298.0;-0.266013;-0.057789
2.77;11.25;8.25;6.25;8.25;3.75;4.0;0.0;0.5;0.0;0.0;0.0;0.0;0.0;0.25;0.0;0.0;-0.185547;0.016113;0.98584;-1.89;2.1;-0.21;535.0;-0.300152;-0.058275;3.5;5.5;4.5;5.0;3.75;1.5;0.0;0.0;0.0;0.0;0.5;0.0;0.0;0.25;0.5;0.0;-0.20752;0.035156;0.979492;-1.68;-1.4;1.12;314.0;-0.260674;-0.05697
2.78;10.25;7.5;6.0;7.0;3.75;3.75;0.0;0.5;0.0;0.0;0.25;0.0;0.0;0.5;0.0;0.0;-0.18457;0.020508;0.987793;-1.89;2.03;-0.14;497.0;-0.290312;-0.053886;3.25;5.5;4.5;4.75;3.5;1.5;0.0;0.0;0.0;0.0;0.25;0.0;0.0;0.25;0.5;0.25;-0.209961;0.034668;0.985352;-1.82;-1.26;1.05;302.0;-0.262104;-0.058891
2.79;9.75;7.5;6.25;6.75;4.0;3.75;0.0;0.5;0.0;0.0;0.0;0.0;0.0;0.5;0.0;0.0;-0.188965;0.020996;0.987793;-1.96;2.31;-0.14;491.0;-0.290919;-0.052658;3.25;4.75;4.5;4.5;3.5;1.75;0.0;0.0;0.25;0.0;0.0;0.0;0.0;0.25;0.5;0.25;-0.211426;0.035645;0.986816;-1.54;-0.91;1.05;295.0;-0.25456;-0.051367
2.8;9.5;7.5;6.0;6.5;3.75;3.75;0.0;0.75;0.0;0.0;0.0;0.0;0.0;0.75;0.0;0.0;-0.185059;0.024414;0.978516;-1.96;2.66;-0.21;485.0;-0.285228;-0.056254;3.0;4.5;4.0;4.5;3.25;1.5;0.0;0.0;0.0;0.25;0.25;0.0;0.0;0.5;0.0;0.5;-0.208008;0.031738;0.976562;-1.68;-0.63;1.05;276.0;-0.255258;-0.056929
2.81;9.5;7.0;6.0;6.5;3.5;3.75;0.25;0.5;0.0;0.0;0.0;0.0;0.0;1.25;0.0;0.0;-0.189453;0.02002;0.983398;-1.89;2.8;-0.28;481.0;-0.276644;-0.047373;3.0;5.0;4.0;4.0;3.0;1.5;0.0;0.0;0.0;0.25;0.25;0.0;0.0;0.75;0.25;0.5;-0.213379;0.027832;0.989746;-1.47;-0.14;1.05;277.0;-0.245668;-0.05467
2.82;7.5;6.0;5.5;6.25;3.75;3.5;0.25;0.5;0.0;0.0;0.0;0.0;0.0;1.25;0.0;0.0;-0.184082;0.019531;0.98877;-2.03;3.29;-0.35;436.0;-0.265765;-0.051499;2.75;4.5;3.25;3.5;2.75;1.25;0.0;0.0;0.0;0.25;0.25;0.0;0.0;0.75;0.25;0.25;-0.211914;0.026367;0.983398;-1.47;0.35;0.98;244.0;-0.244737;-0.052487
2.83;7.25;5.75;5.0;5.5;3.5;3.0;0.0;0.5;0.0;0.0;0.25;0.25;0.0;1.25;0.0;0.0;-0.186523;0.026367;0.980469;-1.75;3.78;-0.21;405.0;-0.262464;-0.053054;2.25;3.75;3.0;3.5;2.5;1.0;0.0;0.0;0.0;0.5;0.25;0.0;0.0;0.75;0.0;0.25;-0.214355;0.027344;0.983887;-1.19;0.7;0.91;220.0;-0.239047;-0.05127
2.84;7.25;4.75;5.0;4.75;3.25;2.75;0.0;0.5;0.25;0.0;0.25;0.25;0.0;1.25;0.0;0.0;-0.188965;0.022949;0.98584;-1.54;3.92;-0.42;382.0;-0.254157;-0.041104;1.5;3.25;2.75;3.25;2.5;1.0;0.0;0.0;0.25;0.5;0.25;0.0;0.0;0.75;0.25;0.0;-0.215332;0.03418;0.984375;-0.91;1.19;0.84;204.0;-0.210826;-0.047104
2.85;6.25;4.25;4.5;3.75;2.75;2.5;0.0;0.5;0.0;0.0;0.25;0.0;0.0;1.5;0.0;0.25;-0.188477;0.021484;0.985352;-1.54;3.78;-0.42;331.0;-0.250211;-0.040684;1.25;2.75;2.75;2.5;2.25;0.5;0.0;0.0;0.25;0.5;0.5;0.25;0.0;0.75;0.5;0.25;-0.21875;0.036621;0.981445;-0.63;1.26;0.91;186.0;-0.171292;-0.039055
2.86;5.25;3.75;4.5;3.75;2.75;2.5;0.0;0.25;0.0;0.0;0.0;0.0;0.0;2.5;0.0;0.5;-0.186523;0.022461;0.979004;-1.26;3.85;-0.35;317.0;-0.225173;-0.032971;1.5;2.25;2.0;1.75;2.25;0.75;0.0;0.0;0.25;0.5;0.5;0.25;0.0;1.25;0.25;0.5;-0.214355;0.032227;0.979004;-0.07;1.61;0.98;171.0;-0.143247;-0.028916
2.87;4.75;3.75;4.0;3.5;2.75;2.5;0.0;0.5;0.25;0.0;0.0;0.0;0.0;3.0;0.0;0.25;-0.192383;0.022949;0.979492;-0.91;3.71;-0.56;313.0;-0.203725;-0.032895;1.25;1.5;1.5;1.5;2.0;0.5;0.0;0.0;0.25;0.75;0.5;0.0;0.0;1.25;0.25;0.5;-0.212891;0.028809;0.980469;0.7;2.24;1.05;143.0;-0.112387;-0.013597
2.88;3.5;2.75;3.0;3.0;2.75;2.5;0.0;0.5;0.5;0.0;0.25;0.25;0.0;3.5;0.5;0.25;-0.19873;0.015137;0.980957;-0.35;3.92;-0.49;288.0;-0.140573;-0.033659;0.75;1.0;1.25;1.0;1.5;0.5;0.0;0.0;0.0;0.75;0.75;0.25;0.0;1.25;0.0;0.75;-0.214844;0.03125;0.987793;1.26;2.73;0.98;116.0;-0.069278;-0.030627
2.89;3.25;2.25;2.5;2.5;2.5;2.5;0.0;0.5;0.5;0.0;0.5;0.5;0.0;4.5;0.5;0.5;-0.194336;0.026855;0.989746;0.07;4.41;-0.56;281.0;-0.095237;-0.030029;0.75;0.5;0.5;0.75;1.25;0.5;0.0;0.0;0.0;0.5;1.0;0.5;0.0;1.5;0.25;0.5;-0.208496;0.033691;0.984863;1.47;3.29;0.77;101.0;0.006461;-0.037451
2.9;2.0;1.75;2.25;2.0;2.0;2.25;0.0;0.5;0.5;0.25;0.75;0.5;0.0;5.0;0.5;0.5;-0.191406;0.024414;0.982422;0.56;5.04;-0.7;252.0;-0.042107;-0.027057;0.5;0.25;0.25;0.75;1.0;0.5;0.0;0.0;0.5;0.75;1.25;0.5;0.0;2.25;0.5;0.5;-0.212402;0.037109;0.979004;1.82;4.27;0.49;113.0;0.10801;-0.009519
2.91;1.75;0.75;2.0;1.5;2.5;1.75;0.0;0.5;0.5;0.25;0.75;0.75;0.0;5.75;0.75;1.0;-0.164551;0.032715;0.98877;1.33;5.88;-0.49;245.0;0.018046;-0.011467;0.5;0.25;0.25;0.5;0.75;0.5;0.0;0.0;0.5;1.0;1.75;0.5;0.0;2.75;0.75;0.75;-0.220215;0.041992;0.986816;2.17;5.04;0.21;126.0;0.156537;-0.007389
2.92;1.0;0.5;1.25;1.25;1.5;1.25;0.0;0.5;0.5;0.5;1.75;1.0;0.0;6.25;0.75;1.0;-0.17334;0.019531;0.980469;2.17;7.35;-0.63;224.0;0.097738;-0.017106;0.25;0.0;0.25;0.25;0.5;0.25;0.0;0.0;0.5;1.0;2.5;0.5;0.0;2.75;1.0;1.0;-0.220703;0.037598;0.987793;2.59;6.23;0.28;124.0;0.224708;-0.009931
2.93;1.0;0.25;0.5;0.5;1.0;0.75;0.0;0.5;0.75;0.75;1.75;1.25;0.0;7.0;1.0;1.25;-0.234863;0.032227;0.987793;3.08;9.17;-0.35;211.0;0.179111;0.001197;0.5;0.25;0.25;0.25;0.25;0.25;0.0;0.25;0.5;1.25;3.0;1.75;0.25;3.5;1.0;1.25;-0.221191;0.026367;0.978027;2.66;6.37;0.63;168.0;0.21069;-0.05268
2.94;0.5;0.25;0.5;0.25;0.5;0.75;0.0;0.75;1.0;0.75;2.0;1.25;0.0;7.25;1.25;1.25;-0.192871;0.032227;0.992188;4.13;11.69;-0.21;212.0;0.216959;-0.004569;0.25;0.25;0.25;0.0;0.25;0.0;0.0;0.25;0.75;1.75;3.25;2.0;0.25;4.25;1.0;1.5;-0.227051;0.038086;0.969238;2.66;5.67;0.84;184.0;0.248105;-0.035571
2.95;0.25;0.25;0.5;0.25;0.25;0.25;0.0;0.25;1.0;0.75;2.75;2.0;0.0;8.25;1.25;2.25;-0.214844;0.020508;0.984375;4.41;13.93;-0.56;225.0;0.263255;-0.001186;0.5;0.0;0.25;0.0;0.25;0.0;0.0;0.25;0.75;2.25;4.0;2.25;0.25;5.25;1.0;1.5;-0.242188;0.030273;0.989258;2.59;4.55;0.35;214.0;0.253292;-0.026132
2.96;0.5;0.25;0.25;0.0;0.25;0.25;0.0;0.0;1.25;1.0;3.0;2.0;0.25;9.5;1.75;2.25;-0.196777;0.039551;0.96875;3.99;15.68;-0.98;249.0;0.283806;0.015113;0.5;0.25;0.25;0.0;0.0;0.0;0.0;0.25;0.75;3.0;4.25;3.0;0.5;5.75;1.25;2.0;-0.210938;0.045898;0.979004;3.22;4.55;0.28;249.0;0.253983;-0.041596
2.97;0.25;0.25;0.0;0.0;0.25;0.25;0.0;0.0;1.0;1.25;3.75;2.5;0.25;10.25;1.75;2.75;-0.192383;0.030762;0.984375;3.71;17.219999;-1.61;268.0;0.299216;-0.001349;0.25;0.0;0.0;0.25;0.25;0.0;0.0;0.0;1.25;3.5;5.25;3.5;0.5;6.25;1.5;2.75;-0.216309;0.033203;0.98877;5.04;7.77;-0.28;288.0;0.271008;-0.037986
2.98;0.0;0.0;0.0;0.25;0.25;0.25;0.0;0.0;2.0;1.75;4.0;3.0;0.25;12.5;2.0;3.25;-0.202148;0.025879;1.006836;2.66;20.370001;-1.33;326.0;0.30997;0.013096;0.25;0.0;0.25;0.0;0.25;0.25;0.0;0.0;1.5;4.0;5.75;4.75;0.75;6.5;1.5;3.0;-0.217285;0.061035;0.994629;6.86;11.76;-0.28;330.0;0.263025;-0.048297
2.99;0.25;0.25;0.25;0.0;0.0;0.0;0.0;0.0;2.5;2.5;4.25;3.5;0.0;14.25;2.25;3.25;-0.223145;0.035156;0.987305;1.54;23.799999;-1.61;370.0;0.308006;0.028261;0.0;0.0;0.25;0.0;0.0;0.0;0.0;0.0;1.75;4.25;6.75;5.0;0.75;7.75;1.5;3.5;-0.228516;0.063965;1.017578;12.53;23.870001;-0.42;359.0;0.280203;-0.043064
3.0;0.25;0.25;0.25;0.0;0.0;0.25;0.0;0.0;3.5;3.25;5.0;3.25;0.0;15.5;2.75;3.5;-0.213867;0.043945;0.978516;0.07;27.370001;-1.61;425.0;0.30484;0.036547;0.0;0.0;0.25;0.0;0.0;0.0;0.0;0.25;2.0;4.5;7.0;6.5;1.0;8.5;1.75;4.0;-0.231934;0.032715;1.025879;15.54;35.560001;0.21;409.0;0.275984;-0.056282
3.01;0.25;0.5;0.0;0.0;0.0;0.0;0.0;0.0;3.5;3.75;5.5;3.5;0.25;17.5;3.5;4.25;-0.217773;0.024414;1.009277;0.98;36.470001;-1.4;474.0;0.311754;0.03068;0.0;0.0;0.25;0.0;0.0;0.0;0.0;0.0;2.75;5.5;7.75;6.5;1.0;8.75;1.75;4.25;-0.243164;0.02832;1.020996;15.54;45.920002;1.54;442.0;0.277466;-0.041532
3.02;0.25;0.25;0.25;0.0;0.0;0.0;0.0;0.0;3.75;3.75;5.25;3.5;0.25;19.0;3.75;4.25;-0.22168;0.035156;0.999512;0.56;43.189999;-0.98;494.0;0.315755;0.038849;0.0;0.0;0.0;0.0;0.0;0.0;0.0;0.0;3.0;5.25;8.25;6.5;1.25;10.0;1.75;4.75;-0.262207;0.066895;1.004883;15.33;56.98;1.68;464.0;0.28442;-0.039745
3.03;0.5;0.25;0.25;0.25;0.0;0.25;0.0;0.0;4.5;4.5;6.0;3.5;0.25;20.5;4.0;4.25;-0.241699;0.009766;1.009277;-4.48;52.220001;-0.56;552.0;0.304528;0.041777;0.0;0.0;0.0;0.0;0.0;0.0;0.0;0.0;3.0;5.5;8.5;7.0;1.25;10.5;2.25;5.0;-0.249023;0.037109;1.045898;14.7;70.139999;1.89;490.0;0.285924;-0.04206
3.04;0.25;0.25;0.5;0.25;0.25;0.0;0.0;0.0;5.0;4.75;6.0;3.25;0.25;21.5;4.0;4.5;-0.251465;0.026855;1.009277;-7.56;56.209999;-0.98;572.0;0.306774;0.050162;0.0;0.0;0.0;0.0;0.0;0.0;0.0;0.0;3.5;5.75;8.5;7.0;1.5;12.0;3.0;5.25;-0.276855;0.047852;1.060547;11.9;81.269997;1.33;530.0;0.290695;-0.03402
3.05;0.0;0.25;0.5;0.0;0.0;0.0;0.0;0.0;5.0;5.0;6.0;3.25;0.25;22.5;4.25;4.25;-0.253906;0.062012;1.007324;-9.59;59.150002;-2.03;577.0;0.318331;0.053965;0.0;0.0;0.0;0.0;0.0;0.0;0.0;0.0;3.75;6.25;9.0;7.5;1.75;13.0;3.0;5.5;-0.275391;0.046875;1.011719;10.78;84.209999;1.26;567.0;0.290098;-0.033571
3.06;0.0;0.25;0.0;0.25;0.0;0.0;0.0;0.0;5.5;5.0;6.0;3.25;0.0;23.25;4.25;4.5;-0.255859;0.032715;0.977539;-10.71;61.040001;-3.15;588.0;0.322736;0.057776;0.0;0.0;0.0;0.0;0.0;0.0;0.0;0.0;3.5;6.0;8.75;7.5;2.0;14.25;3.5;5.75;-0.305176;0.049805;0.933105;10.5;78.959999;1.75;580.0;0.29456;-0.034306
3.07;0.0;0.25;0.25;0.0;0.0;0.25;0.0;0.0;5.75;5.0;6.0;2.5;0.0;24.0;4.25;4.5;-0.263672;0.019043;0.989746;-12.32;62.720001;-3.22;594.0;0.322765;0.066301;0.0;0.0;0.0;0.0;0.0;0.0;0.0;0.0;3.5;6.0;8.75;7.5;2.0;15.0;3.5;6.75;-0.303223;0.046387;0.876953;9.59;68.949997;2.87;594.0;0.29678;-0.03463
3.08;0.0;0.0;0.25;0.0;0.0;0.25;0.0;0.0;6.0;5.5;6.25;2.75;0.0;24.75;4.75;4.5;-0.270508;0.020996;0.958008;-11.97;61.110001;-2.87;621.0;0.325698;0.065736;0.0;0.0;0.0;0.0;0.0;0.0;0.0;0.0;3.75;6.25;8.75;7.5;2.5;15.5;3.5;7.25;-0.323242;0.054199;0.860352;9.31;55.650002;3.99;614.0;0.296467;-0.03544
3.09;0.25;0.0;0.25;0.25;0.25;0.0;0.0;0.0;6.25;5.75;6.5;2.5;0.0;25.25;4.75;4.75;-0.276367;0.010742;0.928223;-10.71;52.990002;-1.33;641.0;0.319198;0.068241;0.0;0.0;0.0;0.0;0.0;0.0;0.0;0.0;4.0;7.0;9.0;8.0;2.75;16.25;4.0;7.5;-0.338867;0.060547;0.845703;9.24;41.09;4.62;655.0;0.296309;-0.035387
3.1;0.25;0.0;0.25;0.25;0.25;0.0;0.0;0.0;6.25;6.25;6.5;2.5;0.0;25.5;4.75;4.75;-0.285645;-0.001465;0.885742;-10.08;48.02;-0.84;650.0;0.318813;0.068627;0.0;0.0;0.0;0.0;0.0;0.0;0.0;0.0;4.5;7.0;8.75;8.0;3.0;16.5;4.0;8.0;-0.349609;0.074219;0.84668;8.96;27.719999;4.62;668.0;0.29643;-0.033553
3.11;0.0;0.0;0.0;0.0;0.0;0.0;0.0;0.0;6.75;6.5;6.5;3.0;0.25;25.75;5.25;4.75;-0.305176;0.021973;0.845703;-6.93;29.4;1.26;665.0;0.328742;0.065721;0.0;0.0;0.0;0.0;0.0;0.0;0.0;0.0;4.5;7.5;8.75;8.5;3.25;16.5;4.0;8.0;-0.344238;0.092285;0.870117;8.05;10.08;3.08;683.0;0.29462;-0.03669
3.12;0.0;0.25;0.25;0.0;0.0;0.25;0.0;0.0;7.0;7.25;7.25;3.25;0.25;26.25;5.5;5.75;-0.320801;0.018555;0.859375;-2.1;14.0;0.84;715.0;0.31869;0.057256;0.0;0.0;0.0;0.0;0.0;0.0;0.0;0.0;5.0;7.5;10.25;8.5;3.5;17.0;4.0;8.25;-0.32959;0.093262;0.867676;7.07;0.0;0.91;719.0;0.292948;-0.035996
3.13;0.0;0.25;0.25;0.0;0.0;0.25;0.0;0.0;7.5;7.5;7.25;3.75;0.25;26.75;6.0;6.0;-0.29834;0.039551;0.860352;-1.47;1.96;-0.07;745.0;0.318239;0.055422;0.0;0.0;0.0;0.0;0.0;0.0;0.0;0.0;5.0;8.0;11.0;9.5;4.5;17.5;4.5;8.75;-0.336914;0.085449;0.870605;7.0;-12.95;-0.84;772.0;0.290668;-0.046186
3.14;0.0;0.0;0.0;0.0;0.0;0.25;0.0;0.0;8.25;7.75;8.5;3.75;0.25;27.25;6.25;6.0;-0.314453;0.041504;0.894531;-1.4;-8.26;-1.96;778.0;0.321233;0.056202;0.0;0.0;0.0;0.0;0.0;0.0;0.0;0.0;5.25;8.5;11.0;9.75;5.0;18.75;4.5;9.0;-0.337891;0.067383;0.918457;7.0;-25.27;-1.4;804.0;0.291082;-0.04441
3.15;0.0;0.0;0.0;0.0;0.0;0.0;0.0;0.0;8.5;8.5;8.75;4.0;0.25;28.25;6.75;6.0;-0.304199;0.046875;0.960449;-3.99;-16.59;-4.13;811.0;0.322899;0.057086;0.0;0.0;0.0;0.0;0.0;0.0;0.0;0.0;5.75;9.0;11.5;10.25;5.25;19.5;4.75;9.5;-0.338867;0.064941;0.961426;6.72;-28.139999;-0.77;848.0;0.290701;-0.043501
3.16;0.0;0.0;0.25;0.25;0.25;0.0;0.0;0.0;9.0;8.5;9.25;4.5;0.25;28.75;7.0;6.0;-0.30127;0.041992;0.977051;-6.16;-19.32;-6.37;849.0;0.315155;0.054455;0.0;0.0;0.0;0.0;0.0;0.0;0.0;0.0;6.75;9.25;12.0;10.25;5.5;20.25;5.0;9.75;-0.34082;0.056152;1.002441;6.02;-25.200001;-0.0;887.0;0.2907;-0.037969
3.17;0.0;0.25;0.5;0.0;0.25;0.0;0.0;0.0;9.5;8.75;9.25;4.5;0.5;29.5;7.0;6.75;-0.293945;0.025391;0.983398;-5.53;-19.18;-7.84;878.0;0.312776;0.054461;0.0;0.0;0.0;0.0;0.0;0.0;0.0;0.0;6.75;9.5;12.0;11.0;5.5;21.5;5.0;10.0;-0.336426;0.083496;0.99707;4.2;-18.76;0.35;914.0;0.291478;-0.037785
3.18;0.0;0.0;0.5;0.0;0.0;0.25;0.0;0.0;10.0;9.0;9.25;4.5;0.5;30.25;7.25;7.75;-0.288086;0.019531;0.976074;-4.62;-16.309999;-8.47;903.0;0.315687;0.053799;0.0;0.0;0.0;0.0;0.0;0.0;0.0;0.0;6.75;9.75;12.25;10.75;6.0;22.25;5.5;10.25;-0.337402;0.084473;1.020508;2.31;-7.21;-0.42;938.0;0.292591;-0.038181
3.19;0.0;0.0;0.25;0.0;0.0;0.0;0.0;0.0;10.5;9.0;9.75;4.5;0.5;30.5;7.5;7.75;-0.289062;0.01416;0.965332;-4.48;-14.98;-8.33;916.0;0.318932;0.055434;0.0;0.0;0.0;0.0;0.0;0.0;0.0;0.0;6.75;9.5;12.25;10.75;5.5;22.5;5.5;10.0;-0.332031;0.075684;0.990723;1.33;9.03;-1.54;931.0;0.293652;-0.035125
3.2;0.0;0.0;0.25;0.0;0.25;0.0;0.0;0.0;10.5;9.25;9.75;4.5;0.5;31.25;7.75;7.75;-0.290039;0.001465;0.97998;-4.06;-13.3;-7.35;934.0;0.318175;0.056019;0.0;0.0;0.0;0.0;0.0;0.25;0.0;0.0;7.25;9.5;12.0;10.5;5.5;23.0;5.75;10.0;-0.314453;0.078125;0.921387;-0.49;13.23;-1.68;944.0;0.293339;-0.031254
3.21;0.0;0.25;0.25;0.0;0.25;0.0;0.0;0.0;11.0;9.5;9.75;4.5;0.5;31.75;7.75;8.0;-0.287598;0.009277;0.959473;-3.22;-13.02;-6.37;954.0;0.315861;0.057214;0.0;0.0;0.0;0.0;0.0;0.25;0.0;0.0;7.5;9.75;12.25;10.0;5.5;23.0;5.75;10.5;-0.328613;0.075684;0.908691;-1.05;8.61;-2.17;951.0;0.29359;-0.02917
3.22;0.0;0.0;0.25;0.25;0.25;0.0;0.0;0.0;11.0;9.5;10.0;4.25;0.5;31.75;7.75;8.5;-0.288086;0.002441;0.944336;-1.89;-15.4;-5.67;958.0;0.316118;0.056237;0.0;0.0;0.0;0.0;0.0;0.0;0.0;0.0;7.75;9.75;12.25;10.25;5.5;23.75;6.0;10.75;-0.332031;0.072754;0.86377;-1.33;0.49;-1.75;967.0;0.296076;-0.02701
3.23;0.0;0.0;0.25;0.0;0.25;0.0;0.0;0.0;11.25;9.5;10.0;4.5;0.5;31.75;8.0;8.5;-0.287598;0.030762;0.964844;-0.21;-18.27;-4.83;965.0;0.317868;0.056478;0.0;0.0;0.0;0.0;0.0;0.0;0.0;0.25;8.0;10.0;12.25;10.25;5.5;23.75;6.0;10.75;-0.334473;0.054688;0.882812;-1.96;-12.67;-0.49;978.0;0.294305;-0.027215
3.24;0.0;0.0;0.25;0.0;0.25;0.0;0.0;0.0;11.5;9.75;10.25;4.5;0.75;32.25;8.5;8.75;-0.269531;0.01123;0.963867;0.42;-19.879999;-4.69;990.0;0.317833;0.05462;0.0;0.0;0.0;0.0;0.0;0.25;0.0;0.25;8.25;10.0;12.25;10.25;6.0;24.5;6.0;10.75;-0.334473;0.05127;0.923828;-1.96;-24.780001;1.61;998.0;0.292966;-0.027502
3.25;0.0;0.0;0.0;0.0;0.25;0.25;0.0;0.0;11.5;10.0;10.5;4.75;1.0;32.0;8.5;9.25;-0.271484;0.018555;0.98584;-1.4;-14.91;-4.13;1003.0;0.316888;0.04902;0.0;0.0;0.0;0.0;0.0;0.0;0.0;0.25;8.25;10.25;12.25;10.25;6.0;24.75;6.25;11.5;-0.330566;0.05127;0.969727;-0.77;-29.540001;4.27;1009.0;0.295217;-0.027457
3.26;0.0;0.0;0.25;0.25;0.25;0.0;0.0;0.0;11.5;10.5;10.5;4.75;1.25;31.75;8.5;9.25;-0.278809;0.002441;1.019531;-1.47;-9.38;-3.78;1012.0;0.313437;0.047777;0.0;0.0;0.0;0.0;0.0;0.0;0.0;0.0;8.5;10.5;12.25;10.25;5.5;25.25;6.75;11.5;-0.321289;0.063477;1.018066;-0.77;-24.360001;5.74;1017.0;0.298189;-0.021513
3.27;0.0;0.0;0.5;0.25;0.25;0.0;0.0;0.0;12.0;10.5;10.75;4.5;1.25;31.75;8.25;9.25;-0.272461;-0.013672;1.04834;-2.24;1.75;-2.45;1020.0;0.310876;0.050609;0.0;0.0;0.0;0.0;0.0;0.0;0.0;0.0;8.5;10.0;12.25;10.25;5.5;25.5;6.75;11.5;-0.320801;0.046387;1.01416;-0.7;-12.32;7.56;1014.0;0.298829;-0.021539
3.28;0.0;0.0;0.5;0.0;0.25;0.0;0.0;0.0;11.75;10.5;10.75;4.75;1.25;31.25;8.5;9.25;-0.250977;-0.005859;1.018555;-1.82;14.63;-0.42;1014.0;0.312487;0.048516;0.0;0.0;0.0;0.0;0.0;0.0;0.0;0.0;8.25;10.0;11.75;10.25;6.0;25.5;6.75;11.75;-0.328613;0.047852;1.047363;-0.42;1.26;9.45;1010.0;0.298887;-0.024799
3.29;0.0;0.0;0.25;0.0;0.5;0.0;0.0;0.0;11.5;10.25;10.75;4.5;1.25;30.75;8.5;9.5;-0.285645;-0.029297;1.062012;-1.19;30.380001;2.17;1001.0;0.313322;0.047336;0.0;0.0;0.0;0.0;0.0;0.0;0.0;0.0;8.0;9.5;11.5;10.25;5.5;25.25;7.0;11.75;-0.330566;0.047363;1.056152;-0.14;17.57;11.97;993.0;0.300367;-0.02469
3.3;0.0;0.0;0.0;0.25;0.25;0.0;0.0;0.0;10.75;9.75;10.25;4.25;1.25;29.5;8.25;9.5;-0.303223;-0.036621;1.128418;-3.15;54.599998;5.74;954.0;0.315254;0.044201;0.0;0.0;0.0;0.0;0.0;0.0;0.0;0.0;7.5;9.25;11.25;9.5;5.5;23.75;6.75;11.5;-0.375488;0.074219;1.022949;3.99;52.57;15.61;949.0;0.299844;-0.027009
3.31;0.0;0.0;0.0;0.0;0.0;0.0;0.0;0.0;9.5;9.0;9.5;4.25;1.25;27.25;8.0;9.25;-0.298828;-0.101562;1.220703;-7.56;84.0;9.87;882.0;0.319243;0.039176;0.0;0.0;0.0;0.0;0.0;0.0;0.0;0.0;6.25;8.5;10.5;9.5;5.5;22.25;6.5;11.25;-0.362793;0.129395;0.922852;11.27;84.139999;18.9;891.0;0.299779;-0.036424
3.32;0.0;0.0;0.0;0.0;0.0;0.0;0.0;0.0;7.75;8.5;8.75;3.5;1.25;24.75;7.25;7.75;-0.418945;-0.002441;1.369141;-13.09;115.150002;13.72;785.0;0.319953;0.037996;0.0;0.0;0.0;0.0;0.0;0.0;0.0;0.0;5.0;7.0;8.75;9.25;5.25;19.25;6.25;10.75;-0.245117;-0.24707;1.297363;12.81;105.629997;23.73;788.0;0.300056;-0.04883
3.33;0.0;0.25;0.25;0.25;0.0;0.0;0.0;0.0;6.25;7.25;6.75;2.5;1.25;20.5;5.5;6.0;-0.443848;0.12207;1.361816;-24.290001;180.389999;12.67;641.0;0.310823;0.040235;0.0;0.0;0.0;0.0;0.0;0.0;0.0;0.0;1.75;5.5;9.0;8.0;5.25;14.25;5.5;9.5;-0.669434;0.314941;1.377441;27.93;138.320007;28.49;638.0;0.295917;-0.086287
3.34;0.0;0.0;0.25;0.0;0.0;0.0;0.0;0.0;4.5;4.5;4.25;1.0;1.25;15.25;4.25;4.75;-0.460938;0.193359;1.39502;-12.18;238.0;3.92;447.0;0.32232;0.046744;0.0;0.0;0.0;0.0;0.0;0.0;0.0;0.0;1.25;2.25;6.5;7.5;4.75;8.5;4.75;8.0;-0.383301;0.171387;1.48877;58.939999;174.440002;31.57;470.0;0.290473;-0.124496
3.35;0.0;0.0;0.0;0.0;0.0;0.0;0.0;0.0;2.5;2.75;2.25;0.5;1.25;8.0;2.25;2.25;-0.661133;0.166992;1.877441;4.83;304.5;-7.91;244.0;0.32043;0.038578;0.0;0.0;0.0;0.0;0.0;0.0;0.0;0.0;0.75;1.75;2.25;5.75;3.5;3.75;4.0;5.25;-0.614258;0.083984;1.674316;103.529999;221.899994;29.610001;292.0;0.287633;-0.152735
3.36;0.0;0.0;0.0;0.0;0.0;0.0;0.0;0.0;2.25;2.75;2.5;0.5;0.75;6.5;2.0;2.5;-1.69873;0.152344;3.223145;48.720001;341.880005;-9.45;222.0;0.3164;0.033384;0.0;0.0;0.0;0.0;0.0;0.0;0.0;0.0;0.5;1.25;2.75;2.0;2.0;4.25;2.5;3.75;-0.636719;-0.003418;2.117676;137.899994;277.549988;41.09;202.0;0.304212;-0.100292
3.37;0.0;0.0;0.0;0.0;0.0;0.0;0.0;0.0;1.0;1.0;1.0;0.5;0.25;5.25;1.75;0.5;-5.460449;0.731934;5.822754;205.169998;267.329987;5.32;128.0;0.341508;0.05667;0.0;0.0;0.0;0.0;0.0;0.0;0.0;0.0;0.5;0.75;2.0;2.0;0.75;2.75;1.25;2.5;-2.229004;-0.054199;4.223633;204.119995;324.519989;86.239998;135.0;0.297742;-0.093124
3.38;0.0;0.0;0.0;0.0;0.0;0.0;0.0;0.0;0.75;0.75;0.5;0.0;0.25;2.25;0.75;0.75;-5.180664;-1.168457;5.866699;274.540009;129.850006;-33.810001;67.0;0.33013;0.054898;0.0;0.0;0.0;0.0;0.0;0.0;0.0;0.0;0.25;0.5;0.75;1.25;0.75;2.0;1.75;2.0;-5.687012;1.253906;4.788086;254.940002;221.830002;146.089996;98.0;0.317479;-0.102668
3.39;0.0;0.0;0.0;0.0;0.0;0.0;0.0;0.0;0.5;0.5;0.0;0.0;0.0;0.5;0.0;0.75;-2.399902;-1.243652;-2.539062;99.610001;-148.330002;-23.309999;24.0;0.0;0.0;0.0;0.0;0.0;0.0;0.0;0.0;0.0;0.0;0.0;0.0;0.5;0.5;0.75;0.75;0.5;0.75;-4.194336;-0.275391;3.410645;409.220001;41.439999;189.419998;39.0;0.0;0.0
3.4;0.0;0.0;0.0;0.0;0.0;0.0;0.0;0.0;0.5;0.5;0.0;0.0;0.0;0.75;0.0;0.5;-3.056152;-1.085449;-0.663574;-121.520004;-475.51001;8.05;25.0;0.0;0.0;0.0;0.0;0.0;0.0;0.0;0.0;0.0;0.0;0.0;0.0;0.0;0.25;0.0;0.5;0.25;0.5;-2.545898;-3.260254;-1.994141;288.679993;-136.080002;173.460007;15.0;0.0;0.0
3.41;0.0;0.0;0.0;0.0;0.0;0.0;0.0;0.0;0.25;0.0;0.0;0.0;0.0;0.75;0.0;0.5;-4.827637;1.322266;-3.618164;-179.479996;-377.579987;-65.239998;15.0;0.0;0.0;0.0;0.0;0.0;0.0;0.0;0.0;0.0;0.0;0.25;0.0;0.0;0.25;0.0;0.5;0.0;0.25;-1.959961;-3.373047;-2.050781;-44.450001;-381.98999;128.660004;14.0;0.0;0.0
3.42;0.0;0.0;0.0;0.0;0.0;0.0;0.0;0.0;0.25;0.0;0.0;0.0;0.0;0.5;0.0;0.0;-3.253418;1.542969;-4.678223;-96.110001;-205.520004;-73.43;9.0;0.0;0.0;0.0;0.0;0.0;0.0;0.0;0.0;0.0;0.0;0.0;0.0;0.0;0.25;0.0;0.5;0.0;0.0;-4.288086;-1.837891;-2.499512;-316.610016;-340.690002;35.98;8.0;0.0;0.0
3.43;0.0;0.0;0.0;0.0;0.0;0.0;0.0;0.0;0.25;0.0;0.0;0.0;0.0;0.5;0.0;0.0;-3.231445;1.581543;-3.121582;-16.799999;-102.269997;-12.74;9.0;0.0;0.0;0.0;0.0;0.0;0.0;0.0;0.0;0.0;0.0;0.0;0.0;0.0;0.0;0.0;0.25;0.0;0.0;-3.48877;0.662109;-2.617188;-399.559998;-234.149994;-78.190002;3.0;0.0;0.0
3.44;0.0;0.0;0.0;0.0;0.0;0.0;0.0;0.0;0.25;0.0;0.0;0.0;0.0;0.25;0.0;0.0;-2.963379;0.866699;-2.31543;2.66;-41.369999;64.400002;6.0;0.0;0.0;0.0;0.0;0.0;0.0;0.0;0.0;0.0;0.0;0.0;0.0;0.0;0.25;0.0;0.25;0.0;0.0;-3.052734;1.04541;-2.569824;-335.160004;-192.570007;-73.919998;6.0;0.0;0.0
3.45;0.0;0.0;0.0;0.0;0.0;0.0;0.0;0.0;0.25;0.0;0.0;0.0;0.0;0.25;0.0;0.0;-2.495117;0.262695;-2.004395;-10.36;-2.17;126.419998;6.0;0.0;0.0;0.0;0.0;0.0;0.0;0.0;0.0;0.0;0.0;0.0;0.0;0.0;0.25;0.25;0.25;0.0;0.0;-2.55127;1.185059;-2.554688;-283.079987;-152.039993;-45.709999;8.0;0.0;0.0
3.46;0.0;0.0;0.0;0.0;0.0;0.0;0.0;0.0;0.0;0.0;0.0;0.0;0.0;0.25;0.0;0.0;-2.363281;-0.044434;-1.452637;-38.220001;35.139999;156.029999;3.0;0.0;0.0;0.0;0.0;0.0;0.0;0.0;0.0;0.0;0.0;0.0;0.0;0.0;0.0;0.0;0.25;0.0;0.0;-2.456055;1.026855;-2.267578;-203.070007;-106.330002;5.25;3.0;0.0;0.0
3.47;0.0;0.0;0.0;0.0;0.0;0.0;0.0;0.0;0.25;0.0;0.0;0.0;0.0;0.5;0.0;0.0;-2.249512;-0.141113;-0.97998;-50.330002;76.440002;157.149994;9.0;0.0;0.0;0.0;0.0;0.0;0.0;0.0;0.0;0.0;0.0;0.0;0.0;0.0;0.0;0.0;0.25;0.0;0.0;-2.445312;0.67627;-1.86377;-112.980003;-44.380001;55.510002;3.0;0.0;0.0
3.48;0.0;0.0;0.0;0.0;0.0;0.0;0.0;0.0;0.0;0.0;0.0;0.0;0.0;0.25;0.0;0.0;-1.916504;-0.225586;-0.685547;-43.470001;123.620003;143.149994;3.0;0.0;0.0;0.0;0.0;0.0;0.0;0.0;0.0;0.0;0.0;0.25;0.0;0.0;0.0;0.0;0.25;0.0;0.0;-2.344238;0.230469;-1.499023;-62.790001;28.35;78.610001;6.0;0.0;0.0
3.49;0.0;0.0;0.0;0.0;0.0;0.0;0.0;0.0;0.0;0.0;0.0;0.0;0.0;0.25;0.0;0.0;-1.746582;-0.40625;-0.180664;-17.290001;207.410004;110.32;3.0;0.0;0.0;0.0;0.0;0.0;0.0;0.0;0.0;0.0;0.0;0.0;0.0;0.0;0.0;0.0;0.25;0.0;0.0;-2.099609;-0.095703;-0.856445;-37.240002;109.410004;75.32;3.0;0.0;0.0
3.5;0.0;0.0;0.0;0.0;0.0;0.0;0.0;0.0;0.0;0.0;0.0;0.0;0.0;0.0;0.0;0.0;-1.493164;-0.632324;0.324707;-3.36;264.459991;81.550003;0.0;0.0;0.0;0.0;0.0;0.0;0.0;0.0;0.0;0.0;0.0;0.0;0.0;0.0;0.0;0.0;0.0;0.0;0.0;-1.830078;-0.273438;-0.056641;-25.41;227.639999;40.670002;0.0;0.0;0.0
3.51;0.0;0.0;0.0;0.0;0.0;0.0;0.0;0.0;0.0;0.0;0.0;0.0;0.0;0.0;0.0;0.0;-1.129883;-0.817871;0.798828;10.85;312.970001;52.57;0.0;0.0;0.0;0.0;0.0;0.0;0.0;0.0;0.0;0.0;0.0;0.25;0.0;0.0;0.0;0.0;0.25;0.0;0.0;-1.475586;-0.274414;0.876953;-19.460001;280.350006;12.74;6.0;0.0;0.0
3.52;0.0;0.0;0.0;0.0;0.0;0.0;0.0;0.0;0.0;0.0;0.0;0.0;0.0;0.0;0.0;0.0;-0.799805;-0.936035;1.146973;16.309999;339.149994;26.389999;0.0;0.0;0.0;0.0;0.0;0.0;0.0;0.0;0.0;0.0;0.0;0.5;0.0;0.0;0.0;0.0;0.25;0.0;0.0;-1.095703;-0.254883;1.365234;-21.42;305.339996;-9.31;10.0;0.0;0.0
3.53;0.0;0.0;0.0;0.0;0.0;0.0;0.0;0.0;0.0;0.0;0.0;0.0;0.0;0.0;0.0;0.0;-0.467285;-1.026855;1.430664;8.61;342.089996;5.74;0.0;0.0;0.0;0.0;0.0;0.0;0.0;0.0;0.0;0.0;0.0;0.25;0.0;0.0;0.0;0.0;0.0;0.0;0.0;-0.729004;-0.132324;1.593262;-32.759998;301.910004;-27.370001;4.0;0.0;0.0
3.54;0.0;0.0;0.0;0.0;0.0;0.0;0.0;0.0;0.0;0.0;0.0;0.0;0.0;0.0;0.0;0.0;-0.032715;-1.011719;1.572266;-13.16;333.829987;-10.36;0.0;0.0;0.0;0.0;0.0;0.0;0.0;0.0;0.0;0.0;0.0;0.0;0.0;0.0;0.0;0.0;0.0;0.0;0.0;-0.434082;-0.007324;1.699707;-30.1;289.23999;-39.970001;0.0;0.0;0.0
3.55;0.0;0.0;0.0;0.0;0.0;0.0;0.0;0.0;0.0;0.0;0.0;0.0;0.0;0.0;0.0;0.0;0.514648;-0.837891;1.650391;-38.009998;326.130005;-18.76;0.0;0.0;0.0;0.0;0.0;0.0;0.0;0.0;0.0;0.0;0.0;0.0;0.0;0.0;0.0;0.0;0.0;0.0;0.0;0.042969;-0.17627;1.637207;10.08;277.899994;-52.849998;0.0;0.0;0.0
3.56;0.0;0.0;0.0;0.0;0.0;0.0;0.0;0.0;0.0;0.0;0.0;0.0;0.0;0.0;0.0;0.0;1.272461;-0.730957;1.786133;-55.790001;312.339996;-13.440001;0.0;0.0;0.0;0.0;0.0;0.0;0.0;0.0;0.0;0.0;0.0;0.0;0.0;0.0;0.0;0.0;0.0;0.0;0.0;0.343262;-0.449219;1.592773;29.120001;269.220001;-62.790001;0.0;0.0;0.0
3.57;0.0;0.0;0.0;0.0;0.0;0.0;0.0;0.0;0.0;0.0;0.0;0.0;0.0;0.0;0.0;0.0;1.721191;-0.697266;1.802734;-70.0;281.540009;-9.24;0.0;0.0;0.0;0.0;0.0;0.0;0.0;0.0;0.0;0.0;0.0;0.0;0.0;0.0;0.0;0.0;0.0;0.0;0.0;0.76123;-0.711426;1.589844;29.190001;258.089996;-71.75;0.0;0.0;0.0
3.58;0.0;0.0;0.0;0.0;0.0;0.0;0.0;0.0;0.0;0.0;0.0;0.0;0.0;0.0;0.0;0.0;1.867188;-0.619141;1.758789;-85.889999;235.479996;-13.09;0.0;0.0;0.0;0.0;0.0;0.0;0.0;0.0;0.0;0.0;0.0;0.25;0.0;0.0;0.0;0.0;0.0;0.0;0.0;1.237793;-0.946289;1.570312;7.98;240.169998;-73.57;4.0;0.0;0.0
3.59;0.0;0.0;0.0;0.0;0.0;0.0;0.0;0.0;0.0;0.0;0.0;0.0;0.0;0.0;0.0;0.0;1.737793;-0.566895;1.79248;-89.879997;185.570007;-25.41;0.0;0.0;0.0;0.0;0.0;0.0;0.0;0.0;0.0;0.0;0.0;0.25;0.0;0.0;0.0;0.0;0.0;0.0;0.0;1.844727;-0.955566;1.512207;-30.66;213.850006;-70.0;4.0;0.0;0.0
3.6;0.0;0.0;0.0;0.0;0.0;0.0;0.0;0.0;0.0;0.0;0.0;0.0;0.0;0.0;0.0;0.0;1.585449;-0.606934;1.710938;-77.769997;136.149994;-39.830002;0.0;0.0;0.0;0.0;0.0;0.0;0.0;0.0;0.0;0.0;0.0;0.5;0.0;0.0;0.0;0.0;0.0;0.0;0.0;2.555664;-0.84668;1.393555;-66.639999;184.380005;-58.799999;8.0;0.0;0.0
3.61;0.0;0.0;0.0;0.0;0.0;0.0;0.0;0.0;0.5;0.0;0.0;0.0;0.0;0.0;0.0;0.0;1.333496;-0.716797;1.330566;-79.449997;93.099998;-56.07;8.0;0.0;0.0;0.0;0.0;0.0;0.0;0.0;0.0;0.0;0.0;0.5;0.0;0.0;0.0;0.0;0.0;0.0;0.0;3.055176;-0.714355;1.336426;-86.660004;149.240005;-45.709999;8.0;0.0;0.0
3.62;0.0;0.0;0.0;0.0;0.0;0.0;0.0;0.0;0.25;0.0;0.0;0.0;0.0;0.0;0.0;0.0;0.864746;-0.649414;0.778809;-101.779999;67.199997;-72.309998;4.0;0.0;0.0;0.0;0.0;0.0;0.0;0.0;0.0;0.0;0.0;0.25;0.0;0.0;0.0;0.0;0.0;0.0;0.0;3.022949;-0.249512;1.419434;-70.980003;77.910004;-41.790001;4.0;0.0;0.0
3.63;0.0;0.0;0.0;0.0;0.0;0.0;0.0;0.0;0.25;0.25;0.0;0.0;0.0;0.0;0.0;0.0;0.284668;-0.315918;0.073242;-125.580002;78.400002;-83.019997;7.0;0.0;0.0;0.0;0.0;0.0;0.0;0.0;0.0;0.0;0.0;0.25;0.25;0.0;0.25;0.0;0.0;0.0;0.0;2.604492;-0.104492;0.98291;-29.540001;31.43;-43.75;10.0;0.0;0.0
3.64;0.0;0.0;0.0;0.0;0.0;0.0;0.0;0.0;0.5;0.5;0.0;0.0;0.0;0.5;0.0;0.0;-0.977539;0.512207;-0.20752;-113.540001;147.350006;-65.099998;19.0;0.0;0.0;0.0;0.0;0.0;0.0;0.0;0.0;0.0;0.0;0.5;0.25;0.25;0.0;0.0;0.0;0.0;0.0;1.868164;0.10791;0.320312;14.28;16.59;-41.509998;14.0;0.0;0.0
3.65;0.0;0.0;0.0;0.0;0.0;0.0;0.0;0.0;1.0;1.0;0.5;0.0;0.0;8.25;0.75;0.0;2.958008;2.15625;6.112793;-19.67;103.739998;-45.360001;127.0;0.367458;0.145029;0.0;0.0;0.0;0.0;0.0;0.0;0.0;0.0;0.25;0.0;0.25;0.0;0.0;0.25;0.0;0.0;1.085938;0.240234;-0.083496;35.209999;43.330002;-33.18;10.0;0.0;0.0
3.66;0.0;0.0;0.0;0.0;0.0;0.0;0.0;0.0;3.0;3.0;0.75;0.25;0.0;13.5;2.5;0.0;1.400391;0.641113;3.281738;47.670002;-70.279999;-13.58;265.0;0.351349;0.13219;0.0;0.0;0.0;0.0;0.0;0.0;0.0;0.0;0.5;2.25;2.5;0.5;0.0;6.5;3.5;0.5;2.029297;3.778809;0.473145;31.01;120.540001;39.060001;186.0;0.340093;0.029801
3.67;0.0;0.0;0.0;0.0;0.0;0.0;0.0;0.0;4.5;5.75;2.75;0.5;0.5;19.0;3.5;0.5;0.876953;0.208008;2.652832;85.050003;-189.839996;-32.900002;427.0;0.336462;0.106047;0.0;0.0;0.0;0.0;0.0;0.0;0.0;0.0;1.0;5.75;5.25;3.0;0.25;11.0;5.0;5.0;-0.783691;1.790039;3.456055;23.030001;21.0;183.610001;400.0;0.319077;-0.016427
3.68;0.0;0.0;0.0;0.0;0.0;0.0;0.25;0.0;8.25;10.5;8.0;3.25;2.25;20.5;3.25;1.75;2.53418;1.086914;5.33252;136.149994;-209.649994;-52.57;688.0;0.299932;0.058947;0.0;0.0;0.0;0.0;0.0;0.0;0.0;0.0;5.0;12.25;13.25;9.5;3.5;16.25;6.5;10.0;-5.401855;5.015137;11.960938;-89.110001;-453.25;284.339996;863.0;0.289175;-0.04362
3.69;0.0;0.0;0.0;0.0;0.0;0.0;0.0;0.0;14.75;14.75;10.0;3.0;2.25;22.75;3.5;2.25;-3.16748;-1.379883;3.80957;80.010002;-664.789978;-10.99;889.0;0.294264;0.0805;0.0;0.0;0.0;0.0;0.0;0.0;0.0;0.0;4.25;13.0;16.25;13.75;5.5;16.5;7.25;12.5;-2.080566;-0.514648;-0.742676;208.809998;-717.98999;178.639999;1000.0;0.282436;-0.075277
3.7;0.0;0.0;0.0;0.0;0.0;0.0;0.0;0.0;17.0;14.75;11.25;3.75;2.25;22.5;3.5;3.25;0.433594;0.251465;-4.229492;-1.82;-697.47998;30.17;953.0;0.290996;0.077773;0.0;0.0;0.0;0.0;0.0;0.0;0.0;0.0;5.0;12.0;18.25;16.75;7.5;14.25;7.25;12.75;0.254395;0.806152;3.958008;-31.92;-673.539978;192.639999;1062.0;0.27375;-0.09509
3.71;0.0;0.0;0.0;0.0;0.0;0.0;0.0;0.0;15.5;13.5;12.25;5.0;2.0;20.5;2.5;3.5;-0.120605;-1.101562;2.031738;270.76001;-653.799988;6.16;909.0;0.286528;0.06458;0.0;0.0;0.0;0.0;0.0;0.0;0.0;0.0;4.25;10.5;19.0;20.25;12.5;11.5;6.75;13.0;0.988281;2.048828;1.760254;16.24;-623.559998;111.580002;1104.0;0.262439;-0.134178
3.72;0.0;0.0;0.0;0.0;0.0;0.0;0.0;0.0;13.75;12.0;13.0;7.25;2.0;17.5;1.75;3.75;-0.182617;0.412109;1.815918;127.400002;-651.559998;50.75;863.0;0.279553;0.041011;0.0;0.0;0.0;0.0;0.0;0.0;0.0;1.5;2.75;9.25;18.5;21.5;17.75;8.5;6.25;12.75;-0.501465;-0.094238;1.572266;11.69;-639.23999;39.200001;1117.0;0.246061;-0.178483
3.73;0.0;0.0;0.0;0.0;0.0;0.0;0.0;0.0;11.25;10.75;12.75;9.25;1.75;14.75;0.75;3.75;-0.327637;-0.003906;1.668945;170.169998;-635.179993;23.940001;787.0;0.272948;0.017543;0.0;0.0;0.0;0.0;0.0;0.5;0.0;6.5;2.25;8.25;17.25;20.75;20.75;6.5;5.75;12.0;-0.24707;0.62793;2.599609;-142.869995;-597.52002;25.620001;1169.0;0.218045;-0.214729
3.74;0.0;0.0;0.0;0.0;0.0;0.0;1.25;1.25;11.0;10.0;12.25;9.0;2.75;12.75;2.25;4.25;-0.254395;0.427734;2.500488;35.91;-635.809998;17.710001;822.0;0.259531;-0.000709;0.0;0.0;0.0;0.25;1.75;9.25;0.0;13.25;3.0;7.75;14.75;18.0;19.5;6.5;6.0;11.25;-0.756348;-0.446289;2.523438;-142.800003;-366.380005;-70.629997;1357.0;0.15976;-0.225306
3.75;0.0;0.0;5.5;2.75;12.75;8.25;4.5;4.75;11.0;8.5;9.25;7.25;3.0;10.0;3.25;3.75;0.450684;2.998535;1.720703;-46.34;-261.799988;23.1;1234.0;0.101545;-0.023119;2.25;4.5;5.5;9.25;17.25;21.5;1.25;15.75;3.75;7.75;11.5;13.75;14.75;6.5;6.0;9.25;-0.389648;0.381348;1.337891;-29.68;-135.309998;-31.43;1913.0;0.027526;-0.169461
3.76;10.25;7.0;15.5;11.0;28.5;16.25;6.0;5.75;11.0;7.25;6.5;4.75;1.25;9.0;3.75;3.25;-0.365723;0.121094;1.354004;-40.389999;-122.010002;-6.3;1929.0;-0.045835;-0.019202;4.5;9.75;9.5;10.25;25.5;23.0;2.5;13.75;5.0;8.5;11.0;11.75;11.5;7.5;6.0;8.5;0.660156;-0.029297;1.489258;-30.309999;-24.5;-18.620001;2148.0;-0.008187;-0.128036
3.77;10.5;4.25;13.5;5.25;24.5;10.75;6.0;4.25;11.75;8.0;7.25;5.0;1.25;10.75;3.75;3.25;-0.093262;0.005371;1.251465;-4.9;51.099998;-14.77;1700.0;-0.008861;0.008775;2.25;4.5;5.0;5.25;14.0;14.75;1.5;10.0;5.75;9.5;12.5;12.0;11.25;8.75;6.5;9.5;-0.16748;-0.009766;1.219727;-15.33;45.43;-2.52;1661.0;0.064932;-0.129305
3.78;3.75;2.0;5.75;2.25;8.0;4.0;4.25;2.25;13.0;9.5;9.75;6.25;1.25;15.75;3.75;3.75;-0.311523;0.114258;1.170898;6.09;75.459999;-15.89;1215.0;0.121927;0.027314;0.5;2.0;2.0;2.0;5.25;6.75;0.5;6.5;6.0;10.25;13.75;12.25;10.5;10.25;6.75;10.25;-0.364258;0.052734;1.09668;-0.7;70.419998;7.7;1276.0;0.153631;-0.126279
3.79;1.0;0.5;1.25;0.5;2.75;1.0;2.0;1.0;12.5;10.0;10.0;6.0;0.75;18.5;3.0;3.5;-0.182129;-0.664062;1.571289;27.370001;167.089996;-38.150002;921.0;0.226768;0.048916;0.0;0.5;0.25;0.5;1.25;3.0;0.0;4.5;5.75;10.0;13.75;12.0;9.0;11.0;5.75;10.0;-0.105469;0.122559;1.383789;42.630001;126.209999;29.26;1031.0;0.216687;-0.12106
3.8;0.25;0.25;0.25;0.0;0.0;0.0;0.75;0.25;11.25;9.25;9.5;4.25;0.5;18.5;2.25;3.0;-0.078613;-0.271484;1.55957;5.74;412.440002;7.42;731.0;0.280832;0.068777;0.0;0.0;0.0;0.25;0.0;1.25;0.0;3.0;5.0;9.25;13.25;11.75;7.75;11.0;5.0;9.75;-0.245605;0.133301;0.874512;43.189999;144.899994;21.0;898.0;0.244404;-0.114139
3.81;0.0;0.0;0.0;0.0;0.0;0.0;0.25;0.0;9.5;8.5;8.0;2.75;0.5;19.0;1.75;2.25;-0.180664;-0.034668;1.258789;-58.310001;357.839996;7.49;628.0;0.299904;0.083313;0.0;0.0;0.0;0.0;0.0;0.5;0.0;1.75;5.0;8.25;12.5;11.0;6.75;10.5;4.5;9.25;-0.272949;0.137695;0.710938;32.619999;107.940002;10.92;806.0;0.257494;-0.101386
3.82;0.0;0.0;0.0;0.0;0.0;0.0;0.0;0.0;7.5;7.25;6.5;2.25;0.25;18.25;1.0;2.0;-0.322754;0.046387;1.163086;-54.950001;297.98999;8.47;530.0;0.306708;0.088231;0.0;0.0;0.0;0.0;0.0;0.5;0.0;1.0;4.0;7.75;11.75;10.25;6.25;10.25;4.0;8.75;-0.314453;0.135254;0.666992;19.32;56.77;5.39;735.0;0.262081;-0.100385
3.83;0.0;0.0;0.0;0.0;0.0;0.0;0.0;0.0;5.75;7.0;4.75;1.5;0.25;16.5;1.0;1.0;-0.338379;-0.023438;0.645508;-32.689999;239.119995;10.29;444.0;0.311379;0.097439;0.0;0.0;0.0;0.0;0.0;0.25;0.0;0.75;3.75;7.75;11.0;9.75;6.0;8.75;3.5;8.0;-0.327637;0.139648;0.642578;0.63;0.56;0.91;679.0;0.261884;-0.10125
3.84;0.0;0.0;0.0;0.0;0.0;0.0;0.0;0.0;5.0;5.5;4.0;1.25;0.25;15.25;1.25;0.75;-0.36084;-0.088379;0.441895;-23.799999;171.360001;15.47;390.0;0.316592;0.09968;0.0;0.0;0.0;0.0;0.0;0.0;0.0;1.0;3.75;7.5;10.5;9.5;5.5;8.5;3.0;7.5;-0.313965;0.118652;0.699219;-19.879999;-56.91;-4.27;650.0;0.260997;-0.09951
3.85;0.0;0.0;0.0;0.0;0.0;0.0;0.0;0.0;3.5;4.75;2.75;1.25;0.25;13.25;0.75;0.5;-0.466309;0.013184;0.324707;-18.620001;97.160004;18.549999;313.0;0.319603;0.099117;0.0;0.0;0.0;0.0;0.0;0.25;0.0;2.25;3.0;7.0;9.5;9.25;6.0;6.5;3.0;6.25;-0.277344;0.081055;0.789551;-37.869999;-102.970001;-7.7;619.0;0.243038;-0.127854
3.86;0.0;0.0;0.0;0.0;0.0;0.0;0.0;0.0;2.0;3.75;2.5;1.5;0.25;11.25;0.5;0.5;-0.48584;0.165039;0.297852;8.68;12.88;9.73;254.0;0.320522;0.078349;0.0;0.0;0.0;0.0;0.0;0.5;0.0;3.75;2.75;6.25;8.75;8.5;5.5;5.5;2.5;5.5;-0.25293;0.222656;1.112305;-60.970001;-129.220001;-13.72;591.0;0.224886;-0.145359
3.87;0.0;0.0;0.0;0.0;0.0;0.0;0.0;0.0;1.5;3.0;2.5;1.5;0.25;9.5;0.75;0.75;-0.402344;0.055664;0.46875;26.74;-33.670002;3.92;224.0;0.320258;0.059159;0.0;0.0;0.0;0.0;0.25;2.75;0.0;5.0;2.0;4.5;9.0;7.75;5.5;3.75;2.5;5.25;-0.238281;0.013672;1.237793;-45.290001;-90.230003;-15.61;588.0;0.187971;-0.182972
3.88;0.0;0.0;0.0;0.0;0.0;0.0;0.0;0.0;1.25;2.75;2.75;2.0;0.25;8.5;0.5;0.25;-0.431152;0.047852;0.686035;32.34;-71.959999;1.54;210.0;0.311428;0.043926;0.0;0.0;0.25;0.5;2.25;5.0;0.0;6.0;1.5;3.0;7.0;6.5;4.75;2.0;2.0;4.5;-0.17627;0.013184;1.092285;-20.370001;-42.139999;-9.66;567.0;0.125765;-0.203658
3.89;0.0;0.0;0.0;0.0;0.0;0.0;0.0;0.0;1.25;2.25;2.75;2.25;0.25;6.75;0.5;0.5;-0.432129;0.031738;0.836426;31.92;-92.470001;0.42;191.0;0.302953;0.022188;0.0;0.75;0.25;1.75;3.5;5.5;0.0;5.5;0.5;1.25;5.75;6.5;4.0;1.25;2.0;4.0;-0.177734;0.015625;1.069824;-8.19;-17.710001;-2.87;534.0;0.078372;-0.221732
3.9;0.0;0.0;0.0;0.0;0.0;0.0;0.0;0.0;0.75;1.75;3.0;2.5;0.0;5.25;0.5;0.5;-0.412598;0.027344;0.972656;27.299999;-98.209999;-0.28;165.0;0.296146;-0.006806;0.5;1.5;0.75;2.5;3.5;5.75;0.0;5.0;0.5;1.0;4.0;5.75;4.0;0.75;1.25;3.5;-0.20166;0.006836;1.022949;-1.89;-4.62;-0.21;507.0;0.031946;-0.220969
3.91;0.0;0.0;0.0;0.0;0.0;0.0;0.0;0.0;0.75;1.0;2.75;2.5;0.0;2.75;0.5;0.5;-0.410645;0.017578;1.033203;22.610001;-93.099998;-0.42;128.0;0.278685;-0.045973;0.5;1.5;0.5;2.25;2.25;5.25;0.0;4.75;0.5;1.0;2.75;5.25;4.0;0.75;1.0;3.25;-0.21875;0.02832;1.000488;2.73;2.45;2.73;447.0;0.032337;-0.234405
3.92;0.0;0.0;0.0;0.0;0.0;0.0;0.0;0.0;0.75;0.75;2.0;2.5;0.25;2.25;0.0;0.5;-0.410645;0.03418;1.090332;16.940001;-81.059998;-0.21;106.0;0.267808;-0.061567;0.25;1.5;0.5;2.0;1.25;4.25;0.0;4.5;0.25;1.0;1.75;5.0;4.0;0.75;0.5;3.5;-0.221191;0.039062;0.988281;5.67;6.02;4.83;385.0;0.035977;-0.255475
3.93;0.0;0.0;0.0;0.0;0.0;0.0;0.0;0.0;0.5;0.75;1.25;2.0;0.0;1.75;0.5;0.25;-0.400391;-0.044922;1.013672;5.04;-60.689999;0.63;84.0;0.280537;-0.052487;0.0;1.5;0.25;1.75;0.5;3.0;0.0;4.0;0.25;0.75;0.75;4.0;4.0;0.75;0.25;3.25;-0.229492;0.040527;0.965332;7.0;8.96;8.12;307.0;0.041362;-0.277155
3.94;0.0;0.0;0.0;0.0;0.0;0.0;0.0;0.0;0.5;0.75;0.5;1.5;0.0;1.5;0.0;0.25;-0.367676;0.046875;0.990723;-1.68;-54.459999;0.21;59.0;0.277895;-0.023279;0.0;1.25;0.25;1.75;0.5;2.75;0.0;3.75;0.25;0.75;0.75;4.0;4.0;0.25;0.5;3.25;-0.232422;0.055176;0.978027;5.46;9.38;10.01;295.0;0.046117;-0.282218
3.95;0.0;0.0;0.0;0.0;0.0;0.0;0.0;0.0;0.5;0.75;0.5;0.75;0.25;1.25;0.0;0.0;-0.345215;0.023926;0.972168;-8.26;-51.310001;0.28;48.0;0.0;0.0;0.25;1.0;0.25;2.0;0.5;2.5;0.0;3.25;0.0;0.5;0.5;3.25;3.25;0.5;0.75;2.75;-0.249512;0.066895;0.97168;3.78;8.54;10.99;261.0;0.032912;-0.275858
3.96;0.0;0.0;0.0;0.0;0.0;0.0;0.0;0.0;0.5;0.5;0.5;0.5;0.0;1.0;0.0;0.0;-0.343262;0.044434;0.95459;-14.28;-50.959999;1.12;37.0;0.0;0.0;0.25;1.5;0.25;2.5;0.5;2.25;0.0;3.25;0.25;0.5;0.5;2.5;3.25;0.25;0.5;2.25;-0.212891;0.098145;0.954102;1.19;4.62;9.1;256.0;0.001792;-0.269495
3.97;0.0;0.0;0.0;0.0;0.0;0.0;0.0;0.0;0.25;0.25;0.5;0.5;0.0;1.0;0.0;0.0;-0.342285;0.037109;0.907227;-16.379999;-51.450001;1.33;30.0;0.0;0.0;0.25;2.0;0.25;2.25;0.25;2.5;0.0;3.0;0.0;0.5;0.5;2.0;2.75;0.5;0.25;1.25;-0.191895;0.09082;0.946777;-1.54;-1.54;5.04;231.0;-0.028877;-0.27067
3.98;0.0;0.0;0.0;0.0;0.0;0.0;0.0;0.0;0.5;0.25;0.25;0.25;0.0;0.5;0.0;0.0;-0.386719;-0.041504;0.92334;-17.290001;-54.040001;2.45;22.0;0.0;0.0;0.0;2.5;0.25;2.25;0.25;2.75;0.0;2.75;0.25;0.25;0.25;0.75;2.25;0.25;0.5;1.0;-0.215332;0.083984;0.957031;-5.53;-8.4;0.63;208.0;-0.063115;-0.263755
3.99;0.0;0.0;0.0;0.0;0.0;0.0;0.0;0.0;0.25;0.25;0.5;0.0;0.0;0.5;0.0;0.0;-0.344238;-0.03418;0.916504;-19.040001;-57.330002;5.32;18.0;0.0;0.0;0.25;2.75;0.5;3.75;0.5;3.0;0.0;2.5;0.0;0.0;0.25;0.75;1.5;0.5;0.5;0.5;-0.191406;0.056641;0.95752;-8.47;-13.02;-1.4;223.0;-0.116874;-0.242852
4.0;0.0;0.0;0.0;0.0;0.0;0.0;0.0;0.0;0.25;0.5;0.25;0.25;0.0;0.5;0.0;0.0;-0.316406;0.022949;0.896484;-19.67;-62.16;8.12;21.0;0.0;0.0;0.5;4.5;0.75;4.5;0.5;4.5;0.0;2.5;0.25;0.0;0.25;0.5;1.0;0.5;0.25;0.25;-0.220703;0.043457;0.972168;-9.8;-14.7;-1.61;269.0;-0.165149;-0.21985
4.01;0.0;0.0;0.0;0.0;0.0;0.0;0.0;0.0;0.25;0.25;0.0;0.25;0.0;0.5;0.0;0.0;-0.263672;0.080566;0.90625;-15.12;-71.540001;6.58;15.0;0.0;0.0;0.75;6.0;2.25;5.75;1.5;5.5;0.0;2.5;0.0;0.25;0.25;0.25;0.5;0.0;0.25;0.25;-0.209473;0.034668;0.979004;-10.08;-14.42;-1.12;337.0;-0.207974;-0.191896
4.02;0.0;0.0;0.0;0.0;0.0;0.0;0.0;0.0;0.5;0.5;0.0;0.0;0.0;0.75;0.0;0.0;-0.268066;0.064941;0.916992;-9.03;-77.629997;1.68;22.0;0.0;0.0;2.0;8.5;4.0;7.75;2.5;6.25;0.0;2.25;0.0;0.0;0.25;0.25;0.75;0.0;0.25;0.25;-0.202148;0.035645;1.00293;-9.31;-13.3;-0.56;448.0;-0.234573;-0.162794
4.03;0.0;0.0;0.0;0.0;0.0;0.0;0.0;0.0;0.5;0.5;0.25;0.25;0.0;0.75;0.0;0.0;-0.251953;0.049316;0.976074;-3.15;-82.879997;-3.15;28.0;0.0;0.0;3.75;12.5;5.5;10.25;3.75;6.75;0.0;2.25;0.0;0.0;0.25;0.25;0.5;0.5;0.25;0.25;-0.213379;0.033203;1.005859;-7.28;-11.83;-0.14;592.0;-0.2506;-0.138797
4.04;0.0;0.0;0.0;0.0;0.0;0.0;0.0;0.0;0.75;0.5;0.5;0.25;0.0;0.5;0.0;0.0;-0.257812;0.025391;1.025391;4.97;-86.519997;-6.09;32.0;0.0;0.0;4.25;11.0;6.25;10.5;4.0;7.0;0.0;2.25;0.0;0.0;0.25;0.5;0.5;0.25;0.5;0.25;-0.187988;0.024902;0.992676;-5.39;-9.87;0.14;605.0;-0.243836;-0.133687
4.05;0.0;0.0;0.0;0.0;0.0;0.0;0.0;0.0;0.5;0.5;0.5;0.25;0.0;1.5;0.0;0.0;-0.269531;0.010742;1.081543;6.37;-85.540001;-7.42;39.0;0.0;0.0;5.0;12.0;7.25;9.75;4.5;7.5;0.0;2.5;0.0;0.0;0.0;0.5;0.25;0.0;0.25;0.5;-0.197754;0.029297;0.996094;-2.38;-7.14;1.19;637.0;-0.253372;-0.126602
4.06;0.0;0.0;0.0;0.0;0.0;0.0;0.0;0.0;0.75;0.75;0.5;0.25;0.0;1.0;0.0;0.0;-0.20166;0.009277;1.076172;1.4;-76.300003;-8.05;41.0;0.0;0.0;6.0;12.75;7.5;10.0;4.75;7.5;0.0;2.25;0.0;0.0;0.25;0.75;0.75;0.0;0.25;0.75;-0.204102;0.037109;0.998047;-0.35;-5.46;1.61;676.0;-0.250305;-0.123205
4.07;0.0;0.0;0.0;0.0;0.0;0.0;0.0;0.0;1.25;0.75;0.5;0.0;0.0;1.0;0.0;0.0;-0.189453;0.022461;1.000488;0.7;-28.77;1.61;45.0;0.0;0.0;6.75;12.5;7.75;10.0;4.25;7.5;0.0;2.25;0.0;0.0;0.0;0.75;0.75;0.0;0.5;0.75;-0.195312;0.038086;0.98584;1.19;-4.34;2.17;679.0;-0.252168;-0.12044
4.08;0.0;0.0;0.0;0.0;0.0;0.0;0.0;0.0;0.75;0.75;0.5;0.25;0.0;1.75;0.0;0.0;-0.182617;0.03125;0.989258;1.33;-26.67;-0.07;48.0;0.0;0.0;6.75;12.75;7.5;10.0;4.75;7.25;0.0;2.25;0.0;0.0;0.25;0.75;1.0;0.0;0.25;1.0;-0.203125;0.039062;0.998047;2.8;-3.71;2.45;686.0;-0.249837;-0.121064
4.09;0.0;0.0;0.0;0.0;0.0;0.0;0.0;0.0;0.75;0.75;0.5;0.5;0.0;1.25;0.0;0.0;-0.225098;0.033203;0.999512;-0.42;-20.93;-1.05;46.0;0.0;0.0;6.5;13.0;7.5;10.0;4.75;7.75;0.0;2.5;0.0;0.0;0.25;1.25;1.25;0.0;0.25;0.75;-0.205566;0.049316;0.985352;4.97;-3.92;2.87;704.0;-0.243144;-0.127767
4.1;0.0;0.0;0.25;0.0;0.0;0.0;0.0;0.0;0.75;0.75;0.5;0.25;0.0;1.5;0.0;0.0;-0.22168;0.025879;0.998047;-1.89;-16.450001;-0.7;49.0;0.0;0.0;6.75;13.0;7.25;10.0;4.0;7.5;0.0;2.75;0.0;0.0;0.0;1.75;1.25;0.0;0.25;0.75;-0.202637;0.050781;0.978027;7.35;-4.27;3.57;698.0;-0.242349;-0.133033
4.11;0.0;0.25;0.5;0.25;0.0;0.0;0.0;0.0;0.5;0.75;0.5;0.0;0.0;1.75;0.0;0.0;-0.192871;0.015137;1.001953;-1.75;-11.62;-0.49;54.0;0.169352;0.084881;6.75;11.5;7.0;9.75;3.25;7.25;0.0;2.75;0.0;0.0;0.25;1.75;1.25;0.0;0.25;1.0;-0.199707;0.056641;0.977539;8.26;-3.92;3.85;667.0;-0.236193;-0.135415
4.12;0.25;0.25;0.5;0.25;0.0;0.0;0.0;0.0;0.5;0.5;0.5;0.0;0.0;0.5;0.0;0.0;-0.201172;0.014648;1.000488;-1.05;-6.86;0.21;41.0;0.0;0.0;6.5;12.0;6.0;9.75;3.0;7.25;0.0;2.75;0.0;0.0;0.25;1.75;1.25;0.0;0.25;0.75;-0.191895;0.064453;0.974609;6.51;-2.8;3.43;651.0;-0.238368;-0.141997
4.13;0.5;0.25;0.5;0.25;0.25;0.0;0.0;0.0;0.75;0.5;0.5;0.0;0.0;0.5;0.0;0.0;-0.196289;0.027344;0.994141;-0.42;-2.59;0.77;51.0;0.024001;0.079065;5.0;11.5;5.75;10.25;2.5;7.0;0.0;2.75;0.0;0.0;0.5;1.5;1.25;0.0;0.25;1.0;-0.191406;0.0625;0.96875;3.08;-1.12;2.8;622.0;-0.232251;-0.15239
4.14;0.5;0.5;0.5;0.25;0.25;0.0;0.0;0.0;0.5;0.5;0.5;0.25;0.0;1.25;0.0;0.0;-0.204102;0.026367;0.995605;0.14;0.84;1.05;61.0;0.04709;0.048406;4.75;11.0;5.5;10.5;2.0;7.0;0.0;3.0;0.0;0.0;0.25;2.0;1.25;0.0;0.5;1.0;-0.193848;0.062988;0.956055;-2.03;1.4;1.89;618.0;-0.223951;-0.160593
4.15;0.5;0.5;0.5;0.25;0.0;0.0;0.0;0.0;0.5;0.5;0.5;0.25;0.0;1.75;0.0;0.0;-0.202637;0.025879;0.989258;0.28;3.5;1.05;63.0;0.085586;0.058162;4.75;10.5;5.0;10.25;2.25;6.75;0.0;2.75;0.0;0.0;0.5;2.25;1.25;0.0;0.75;1.0;-0.206055;0.048828;0.993652;-4.06;1.89;1.61;607.0;-0.215018;-0.159469
