Time;left pressure 1[N/cm²];left pressure 2[N/cm²];left pressure 3[N/cm²];left pressure 4[N/cm²];left pressure 5[N/cm²];left pressure 6[N/cm²];left pressure 7[N/cm²];left pressure 8[N/cm²];left pressure 9[N/cm²];left pressure 10[N/cm²];left pressure 11[N/cm²];left pressure 12[N/cm²];left pressure 13[N/cm²];left pressure 14[N/cm²];left pressure 15[N/cm²];left pressure 16[N/cm²];left acceleration X[g];left acceleration Y[g];left acceleration Z[g];left angular X[dps];left angular Y[dps];left angular Z[dps];left total force[N];left center of pressure X[-0.5...+0.5];left center of pressure Y[-0.5...+0.5];right pressure 1[N/cm²];right pressure 2[N/cm²];right pressure 3[N/cm²];right pressure 4[N/cm²];right pressure 5[N/cm²];right pressure 6[N/cm²];right pressure 7[N/cm²];right pressure 8[N/cm²];right pressure 9[N/cm²];right pressure 10[N/cm²];right pressure 11[N/cm²];right pressure 12[N/cm²];right pressure 13[N/cm²];right pressure 14[N/cm²];right pressure 15[N/cm²];right pressure 16[N/cm²];right acceleration X[g];right acceleration Y[g];right acceleration Z[g];right angular X[dps];right angular Y[dps];right angular Z[dps];right total force[N];right center of pressure X[-0.5...+0.5];right center of pressure Y[-0.5...+0.5]
0.0;7.75;6.75;5.5;4.25;1.0;0.5;0.25;0.25;1.5;0.75;1.0;0.75;0.5;1.5;0.5;0.5;-0.224609;0.025391;0.987793;-0.49;0.63;0.56;377.0;-0.20249;-0.019333;7.0;8.5;4.0;5.0;1.0;1.75;0.25;1.0;2.25;1.25;1.0;1.5;0.75;0.75;0.5;0.5;-0.257324;0.029297;0.97168;-0.91;-1.05;0.84;425.0;-0.181256;-0.0596
0.01;7.75;6.75;5.5;4.25;1.0;0.5;0.25;0.25;1.5;0.75;1.0;0.75;0.5;1.5;0.5;0.5;-0.224609;0.025391;0.987793;-0.49;0.63;0.56;377.0;-0.20249;-0.019333;6.75;8.0;4.25;4.75;1.0;1.5;0.25;1.0;2.25;1.25;1.0;1.5;0.75;1.0;0.5;0.5;-0.254883;0.030273;0.970215;-0.91;-1.05;0.84;417.0;-0.173651;-0.05433
0.02;7.75;6.75;5.5;4.25;1.0;0.5;0.25;0.25;1.5;0.75;1.0;0.75;0.5;1.5;0.5;0.5;-0.224609;0.025391;0.987793;-0.49;0.63;0.56;377.0;-0.20249;-0.019333;6.75;8.0;4.5;4.75;1.0;1.5;0.25;1.0;2.0;1.25;1.0;1.5;0.75;1.25;0.5;0.5;-0.254395;0.022949;0.971191;-0.84;-1.12;0.84;418.0;-0.174743;-0.054806
0.03;7.75;6.75;5.5;4.25;1.0;0.5;0.25;0.25;1.5;0.75;1.0;0.75;0.5;1.5;0.5;0.5;-0.224609;0.025391;0.987793;-0.49;0.63;0.56;377.0;-0.20249;-0.019333;7.0;8.0;5.0;5.0;1.0;1.5;0.25;1.0;2.25;1.5;1.0;1.25;0.75;1.0;0.5;0.5;-0.255371;0.023438;0.967285;-0.77;-1.05;0.84;432.0;-0.177721;-0.04901
0.04;7.75;6.75;5.5;4.25;1.0;0.5;0.25;0.25;1.5;0.75;1.0;0.75;0.5;1.5;0.5;0.5;-0.224609;0.025391;0.987793;-0.49;0.63;0.56;377.0;-0.20249;-0.019333;7.0;8.5;4.25;5.0;1.0;1.75;0.25;0.75;2.0;1.25;0.75;0.75;0.75;0.75;0.5;0.25;-0.259766;0.025391;0.96875;-0.77;-0.98;0.77;407.0;-0.200561;-0.051694
0.05;7.75;6.75;5.5;4.25;1.0;0.5;0.25;0.25;1.5;0.75;1.0;0.75;0.5;1.5;0.5;0.5;-0.224609;0.025391;0.987793;-0.49;0.63;0.56;377.0;-0.20249;-0.019333;6.5;8.5;4.25;5.0;1.0;1.5;0.25;1.0;2.0;1.25;0.75;1.25;0.75;0.75;0.5;0.25;-0.254395;0.023926;0.973145;-0.84;-1.12;0.91;409.0;-0.190414;-0.059212
0.06;7.75;7.25;5.5;4.5;1.0;0.5;0.25;0.25;1.5;0.5;0.5;0.5;0.25;1.5;0.5;0.5;-0.216309;0.019043;0.986328;-0.56;0.7;0.56;372.0;-0.221609;-0.017186;6.5;8.0;4.5;5.0;1.0;1.5;0.25;1.0;2.0;1.25;0.75;1.25;0.5;1.0;0.5;0.5;-0.256836;0.030762;0.971191;-0.84;-0.98;0.84;408.0;-0.184829;-0.054036
0.07;8.0;7.25;5.5;4.5;1.0;0.5;0.25;0.25;1.75;0.5;0.5;0.5;0.25;1.25;0.25;0.5;-0.21875;0.021973;0.987793;-0.56;0.7;0.56;373.0;-0.227189;-0.014148;6.5;8.0;4.25;4.75;1.0;1.25;0.25;1.0;2.0;1.5;0.75;1.5;0.75;1.0;0.5;0.25;-0.258789;0.025879;0.973145;-0.77;-0.98;0.77;406.0;-0.177863;-0.054555
0.08;8.0;6.75;5.5;4.25;1.0;0.5;0.25;0.25;1.5;0.5;0.5;0.5;0.25;1.0;0.25;0.25;-0.221191;0.023438;0.989746;-0.63;0.7;0.56;357.0;-0.235439;-0.013128;6.75;8.0;4.25;4.75;1.0;1.25;0.25;1.0;2.25;1.0;1.0;1.5;0.75;0.75;0.5;0.25;-0.25;0.02832;0.979004;-0.7;-0.98;0.77;407.0;-0.181986;-0.053938
0.09;7.75;6.75;5.5;4.25;1.0;0.5;0.25;0.25;1.5;0.5;0.5;0.5;0.5;1.25;0.25;0.25;-0.222656;0.02002;0.990234;-0.56;0.63;0.56;359.0;-0.227277;-0.015795;6.75;8.5;4.25;5.75;0.75;1.5;0.25;1.0;2.25;1.0;1.0;1.5;0.5;0.75;0.25;0.25;-0.256348;0.024902;0.970215;-0.7;-1.05;0.84;419.0;-0.19404;-0.06008
0.1;8.0;6.75;5.75;4.5;1.0;0.5;0.25;0.25;1.75;0.5;0.5;0.25;0.5;1.25;0.25;0.25;-0.22168;0.024902;0.987793;-0.63;0.77;0.49;369.0;-0.228152;-0.010668;6.75;8.5;4.25;5.25;1.0;1.5;0.25;1.0;2.25;1.0;1.0;1.5;0.75;1.0;0.25;0.25;-0.259766;0.02832;0.97168;-0.7;-0.98;0.84;420.0;-0.186831;-0.057799
0.11;8.25;7.25;5.5;4.5;0.75;0.5;0.0;0.25;1.25;0.5;0.5;0.25;0.5;1.5;0.25;0.5;-0.223145;0.023926;0.993652;-0.56;0.77;0.56;363.0;-0.239214;-0.021845;7.0;8.75;4.25;5.25;1.0;1.25;0.25;1.0;2.25;1.0;0.75;1.5;0.75;1.25;0.25;0.25;-0.256836;0.024414;0.973633;-0.7;-0.98;0.77;422.0;-0.189397;-0.054126
0.12;7.75;7.25;4.75;4.5;0.75;0.5;0.0;0.25;1.75;0.5;0.5;0.25;0.25;1.5;0.5;0.25;-0.225586;0.020996;0.986328;-0.56;0.7;0.56;355.0;-0.225909;-0.017172;7.0;8.5;4.5;5.0;1.0;1.5;0.25;1.0;2.25;1.0;0.75;1.25;0.75;0.75;0.25;0.25;-0.260742;0.025879;0.972656;-0.84;-0.98;0.91;415.0;-0.197095;-0.053643
0.13;7.75;7.25;5.25;4.25;1.0;0.5;0.0;0.25;1.75;0.5;0.5;0.25;0.25;1.25;0.25;0.25;-0.221191;0.023926;0.984375;-0.63;0.7;0.49;355.0;-0.234496;-0.01368;6.75;8.0;4.25;4.75;1.0;1.5;0.25;0.75;2.0;1.0;0.75;1.25;0.75;0.75;0.0;0.25;-0.257812;0.029785;0.975098;-0.7;-0.91;0.91;391.0;-0.202098;-0.05236
0.14;8.25;6.5;5.25;4.25;1.0;0.5;0.0;0.25;1.75;0.5;0.5;0.25;0.25;1.25;0.25;0.25;-0.220215;0.029297;0.991211;-0.56;0.7;0.49;354.0;-0.233303;-0.008458;7.0;8.0;4.0;4.75;1.0;1.5;0.25;1.0;2.25;1.0;0.75;1.25;0.75;0.75;0.25;0.25;-0.251953;0.026367;0.973633;-0.77;-0.91;0.84;401.0;-0.19262;-0.053123
0.15;8.25;7.25;6.0;4.5;1.0;0.75;0.0;0.25;1.75;0.5;0.5;0.25;0.25;1.25;0.25;0.25;-0.22168;0.020996;0.987793;-0.56;0.7;0.49;376.0;-0.237561;-0.013065;7.0;8.0;4.0;4.5;1.0;1.75;0.25;1.0;2.25;1.0;0.75;1.25;0.75;0.75;0.25;0.25;-0.251953;0.026367;0.966797;-0.7;-0.98;0.77;401.0;-0.191611;-0.053469
0.16;8.25;7.25;6.0;4.5;1.0;0.5;0.25;0.25;1.5;0.5;0.5;0.5;0.25;1.25;0.25;0.25;-0.225586;0.021973;0.989258;-0.56;0.77;0.56;377.0;-0.236033;-0.01311;7.0;8.5;4.0;5.0;1.0;1.75;0.25;1.0;2.25;1.0;1.0;1.25;0.75;0.75;0.25;0.25;-0.26123;0.025391;0.968262;-0.7;-1.12;0.84;415.0;-0.192853;-0.057744
0.17;7.75;6.5;5.75;4.5;1.0;0.5;0.25;0.25;1.75;0.5;0.5;0.5;0.25;1.25;0.25;0.25;-0.217285;0.022461;0.98291;-0.63;0.77;0.56;364.0;-0.224597;-0.009862;6.75;8.5;4.25;5.25;1.0;1.75;0.25;1.0;2.0;1.25;1.0;1.0;0.5;0.75;0.25;0.25;-0.253418;0.02832;0.971191;-0.7;-0.98;0.77;412.0;-0.198422;-0.057088
0.18;7.75;6.25;5.5;4.5;1.0;0.5;0.25;0.25;1.5;0.5;0.5;0.25;0.25;1.25;0.0;0.25;-0.220215;0.023926;0.98877;-0.56;0.77;0.63;349.0;-0.23655;-0.009557;6.75;8.5;4.5;6.0;1.0;1.75;0.25;1.0;2.0;1.0;0.75;1.25;0.75;1.0;0.25;0.25;-0.255859;0.020996;0.967285;-0.7;-0.98;0.77;426.0;-0.198443;-0.062564
0.19;8.25;6.75;5.75;4.75;0.75;0.5;0.25;0.25;1.5;0.75;0.5;0.25;0.25;1.25;0.25;0.25;-0.221191;0.023926;0.981934;-0.63;0.77;0.49;369.0;-0.234446;-0.011389;6.5;8.5;4.0;5.25;1.0;1.75;0.25;1.0;2.0;1.5;1.25;1.5;0.5;0.75;0.25;0.5;-0.254395;0.020508;0.976074;-0.63;-0.91;0.77;419.0;-0.183112;-0.063038
0.2;7.75;7.25;5.75;4.5;1.0;0.5;0.25;0.25;1.75;0.5;0.5;0.5;0.25;1.25;0.25;0.25;-0.214355;0.020996;0.985352;-0.63;0.77;0.56;372.0;-0.228505;-0.013042;6.5;8.0;4.0;4.5;1.0;1.75;0.25;1.0;2.25;1.0;1.0;1.25;0.75;0.75;0.0;0.25;-0.256348;0.030273;0.972168;-0.77;-0.91;0.84;395.0;-0.189906;-0.056035
0.21;7.75;7.25;6.0;4.75;0.75;0.5;0.25;0.25;1.75;0.5;0.5;0.25;0.25;0.75;0.25;0.25;-0.222656;0.021484;0.985352;-0.56;0.84;0.56;367.0;-0.24168;-0.014723;6.75;8.25;4.0;4.75;1.0;1.5;0.25;1.0;2.25;1.25;0.75;1.25;1.0;0.75;0.25;0.25;-0.256836;0.021973;0.969727;-0.77;-0.91;0.84;406.0;-0.187412;-0.056503
0.22;8.0;6.75;6.0;4.5;1.0;0.5;0.0;0.25;1.75;0.25;0.5;0.25;0.25;0.75;0.25;0.25;-0.22168;0.024414;0.992676;-0.7;0.98;0.63;358.0;-0.246666;-0.0128;6.5;8.5;4.25;4.5;1.0;1.25;0.25;1.0;2.25;1.5;1.0;1.25;0.75;0.75;0.5;0.5;-0.254395;0.030762;0.975586;-0.77;-1.05;0.84;410.0;-0.177508;-0.052798
0.23;8.25;6.75;5.75;4.25;1.0;0.5;0.0;0.25;1.75;0.25;0.75;0.25;0.25;1.0;0.25;0.25;-0.226074;0.019043;0.986816;-0.56;0.77;0.49;360.0;-0.23939;-0.010532;6.5;8.5;4.25;4.5;1.0;1.5;0.25;1.0;2.25;1.0;0.75;1.25;0.75;0.75;0.25;0.25;-0.256348;0.02832;0.974609;-0.77;-1.05;0.84;401.0;-0.192308;-0.054463
0.24;8.25;7.25;5.75;4.75;1.0;0.5;0.25;0.25;1.5;0.5;0.5;0.25;0.25;1.25;0.25;0.25;-0.227539;0.020508;0.985352;-0.56;0.77;0.49;374.0;-0.239638;-0.013464;6.5;8.5;4.0;4.75;1.0;1.5;0.25;0.75;2.25;1.5;0.75;1.5;0.75;0.75;0.25;0.25;-0.256348;0.029297;0.969727;-0.77;-1.05;0.91;405.0;-0.185383;-0.053394
0.25;7.75;7.25;5.5;4.75;1.0;0.5;0.25;0.25;1.75;0.5;0.25;0.5;0.25;1.25;0.25;0.25;-0.21875;0.020508;0.987793;-0.49;0.63;0.63;369.0;-0.232204;-0.014813;7.0;8.0;4.25;4.5;1.0;1.75;0.25;1.0;2.0;1.5;0.75;1.75;0.75;0.75;0.25;0.25;-0.255859;0.023926;0.973145;-0.77;-1.12;0.84;412.0;-0.184485;-0.057026
0.26;7.75;7.0;5.25;4.75;1.0;0.5;0.25;0.25;1.75;0.25;0.5;0.25;0.25;1.25;0.25;0.0;-0.222168;0.017578;0.991211;-0.56;0.7;0.56;359.0;-0.236709;-0.012573;7.0;8.25;4.0;5.0;1.0;1.75;0.25;0.75;2.25;1.5;0.75;1.75;0.75;0.75;0.25;0.25;-0.253906;0.022461;0.972656;-0.77;-0.91;0.91;417.0;-0.184716;-0.054985
0.27;8.25;6.5;5.75;4.75;0.75;0.5;0.0;0.25;1.5;0.25;0.5;0.25;0.5;1.25;0.25;0.25;-0.21875;0.019043;0.982422;-0.63;0.77;0.49;359.0;-0.241655;-0.017368;6.75;8.5;4.5;5.0;1.0;1.5;0.25;1.0;2.25;1.25;0.75;1.5;0.75;0.75;0.25;0.25;-0.260254;0.021484;0.966797;-0.7;-1.05;0.84;418.0;-0.189929;-0.055611
0.28;8.25;6.5;5.5;4.5;1.0;0.5;0.0;0.25;1.5;0.5;0.5;0.25;0.5;1.5;0.25;0.0;-0.21875;0.021484;0.983887;-0.63;0.63;0.56;359.0;-0.234539;-0.012758;6.75;8.5;4.5;5.0;1.0;1.5;0.25;0.75;2.25;1.25;1.0;1.25;0.75;0.75;0.0;0.5;-0.261719;0.02832;0.960449;-0.63;-0.98;0.77;413.0;-0.1938;-0.051702
0.29;8.25;7.25;5.75;4.25;1.0;0.5;0.25;0.25;1.5;0.25;0.5;0.25;0.25;1.25;0.25;0.25;-0.219238;0.020508;0.983398;-0.63;0.91;0.49;365.0;-0.242589;-0.010593;6.75;8.25;4.25;5.25;1.0;1.75;0.25;1.0;2.25;1.25;0.75;1.25;0.75;0.75;0.25;0.5;-0.253906;0.024902;0.97168;-0.7;-0.98;0.84;417.0;-0.18924;-0.058026
0.3;8.0;6.75;5.25;4.25;1.0;0.5;0.25;0.25;1.75;0.25;0.75;0.5;0.25;0.75;0.25;0.0;-0.22168;0.020508;0.991699;-0.56;0.7;0.49;354.0;-0.237047;-0.012549;6.75;8.5;4.5;5.25;1.0;1.5;0.25;1.0;2.25;1.25;0.75;1.25;0.75;0.75;0.25;0.5;-0.256836;0.026855;0.971191;-0.77;-1.12;0.84;420.0;-0.191422;-0.056083
0.31;7.75;6.75;5.0;4.25;1.0;0.75;0.0;0.25;1.75;0.25;0.5;0.5;0.25;0.25;0.25;0.25;-0.218262;0.020508;0.986328;-0.63;0.77;0.49;341.0;-0.248633;-0.022847;6.5;8.0;5.0;4.75;1.0;1.5;0.25;1.0;2.25;1.5;0.75;1.25;0.75;1.0;0.5;0.5;-0.257812;0.024414;0.971191;-0.77;-0.98;0.84;420.0;-0.176647;-0.049426
0.32;8.0;6.75;5.25;4.25;1.0;0.5;0.0;0.25;1.5;0.25;0.5;0.5;0.25;0.5;0.0;0.25;-0.224121;0.02002;0.988281;-0.63;0.84;0.56;340.0;-0.257247;-0.019814;6.75;8.5;4.5;4.5;0.75;1.5;0.25;1.0;2.0;1.25;1.0;1.25;0.75;1.0;0.5;0.5;-0.255859;0.030762;0.973145;-0.77;-0.98;0.84;412.0;-0.183229;-0.055401
0.33;8.25;6.25;5.25;4.5;0.75;0.5;0.0;0.0;1.5;0.25;0.5;0.5;0.25;0.75;0.25;0.25;-0.223145;0.021484;0.985352;-0.63;0.7;0.63;339.0;-0.250326;-0.013697;6.75;8.5;4.25;4.5;0.75;1.5;0.25;1.0;2.0;1.25;1.0;1.25;0.75;1.0;0.25;0.25;-0.256348;0.031738;0.97168;-0.77;-1.05;0.84;405.0;-0.188782;-0.055357
0.34;8.0;7.25;5.5;4.5;1.0;0.5;0.0;0.25;1.75;0.5;0.5;0.5;0.25;0.75;0.25;0.25;-0.222168;0.024902;0.987305;-0.63;0.77;0.49;363.0;-0.241273;-0.018297;6.5;8.5;4.25;4.75;1.0;1.5;0.25;1.0;2.0;1.5;1.0;1.25;0.75;1.0;0.25;0.25;-0.262207;0.027344;0.970703;-0.7;-1.05;0.84;411.0;-0.184592;-0.056048
0.35;8.0;7.0;5.25;4.5;1.0;0.5;0.0;0.25;1.5;0.5;0.5;0.5;0.25;1.0;0.25;0.25;-0.218262;0.022949;0.989258;-0.7;0.84;0.56;356.0;-0.24056;-0.019834;7.0;8.25;4.0;5.0;1.0;1.5;0.25;1.0;2.25;1.5;1.0;1.5;0.75;1.0;0.25;0.25;-0.257812;0.019531;0.967285;-0.84;-1.12;0.84;420.0;-0.179844;-0.054258
0.36;8.25;6.75;5.25;4.25;1.0;0.5;0.25;0.25;1.5;0.25;0.75;0.5;0.25;0.75;0.25;0.25;-0.219238;0.027344;0.985352;-0.63;0.84;0.56;355.0;-0.240851;-0.015729;7.0;8.25;4.25;5.0;1.0;1.5;0.25;1.0;2.25;1.25;0.75;1.5;1.0;1.0;0.25;0.25;-0.250977;0.025879;0.976074;-0.77;-0.98;0.77;420.0;-0.184114;-0.055879
0.37;7.75;6.75;5.25;4.75;1.0;0.5;0.0;0.25;1.5;0.25;0.5;0.25;0.25;0.75;0.25;0.25;-0.224121;0.022949;0.986816;-0.56;0.77;0.56;345.0;-0.250449;-0.021315;6.75;8.5;4.25;4.75;1.0;1.75;0.25;1.0;2.25;1.0;0.75;1.25;0.75;0.75;0.5;0.0;-0.259766;0.021484;0.969727;-0.77;-0.98;0.91;411.0;-0.191973;-0.055423
0.38;8.0;7.25;5.25;4.75;1.0;0.5;0.0;0.25;1.5;0.5;0.75;0.25;0.25;1.0;0.25;0.25;-0.217773;0.020508;0.987793;-0.63;0.77;0.42;361.0;-0.242072;-0.021115;6.75;8.5;4.25;5.25;1.0;1.5;0.25;1.0;2.25;1.0;0.75;1.25;0.75;0.75;0.25;0.25;-0.257324;0.020508;0.974121;-0.77;-1.05;0.77;412.0;-0.195833;-0.05706
0.39;8.0;6.25;5.25;4.5;1.0;0.5;0.0;0.25;1.5;0.5;0.75;0.25;0.25;1.25;0.25;0.25;-0.215332;0.020508;0.986816;-0.63;0.7;0.56;351.0;-0.232326;-0.013885;6.75;8.0;4.25;5.0;1.0;1.25;0.25;0.75;2.0;1.0;0.75;1.5;0.75;0.75;0.25;0.25;-0.254883;0.025391;0.97168;-0.77;-1.05;0.84;397.0;-0.195724;-0.053993
0.4;8.0;6.75;5.25;4.75;1.0;0.5;0.0;0.25;1.5;0.5;0.5;0.25;0.25;1.0;0.25;0.25;-0.22168;0.019531;0.992188;-0.49;0.63;0.56;353.0;-0.243369;-0.01828;7.0;8.0;4.25;4.5;1.0;1.25;0.25;0.75;2.25;1.25;1.0;1.5;0.75;1.0;0.5;0.25;-0.255371;0.022461;0.977539;-0.84;-1.05;0.84;408.0;-0.178149;-0.045964
0.41;8.25;7.25;5.25;4.75;1.0;0.5;0.0;0.25;1.5;0.5;0.75;0.25;0.25;1.0;0.25;0.25;-0.228027;0.021973;0.989258;-0.63;0.7;0.56;364.0;-0.243325;-0.020105;6.75;8.25;4.0;4.5;1.0;1.5;0.25;0.75;2.0;1.25;1.0;1.25;0.75;1.0;0.25;0.25;-0.260742;0.024414;0.972168;-0.91;-1.05;0.77;398.0;-0.188118;-0.051366
0.42;7.75;7.0;5.5;4.5;1.0;0.5;0.0;0.25;1.75;0.5;0.5;0.25;0.0;1.25;0.25;0.25;-0.216797;0.024414;0.987305;-0.63;0.84;0.56;357.0;-0.236587;-0.01054;7.0;8.0;4.0;4.5;1.0;1.5;0.25;1.0;2.25;1.25;1.0;1.25;0.75;1.0;0.25;0.25;-0.255859;0.024902;0.972656;-0.91;-1.05;0.84;406.0;-0.182483;-0.050159
0.43;8.25;6.75;5.5;4.75;1.0;0.5;0.0;0.25;1.5;0.5;0.5;0.5;0.25;1.5;0.5;0.25;-0.216797;0.021484;0.991699;-0.63;0.63;0.56;370.0;-0.227962;-0.016616;6.5;8.0;4.25;4.75;1.25;1.5;0.25;1.0;2.25;1.5;0.75;1.5;0.75;1.0;0.25;0.25;-0.253418;0.029297;0.969727;-0.91;-1.19;0.84;412.0;-0.177599;-0.052242
0.44;8.0;6.75;5.25;4.75;1.0;0.5;0.0;0.25;1.5;0.5;0.5;0.5;0.25;1.5;0.25;0.25;-0.21875;0.021973;0.98291;-0.63;0.77;0.56;361.0;-0.231318;-0.017975;6.75;8.5;4.25;5.0;0.75;1.75;0.25;1.0;2.0;1.25;0.75;1.5;0.75;0.75;0.5;0.25;-0.254883;0.026855;0.970215;-0.77;-1.05;0.77;414.0;-0.189289;-0.062115
0.45;8.0;6.75;5.75;4.75;0.75;0.75;0.25;0.25;1.75;0.5;0.75;0.5;0.25;1.25;0.0;0.5;-0.227051;0.02002;0.986328;-0.63;0.63;0.56;374.0;-0.227053;-0.015867;7.0;8.5;4.5;5.0;0.75;1.75;0.25;1.0;2.25;1.25;0.75;1.5;0.5;0.75;0.25;0.25;-0.256836;0.023926;0.970703;-0.91;-0.98;0.84;419.0;-0.193588;-0.054598
0.46;8.25;6.75;5.75;4.25;1.0;0.5;0.25;0.25;1.5;0.25;0.75;0.5;0.25;1.25;0.0;0.5;-0.219727;0.027832;0.986816;-0.56;0.7;0.56;364.0;-0.235593;-0.012194;7.0;8.25;4.0;4.75;1.0;1.75;0.25;1.0;2.25;1.25;0.75;1.25;0.5;0.75;0.0;0.25;-0.25;0.023926;0.974121;-0.77;-1.05;0.91;404.0;-0.19704;-0.052037
0.47;8.25;6.75;5.5;4.75;1.0;0.5;0.0;0.25;1.75;0.25;0.75;0.5;0.25;1.25;0.0;0.25;-0.220703;0.023926;0.98877;-0.63;0.77;0.49;365.0;-0.237358;-0.015378;6.75;8.25;4.25;5.0;1.0;1.25;0.25;1.0;2.25;1.25;0.75;1.5;0.75;0.75;0.0;0.25;-0.256836;0.024902;0.973145;-0.84;-1.05;0.84;407.0;-0.192445;-0.054237
0.48;8.25;6.25;5.5;4.75;1.0;0.5;0.0;0.25;1.5;0.25;0.5;0.5;0.25;1.25;0.25;0.25;-0.223633;0.024414;0.986816;-0.7;0.91;0.49;357.0;-0.238307;-0.015883;7.0;8.0;4.25;4.75;1.0;1.25;0.25;1.0;2.25;1.0;0.75;1.25;0.5;1.0;0.25;0.5;-0.255371;0.025391;0.972656;-0.84;-1.05;0.91;403.0;-0.190065;-0.047659
0.49;8.0;6.75;5.5;4.75;0.75;0.5;0.25;0.25;1.75;0.5;0.5;0.5;0.25;0.75;0.25;0.5;-0.222656;0.02002;0.986328;-0.63;0.84;0.49;363.0;-0.234078;-0.016854;7.0;8.0;4.25;4.75;1.0;1.25;0.25;0.75;2.25;1.25;1.0;1.25;0.5;1.25;0.5;0.5;-0.254395;0.025879;0.974121;-0.77;-1.05;0.84;409.0;-0.178375;-0.042826
0.5;8.25;7.25;5.75;4.25;1.0;0.5;0.0;0.25;1.75;0.25;0.5;0.5;0.0;0.75;0.25;0.5;-0.219238;0.019043;0.986816;-0.63;0.84;0.49;362.0;-0.246354;-0.013653;7.0;8.5;4.25;5.25;1.0;1.5;0.25;0.75;2.25;1.25;0.75;1.25;0.75;1.25;0.5;0.5;-0.249512;0.024902;0.968262;-0.91;-0.91;0.98;423.0;-0.183377;-0.050333
0.51;8.25;7.25;5.75;4.5;1.0;0.5;0.0;0.25;1.5;0.25;0.75;0.5;0.25;1.0;0.25;0.25;-0.220215;0.027832;0.990234;-0.7;0.84;0.49;367.0;-0.243525;-0.01943;7.0;8.5;4.0;4.25;1.25;1.5;0.25;1.0;2.25;1.0;0.75;1.25;0.75;1.0;0.5;0.5;-0.25293;0.022949;0.977539;-0.91;-1.05;0.84;410.0;-0.183869;-0.050999
0.52;8.25;6.75;5.75;4.75;1.0;0.5;0.0;0.25;1.5;0.5;0.25;0.5;0.25;1.5;0.25;0.25;-0.219727;0.025391;0.983887;-0.63;0.77;0.63;367.0;-0.236776;-0.014451;7.25;8.25;4.25;4.75;1.25;1.5;0.25;0.75;1.75;1.0;0.75;1.25;0.75;1.0;0.25;0.5;-0.254883;0.022461;0.97168;-0.91;-1.05;0.84;405.0;-0.199827;-0.052705
0.53;8.25;7.25;5.25;4.75;1.0;0.5;0.0;0.25;1.5;0.5;0.5;0.5;0.25;1.5;0.25;0.25;-0.222656;0.025391;0.983398;-0.63;0.7;0.56;369.0;-0.235171;-0.019026;7.0;8.25;4.0;5.0;1.0;1.75;0.25;1.0;1.75;1.0;0.5;1.25;0.5;1.0;0.25;0.5;-0.259277;0.021484;0.967773;-0.91;-0.98;0.77;401.0;-0.202011;-0.059367
0.54;8.25;7.25;5.75;4.75;0.75;0.5;0.0;0.25;1.75;0.5;0.25;0.5;0.25;1.25;0.5;0.5;-0.216797;0.026367;0.987793;-0.63;0.7;0.56;375.0;-0.232112;-0.017234;7.0;8.25;4.0;5.0;1.0;1.75;0.25;1.0;2.0;1.5;0.5;1.25;0.5;1.25;0.5;0.5;-0.259766;0.026367;0.972168;-0.91;-0.98;0.77;416.0;-0.184373;-0.053642
0.55;8.25;7.25;5.75;4.5;1.0;0.5;0.0;0.25;1.5;0.5;0.25;0.25;0.25;2.0;0.5;0.25;-0.220215;0.020996;0.987305;-0.63;0.84;0.63;374.0;-0.229221;-0.01077;7.25;8.5;4.0;4.5;1.0;1.25;0.25;1.0;2.0;1.25;0.5;1.25;0.75;0.75;0.25;0.25;-0.252441;0.024414;0.968262;-0.91;-0.98;0.84;399.0;-0.200463;-0.052126
0.56;8.25;7.25;5.5;4.5;1.0;0.5;0.0;0.25;1.5;0.5;0.5;0.25;0.25;1.5;0.25;0.25;-0.220703;0.018066;0.985352;-0.63;0.77;0.56;366.0;-0.238493;-0.014257;7.25;8.25;4.25;5.25;1.0;1.5;0.25;1.0;2.0;1.0;0.5;1.25;0.75;0.75;0.0;0.25;-0.257812;0.02002;0.976074;-0.98;-1.12;0.91;406.0;-0.208561;-0.056398
0.57;8.0;7.25;5.5;4.75;1.0;0.5;0.0;0.25;1.75;0.5;0.25;0.25;0.25;1.0;0.25;0.25;-0.222168;0.026367;0.991211;-0.7;0.77;0.56;362.0;-0.244738;-0.015772;7.25;8.5;5.0;5.25;1.0;1.25;0.25;1.0;2.0;1.0;0.75;1.25;0.5;0.75;0.25;0.25;-0.258301;0.025879;0.976074;-0.84;-0.91;0.77;418.0;-0.206395;-0.050636
0.58;7.75;7.0;5.75;4.25;1.0;0.5;0.25;0.25;1.75;0.5;0.5;0.25;0.5;1.25;0.25;0.25;-0.217285;0.027832;0.98877;-0.56;0.7;0.56;366.0;-0.227609;-0.010909;7.5;8.5;5.0;5.25;1.0;1.75;0.25;1.0;2.0;1.0;0.5;1.25;0.75;1.0;0.5;0.5;-0.259277;0.026367;0.966309;-0.91;-0.91;0.84;433.0;-0.198431;-0.054333
0.59;8.25;7.0;5.75;4.5;0.75;0.5;0.25;0.25;1.5;0.5;0.5;0.5;0.25;1.25;0.25;0.25;-0.221191;0.02002;0.988281;-0.56;0.7;0.49;368.0;-0.235455;-0.013518;7.5;8.5;5.0;5.25;1.0;1.5;0.25;1.0;2.0;1.0;0.75;1.25;0.75;0.75;0.25;0.5;-0.258301;0.026855;0.975098;-0.91;-1.05;0.84;428.0;-0.203291;-0.054297
0.6;8.25;7.0;5.5;4.5;1.0;0.5;0.25;0.25;1.5;0.25;0.5;0.25;0.25;1.25;0.25;0.25;-0.22168;0.020996;0.987793;-0.56;0.77;0.49;362.0;-0.241558;-0.012125;7.5;8.25;4.0;5.25;1.0;1.5;0.25;0.75;2.0;1.0;1.0;1.25;0.75;0.75;0.25;0.5;-0.253418;0.023438;0.972656;-0.98;-1.05;0.77;412.0;-0.199093;-0.054882
0.61;7.75;7.0;5.25;4.5;1.0;0.5;0.25;0.25;1.5;0.25;0.25;0.25;0.25;1.75;0.25;0.25;-0.217285;0.022461;0.984863;-0.56;0.84;0.42;355.0;-0.233995;-0.011607;7.25;8.25;4.25;5.25;1.0;1.25;0.25;0.75;1.75;1.0;0.75;1.25;0.75;0.75;0.25;0.25;-0.258301;0.02832;0.973145;-0.98;-1.12;0.84;401.0;-0.20766;-0.054869
0.62;8.0;7.25;5.25;4.25;1.0;0.5;0.25;0.25;1.5;0.25;0.5;0.25;0.25;1.25;0.25;0.25;-0.220703;0.026855;0.990723;-0.56;0.84;0.49;356.0;-0.24092;-0.013254;7.0;8.25;4.5;5.0;1.0;1.25;0.25;0.75;2.0;1.0;0.5;1.25;0.5;0.75;0.0;0.25;-0.254883;0.021484;0.97168;-0.98;-1.12;0.77;394.0;-0.21176;-0.047574
0.63;7.75;7.25;5.25;4.75;1.0;0.5;0.25;0.25;1.5;0.25;0.5;0.25;0.25;1.25;0.25;0.25;-0.223633;0.023926;0.98584;-0.56;0.84;0.56;359.0;-0.240419;-0.017749;7.25;8.5;4.0;5.0;1.0;1.5;0.25;0.75;2.0;1.0;0.5;1.5;0.5;0.25;0.0;0.25;-0.256348;0.025879;0.97168;-0.98;-1.05;0.84;394.0;-0.217439;-0.055489
0.64;8.25;7.25;5.5;4.5;0.75;0.5;0.25;0.25;1.5;0.25;0.5;0.25;0.25;1.25;0.25;0.25;-0.224609;0.024414;0.981934;-0.63;0.91;0.56;362.0;-0.243741;-0.013807;7.25;8.25;4.0;5.0;1.0;1.75;0.25;0.75;2.0;1.0;0.75;1.5;0.5;0.25;0.25;0.0;-0.252441;0.023926;0.972168;-0.98;-1.19;0.84;399.0;-0.210174;-0.056077
0.65;8.0;7.25;5.25;4.75;0.75;0.5;0.25;0.25;1.5;0.25;0.5;0.25;0.25;1.25;0.25;0.25;-0.224121;0.021973;0.984375;-0.56;0.91;0.56;359.0;-0.242665;-0.017412;7.25;8.5;5.0;5.0;1.0;1.75;0.25;0.75;2.0;1.0;0.75;1.5;0.75;0.5;0.25;0.25;-0.253418;0.027344;0.970215;-0.98;-1.12;0.91;420.0;-0.205437;-0.054405
0.66;8.25;6.75;5.25;4.75;0.75;0.5;0.25;0.25;1.5;0.25;0.5;0.25;0.25;0.75;0.25;0.25;-0.217285;0.024902;0.98877;-0.56;0.84;0.49;352.0;-0.250104;-0.016841;7.5;8.75;5.0;5.25;1.0;1.5;0.25;0.75;1.75;1.0;0.75;1.0;0.5;0.75;0.25;0.25;-0.249512;0.02832;0.969727;-0.98;-1.05;0.84;416.0;-0.217419;-0.049522
0.67;8.25;7.0;5.5;4.75;0.75;0.5;0.25;0.25;1.75;0.25;0.5;0.25;0.25;1.0;0.25;0.25;-0.220215;0.024414;0.984375;-0.49;0.7;0.63;364.0;-0.242175;-0.01288;7.5;8.75;5.0;5.5;1.0;1.5;0.25;1.0;2.0;1.0;0.5;0.75;0.5;0.75;0.25;0.25;-0.255371;0.025879;0.97168;-0.98;-1.12;0.84;421.0;-0.217795;-0.049269
0.68;8.0;7.25;5.75;4.75;0.75;0.5;0.25;0.25;1.25;0.25;0.5;0.25;0.25;0.75;0.0;0.5;-0.228516;0.022461;0.988281;-0.56;0.84;0.63;356.0;-0.259364;-0.021777;8.0;8.5;4.5;5.0;1.0;1.5;0.25;0.75;2.0;1.0;0.5;1.0;0.75;0.75;0.25;0.25;-0.255859;0.023438;0.96875;-0.84;-0.91;0.77;413.0;-0.214293;-0.046503
0.69;8.25;6.75;5.5;4.75;0.75;0.5;0.25;0.25;1.25;0.25;0.5;0.25;0.25;0.75;0.25;0.25;-0.214844;0.023926;0.987793;-0.56;0.98;0.49;352.0;-0.255389;-0.018882;7.75;8.5;4.5;5.25;1.0;1.5;0.25;0.75;2.0;1.0;0.5;1.0;0.5;0.75;0.5;0.25;-0.256836;0.026855;0.972168;-0.98;-1.12;0.84;414.0;-0.211407;-0.046743
0.7;7.75;6.75;5.5;4.75;0.75;0.5;0.25;0.25;1.5;0.5;0.5;0.25;0.25;0.75;0.25;0.25;-0.214844;0.018066;0.987793;-0.63;0.91;0.56;352.0;-0.24382;-0.01729;7.5;8.5;4.5;5.25;1.25;1.5;0.25;0.75;2.0;1.25;0.5;1.0;0.5;0.75;0.5;0.5;-0.256836;0.021484;0.976562;-0.84;-1.05;0.91;418.0;-0.204396;-0.047213
0.71;7.75;7.25;5.5;4.25;0.75;0.5;0.25;0.25;1.5;0.25;0.5;0.25;0.25;1.0;0.25;0.25;-0.223145;0.015137;0.986816;-0.63;0.91;0.56;351.0;-0.245135;-0.015249;7.25;9.0;4.25;5.25;1.0;1.5;0.25;0.75;2.0;1.25;0.75;1.25;0.75;0.75;0.25;0.25;-0.254395;0.023926;0.966797;-0.77;-1.05;0.84;418.0;-0.20403;-0.054809
0.72;8.0;7.25;5.5;4.25;1.0;0.5;0.25;0.25;1.5;0.25;0.5;0.5;0.25;1.25;0.25;0.25;-0.224121;0.025879;0.979492;-0.63;0.84;0.49;362.0;-0.237544;-0.01464;7.5;8.75;5.0;5.25;1.0;1.75;0.25;1.0;2.25;1.0;0.75;1.25;0.5;0.75;0.0;0.25;-0.256348;0.024902;0.973145;-0.7;-1.05;0.77;430.0;-0.208416;-0.050425
0.73;8.0;7.25;5.5;4.25;1.0;0.5;0.25;0.25;1.5;0.25;0.5;0.5;0.25;1.25;0.25;0.25;-0.223145;0.022949;0.986816;-0.56;0.84;0.42;362.0;-0.237544;-0.01464;7.75;8.75;5.0;5.0;1.0;1.75;0.25;1.0;2.25;1.25;0.5;1.0;0.5;1.0;0.25;0.25;-0.256348;0.025391;0.969727;-0.77;-0.98;0.84;432.0;-0.204429;-0.044341
0.74;8.25;7.25;5.5;4.25;0.75;0.5;0.25;0.25;1.5;0.25;0.5;0.5;0.25;1.25;0.0;0.25;-0.217285;0.016602;0.985352;-0.56;0.77;0.63;359.0;-0.244941;-0.013762;7.5;8.75;4.5;5.25;0.75;1.25;0.25;0.75;2.0;1.25;0.5;1.0;0.5;0.75;0.0;0.25;-0.25293;0.026855;0.973633;-0.77;-0.98;0.91;405.0;-0.218014;-0.046435
0.75;8.25;5.75;5.5;4.25;0.75;0.5;0.25;0.25;1.5;0.25;0.75;0.5;0.25;1.0;0.25;0.25;-0.217285;0.019043;0.986816;-0.49;0.98;0.56;347.0;-0.232593;-0.009812;8.0;8.75;5.0;5.25;1.0;1.25;0.25;1.0;2.0;1.0;0.75;1.25;0.5;0.5;0.0;0.25;-0.265625;0.027832;0.968262;-0.77;-1.05;0.91;424.0;-0.219123;-0.049167
0.76;8.25;6.0;5.5;4.25;0.75;0.5;0.25;0.25;1.5;0.5;0.75;0.25;0.25;0.5;0.25;0.25;-0.224609;0.025391;0.98877;-0.56;0.63;0.56;345.0;-0.242411;-0.010481;7.75;8.5;5.0;5.25;1.0;1.25;0.25;0.75;2.0;1.25;0.75;1.25;0.5;0.75;0.25;0.25;-0.256836;0.02002;0.974609;-0.77;-1.19;0.7;423.0;-0.207938;-0.044369
0.77;8.25;6.5;5.5;4.25;1.0;0.5;0.25;0.25;1.5;0.25;0.5;0.25;0.25;0.75;0.0;0.5;-0.217285;0.025391;0.984863;-0.56;0.77;0.63;348.0;-0.250129;-0.011301;7.75;8.5;4.5;5.0;1.0;1.5;0.25;0.75;2.0;1.0;0.75;1.25;0.5;0.5;0.25;0.25;-0.258789;0.027344;0.971191;-0.77;-1.05;0.91;411.0;-0.212701;-0.048689
0.78;8.5;7.25;5.75;4.75;1.0;0.5;0.25;0.25;1.5;0.25;0.5;0.25;0.25;0.75;0.0;0.25;-0.21875;0.025391;0.986816;-0.7;0.7;0.49;366.0;-0.25796;-0.015006;7.25;8.5;4.5;5.25;1.0;1.75;0.25;1.0;1.75;1.0;0.75;1.5;0.75;0.5;0.25;0.5;-0.254883;0.026367;0.971191;-0.84;-1.05;0.84;419.0;-0.205173;-0.064792
0.79;8.0;6.75;5.5;4.5;1.0;0.5;0.25;0.25;1.5;0.25;0.5;0.25;0.25;0.25;0.25;0.0;-0.225098;0.026367;0.986816;-0.56;0.77;0.49;346.0;-0.259079;-0.015794;7.25;8.75;4.25;5.25;1.0;1.75;0.25;1.0;2.0;1.0;0.5;1.25;0.75;0.75;0.25;0.25;-0.250488;0.026367;0.96875;-0.77;-0.98;0.84;417.0;-0.206439;-0.059445
0.8;8.25;7.25;5.25;4.5;0.75;0.5;0.25;0.25;1.5;0.5;0.5;0.25;0.25;0.25;0.25;0.25;-0.225586;0.022461;0.985352;-0.49;0.56;0.56;352.0;-0.256942;-0.019119;7.75;8.5;5.0;5.5;0.75;1.5;0.25;0.75;2.0;1.0;0.75;1.25;0.75;0.75;0.25;0.25;-0.257812;0.020996;0.972168;-0.84;-1.05;0.84;425.0;-0.209601;-0.051023
0.81;8.25;6.75;5.5;4.5;1.0;0.5;0.25;0.25;1.5;0.5;0.5;0.25;0.25;0.75;0.25;0.25;-0.226562;0.025391;0.989746;-0.7;0.7;0.56;358.0;-0.244981;-0.012899;7.5;8.5;4.5;5.5;1.0;1.5;0.25;0.75;2.0;1.25;0.75;1.25;0.75;0.25;0.25;0.25;-0.255859;0.026855;0.966309;-0.7;-1.05;0.84;417.0;-0.210721;-0.05511
0.82;8.25;6.75;5.5;4.5;1.0;0.5;0.0;0.25;1.5;0.5;0.5;0.25;0.25;1.0;0.25;0.25;-0.21875;0.023926;0.991699;-0.56;0.63;0.49;356.0;-0.244457;-0.01461;7.5;8.5;4.5;5.0;1.0;1.5;0.25;0.75;2.0;1.25;0.75;1.0;0.75;0.5;0.5;0.25;-0.256348;0.026855;0.977051;-0.63;-0.98;0.84;414.0;-0.204749;-0.049855
0.83;8.25;6.75;5.5;4.75;1.0;0.5;0.25;0.25;1.5;0.5;0.5;0.25;0.5;1.0;0.25;0.25;-0.224609;0.020508;0.98877;-0.7;0.77;0.42;366.0;-0.238489;-0.016316;7.5;8.5;4.25;5.0;1.0;1.5;0.25;0.75;2.0;0.75;0.5;1.5;0.75;0.75;0.25;0.5;-0.252441;0.025391;0.973633;-0.63;-0.98;0.77;409.0;-0.206407;-0.054915
0.84;8.25;6.5;5.5;4.75;0.75;0.5;0.0;0.25;1.5;0.5;0.25;0.25;0.25;1.0;0.25;0.25;-0.224609;0.026367;0.986328;-0.56;0.63;0.49;351.0;-0.248441;-0.015143;7.5;8.5;4.25;5.0;1.0;1.5;0.25;1.0;2.25;1.0;0.5;1.25;0.75;0.75;0.25;0.5;-0.255859;0.027344;0.975098;-0.63;-1.05;0.84;417.0;-0.200318;-0.052979
0.85;8.0;7.25;5.25;4.5;0.75;0.5;0.0;0.25;1.25;0.5;0.5;0.5;0.25;1.25;0.25;0.25;-0.223145;0.025391;0.987305;-0.63;0.84;0.56;354.0;-0.243528;-0.02324;7.75;8.75;4.25;5.0;1.0;1.75;0.25;1.0;2.25;1.5;0.75;1.5;0.75;0.25;0.25;0.5;-0.255859;0.020996;0.979004;-0.63;-1.05;0.91;432.0;-0.197812;-0.057073
0.86;8.25;7.0;5.5;4.25;1.0;0.5;0.25;0.25;1.5;0.25;0.5;0.5;0.5;1.25;0.25;0.25;-0.224609;0.017578;0.986816;-0.7;0.7;0.49;365.0;-0.234964;-0.01552;7.25;8.5;5.0;5.0;1.0;1.5;0.25;1.0;2.25;1.25;0.75;1.5;0.5;0.25;0.0;0.5;-0.257324;0.022949;0.972168;-0.7;-0.98;0.84;422.0;-0.204659;-0.052334
0.87;8.25;7.25;5.25;4.75;1.0;0.5;0.25;0.25;1.75;0.25;0.5;0.5;0.25;1.25;0.25;0.25;-0.22168;0.023926;0.987305;-0.63;0.77;0.63;371.0;-0.234628;-0.015164;7.75;8.0;4.25;5.25;1.0;1.5;0.25;1.0;2.0;1.0;0.75;1.25;0.75;0.5;0.25;0.25;-0.258789;0.029785;0.972656;-0.56;-1.05;0.77;413.0;-0.206164;-0.05537
0.88;8.25;6.25;5.25;4.5;1.0;0.5;0.25;0.25;1.75;0.25;0.5;0.5;0.25;1.25;0.0;0.25;-0.217773;0.020996;0.992188;-0.63;0.7;0.56;355.0;-0.234198;-0.008571;7.5;8.0;4.5;5.0;1.0;1.5;0.25;1.0;2.0;1.25;0.75;1.25;0.75;0.5;0.5;0.25;-0.256348;0.021973;0.970215;-0.7;-0.98;0.84;416.0;-0.197384;-0.053574
0.89;8.25;6.25;5.5;4.5;1.0;0.5;0.25;0.25;1.75;0.25;0.75;0.5;0.25;1.25;0.25;0.25;-0.225098;0.024414;0.982422;-0.56;0.77;0.42;364.0;-0.225793;-0.009174;7.5;8.25;4.5;5.0;1.25;1.5;0.25;1.0;2.0;1.0;0.75;1.0;0.5;0.75;0.5;0.25;-0.254883;0.029297;0.973145;-0.56;-1.05;0.77;415.0;-0.202678;-0.048946
0.9;7.75;6.25;5.5;4.75;0.75;0.5;0.25;0.25;1.75;0.0;0.75;0.5;0.25;1.25;0.25;0.25;-0.223633;0.024414;0.987305;-0.7;0.84;0.49;356.0;-0.228064;-0.01405;7.75;8.25;4.25;5.0;1.0;1.5;0.25;1.0;2.0;1.0;0.75;1.25;0.5;0.75;0.5;0.25;-0.254395;0.025879;0.972168;-0.7;-1.05;0.91;415.0;-0.201286;-0.051396
0.91;8.0;7.25;5.25;4.75;0.75;0.5;0.25;0.25;1.5;0.25;0.75;0.5;0.25;1.25;0.25;0.5;-0.223145;0.026367;0.988281;-0.7;0.77;0.56;366.0;-0.233012;-0.02157;7.0;8.25;4.5;5.0;1.0;1.5;0.25;1.0;2.0;1.0;0.75;1.25;0.75;0.75;0.5;0.25;-0.258301;0.026855;0.97168;-0.63;-1.05;0.77;412.0;-0.195482;-0.056
0.92;8.0;7.25;5.25;4.5;0.75;0.5;0.25;0.25;1.25;0.25;0.75;0.25;0.25;1.25;0.0;0.25;-0.220703;0.021973;0.988281;-0.63;0.91;0.56;352.0;-0.248834;-0.01888;7.0;8.0;4.25;5.25;1.0;1.5;0.25;1.0;2.0;1.25;0.75;1.25;0.5;0.75;0.25;0.25;-0.254395;0.021973;0.970215;-0.56;-0.98;0.84;407.0;-0.19758;-0.054283
0.93;8.0;7.25;5.5;4.75;1.0;0.5;0.25;0.25;1.5;0.25;0.75;0.5;0.25;1.25;0.25;0.25;-0.219727;0.022461;0.97998;-0.63;0.63;0.56;371.0;-0.234778;-0.01882;7.5;8.25;4.0;5.0;1.0;1.5;0.25;1.0;2.25;1.25;0.75;1.5;0.5;0.75;0.25;0.25;-0.257324;0.025879;0.972656;-0.49;-0.98;0.77;416.0;-0.193838;-0.05141
0.94;8.25;7.25;5.5;4.75;0.75;0.5;0.25;0.25;2.0;0.5;0.75;0.5;0.25;1.5;0.25;0.25;-0.221191;0.018066;0.985352;-0.63;0.7;0.49;383.0;-0.220256;-0.011224;7.0;8.5;4.5;5.25;1.0;1.5;0.25;1.0;2.25;1.25;0.75;1.5;0.5;0.5;0.5;0.25;-0.257812;0.028809;0.974121;-0.49;-0.91;0.84;422.0;-0.193312;-0.05491
0.95;8.25;7.25;5.5;4.75;1.0;0.5;0.25;0.25;1.75;0.25;0.5;0.5;0.25;1.25;0.25;0.25;-0.220703;0.023438;0.98291;-0.63;0.7;0.49;374.0;-0.234879;-0.014313;6.5;8.5;4.5;5.25;1.0;1.5;0.25;0.75;2.0;1.0;0.75;1.25;0.5;0.5;0.5;0.25;-0.252441;0.020508;0.971191;-0.63;-0.98;0.7;403.0;-0.202158;-0.055767
0.96;8.25;7.25;5.5;4.5;1.0;0.5;0.25;0.25;1.75;0.25;0.5;0.5;0.25;1.25;0.25;0.25;-0.219727;0.021484;0.987305;-0.63;0.7;0.56;371.0;-0.234454;-0.012613;6.5;8.25;4.25;5.0;0.75;1.25;0.25;1.0;2.0;1.0;1.0;1.25;0.5;0.75;0.25;0.25;-0.254883;0.027344;0.974121;-0.56;-0.98;0.77;395.0;-0.196324;-0.056567
0.97;8.25;7.25;5.25;4.5;0.75;0.5;0.25;0.25;1.5;0.25;0.75;0.25;0.5;1.25;0.25;0.25;-0.220703;0.022949;0.986816;-0.56;0.7;0.49;364.0;-0.237197;-0.018368;6.5;8.25;4.25;5.0;1.0;1.5;0.25;1.0;2.0;1.25;0.5;1.25;0.75;0.75;0.5;0.25;-0.259766;0.025879;0.974609;-0.63;-0.98;0.84;403.0;-0.191953;-0.058142
0.98;8.25;7.25;5.25;4.5;0.75;0.25;0.25;0.25;1.5;0.25;0.75;0.25;0.25;1.5;0.25;0.25;-0.221191;0.025391;0.987793;-0.7;0.7;0.63;361.0;-0.236371;-0.01212;6.5;8.0;4.25;4.75;1.0;1.75;0.25;1.0;2.25;1.25;0.5;1.25;0.75;0.75;0.5;0.25;-0.256836;0.021973;0.973633;-0.7;-1.05;0.84;404.0;-0.185586;-0.054872
0.99;8.25;6.75;5.25;4.5;1.0;0.25;0.25;0.25;1.5;0.25;0.5;0.5;0.25;1.0;0.25;0.25;-0.223145;0.020508;0.986328;-0.63;0.7;0.56;354.0;-0.241477;-0.013264;6.5;8.25;5.0;4.5;1.25;1.5;0.25;1.0;2.25;1.25;0.75;1.5;0.75;0.25;0.5;0.5;-0.255859;0.027832;0.967285;-0.56;-1.05;0.84;416.0;-0.186985;-0.054356
1.0;8.0;7.25;5.25;4.75;1.0;0.5;0.25;0.25;1.5;0.5;0.5;0.5;0.25;1.0;0.0;0.25;-0.22168;0.024902;0.987793;-0.63;0.7;0.56;363.0;-0.243652;-0.019073;7.0;8.0;4.25;4.75;1.0;1.75;0.25;1.0;2.0;1.25;0.75;1.25;0.75;0.25;0.5;0.25;-0.249023;0.025391;0.971191;-0.7;-1.05;0.84;405.0;-0.196491;-0.058591
1.01;7.75;7.0;5.25;4.5;0.75;0.5;0.25;0.25;1.5;0.25;0.5;0.5;0.25;0.75;0.25;0.25;-0.227051;0.018066;0.987305;-0.56;0.7;0.56;349.0;-0.244707;-0.020475;6.5;8.25;4.0;4.75;1.0;1.75;0.25;1.0;2.25;1.5;0.75;1.25;0.75;0.5;0.25;0.25;-0.256836;0.023438;0.974121;-0.63;-0.98;0.84;404.0;-0.188158;-0.057391
1.02;7.75;6.25;5.25;4.5;1.0;0.5;0.25;0.25;1.5;0.25;0.5;0.25;0.0;0.5;0.25;0.25;-0.217285;0.022949;0.986816;-0.63;0.77;0.56;337.0;-0.251092;-0.012402;6.75;8.25;4.0;4.5;1.0;1.5;0.25;0.75;2.0;1.0;0.75;1.5;0.75;0.75;0.25;0.5;-0.249023;0.022461;0.969727;-0.77;-0.98;0.91;394.0;-0.192784;-0.055845
1.03;8.25;6.75;5.5;4.5;1.0;0.5;0.25;0.25;1.5;0.25;0.5;0.25;0.25;0.5;0.25;0.25;-0.221191;0.022949;0.985352;-0.63;0.7;0.56;353.0;-0.253216;-0.014771;6.5;8.5;4.0;4.75;1.0;1.75;0.25;1.0;2.0;1.0;0.75;1.25;0.75;0.75;0.25;0.5;-0.259277;0.024414;0.972168;-0.63;-0.91;0.77;401.0;-0.194124;-0.062332
1.04;8.25;7.25;5.25;4.5;1.0;0.25;0.0;0.25;1.75;0.25;0.5;0.25;0.25;0.75;0.25;0.25;-0.21875;0.022949;0.982422;-0.63;0.63;0.56;354.0;-0.25065;-0.014465;7.0;8.5;4.0;4.75;1.0;1.75;0.25;0.75;2.0;1.0;0.75;1.0;0.75;0.75;0.25;0.5;-0.259277;0.027832;0.977539;-0.7;-1.19;0.84;400.0;-0.201879;-0.054801
1.05;8.25;7.25;5.5;4.25;1.0;0.25;0.0;0.25;1.75;0.5;0.75;0.25;0.25;1.25;0.25;0.25;-0.22168;0.019043;0.985352;-0.56;0.7;0.49;364.0;-0.234435;-0.009597;6.75;8.5;4.0;4.5;0.75;1.5;0.25;0.75;2.0;1.0;0.75;1.0;0.5;0.75;0.25;0.5;-0.256348;0.021973;0.97168;-0.63;-1.05;0.77;386.0;-0.20298;-0.051419
1.06;8.25;6.5;5.25;4.75;1.0;0.5;0.25;0.25;1.75;0.25;0.5;0.0;0.25;1.25;0.25;0.25;-0.221191;0.019531;0.987793;-0.7;0.84;0.49;358.0;-0.237926;-0.007456;6.5;8.5;4.0;4.75;1.0;1.5;0.25;1.0;2.25;1.5;0.75;1.25;0.5;0.25;0.5;0.5;-0.258301;0.026367;0.976562;-0.77;-0.98;0.84;404.0;-0.189147;-0.056591
1.07;8.0;6.5;5.25;4.75;1.0;0.5;0.25;0.25;1.75;0.5;0.5;0.25;0.0;1.25;0.25;0.25;-0.220703;0.021973;0.986816;-0.56;0.7;0.56;359.0;-0.231911;-0.007144;6.0;8.5;4.0;4.75;1.0;1.5;0.25;1.0;2.25;1.25;0.75;1.25;0.5;0.25;0.25;0.5;-0.254883;0.026367;0.969238;-0.7;-1.05;0.77;392.0;-0.193532;-0.059664
1.08;8.25;6.75;5.75;4.75;1.0;0.5;0.25;0.25;1.5;0.5;0.5;0.25;0.25;1.5;0.25;0.25;-0.21875;0.019531;0.984375;-0.63;0.63;0.63;371.0;-0.233153;-0.010194;6.5;7.5;4.25;4.75;1.0;1.5;0.25;0.75;2.0;1.25;0.75;1.25;0.5;0.75;0.25;0.5;-0.253418;0.024414;0.968262;-0.7;-0.98;0.84;388.0;-0.190196;-0.049937
1.09;8.25;6.75;5.5;4.5;0.75;0.5;0.25;0.25;1.5;0.5;0.5;0.25;0.0;1.0;0.25;0.25;-0.21875;0.017578;0.986816;-0.63;0.77;0.49;355.0;-0.244442;-0.009304;6.75;8.25;4.25;5.0;1.0;1.5;0.25;1.0;2.0;1.0;0.75;1.25;0.75;1.25;0.25;0.5;-0.253418;0.020996;0.970703;-0.7;-1.05;0.84;409.0;-0.18884;-0.05632
1.1;8.25;7.25;5.75;4.5;1.0;0.25;0.25;0.25;1.75;0.5;0.75;0.5;0.0;1.0;0.25;0.5;-0.216309;0.026367;0.984375;-0.63;0.77;0.56;374.0;-0.232433;-0.009467;6.75;8.5;4.25;5.0;1.0;1.5;0.25;1.0;2.0;1.0;1.0;1.25;0.75;0.75;0.25;0.5;-0.255859;0.02832;0.975586;-0.63;-0.98;0.84;410.0;-0.194156;-0.060059
1.11;8.25;7.25;5.75;4.5;1.0;0.25;0.25;0.25;1.5;0.25;0.5;0.5;0.25;1.25;0.5;0.25;-0.228027;0.020996;0.986816;-0.56;0.7;0.49;371.0;-0.23514;-0.012992;6.5;8.5;4.0;4.75;1.0;1.25;0.25;1.0;2.0;1.0;1.25;1.25;0.75;0.5;0.5;0.5;-0.253906;0.023926;0.977539;-0.77;-1.05;0.77;402.0;-0.187976;-0.061505
1.12;8.0;6.75;5.25;4.75;1.0;0.5;0.25;0.25;1.5;0.25;0.5;0.25;0.25;1.25;0.25;0.25;-0.221191;0.017578;0.983398;-0.56;0.63;0.56;357.0;-0.239222;-0.01465;7.25;8.5;4.25;4.5;1.0;1.25;0.25;1.0;2.25;1.5;1.0;1.25;0.75;0.25;0.25;0.5;-0.257324;0.024902;0.972656;-0.7;-1.05;0.84;411.0;-0.1929;-0.051859
1.13;8.25;6.75;5.5;4.75;1.0;0.25;0.25;0.25;1.75;0.5;0.75;0.25;0.5;1.5;0.25;0.25;-0.217773;0.019043;0.98584;-0.49;0.77;0.42;374.0;-0.222801;-0.009845;6.75;8.5;4.25;4.75;1.0;1.5;0.25;1.0;2.0;1.25;0.75;1.5;1.0;0.5;0.25;0.5;-0.255371;0.025879;0.976074;-0.84;-0.98;0.77;410.0;-0.191905;-0.062912
1.14;8.25;6.75;5.5;4.5;1.0;0.5;0.0;0.25;1.75;0.5;0.75;0.5;0.5;1.0;0.25;0.25;-0.219727;0.022461;0.983398;-0.7;0.77;0.42;368.0;-0.229731;-0.017652;7.0;8.5;4.25;4.75;1.0;1.5;0.25;0.75;2.25;1.25;0.75;1.25;0.75;0.75;0.25;0.5;-0.259277;0.029297;0.971191;-0.7;-0.98;0.77;409.0;-0.192748;-0.050139
1.15;8.0;7.25;5.75;4.75;1.0;0.5;0.25;0.0;1.75;0.5;0.75;0.25;0.25;1.0;0.0;0.25;-0.224121;0.022949;0.987793;-0.56;0.7;0.49;368.0;-0.241667;-0.008795;6.5;8.5;4.25;4.75;1.0;1.25;0.25;0.75;2.25;1.0;0.75;1.5;0.75;0.25;0.5;0.5;-0.259766;0.030762;0.96875;-0.77;-1.05;0.77;399.0;-0.19298;-0.056199
1.16;8.25;7.0;5.5;4.75;1.0;0.5;0.25;0.0;1.75;0.5;0.5;0.25;0.0;0.75;0.25;0.25;-0.216309;0.01709;0.984375;-0.63;0.77;0.49;361.0;-0.246954;-0.00558;6.5;8.25;4.0;4.75;1.0;1.5;0.25;1.0;2.25;1.0;0.75;1.25;0.75;0.25;0.5;0.5;-0.256348;0.025391;0.975586;-0.7;-1.05;0.77;398.0;-0.191722;-0.060017
1.17;8.0;7.25;5.0;4.5;1.0;0.5;0.25;0.25;1.75;0.5;0.5;0.25;0.25;1.0;0.25;0.25;-0.224121;0.024902;0.989746;-0.56;0.77;0.49;360.0;-0.236574;-0.01365;6.75;8.0;4.25;4.5;1.0;1.75;0.25;1.0;2.25;1.25;1.25;1.25;0.75;0.75;0.5;0.5;-0.256836;0.022461;0.974609;-0.84;-1.12;0.84;414.0;-0.175859;-0.054712
1.18;8.25;7.25;5.25;4.5;1.0;0.5;0.25;0.25;1.75;0.5;0.75;0.25;0.5;1.25;0.25;0.25;-0.223633;0.025879;0.985352;-0.63;0.91;0.56;373.0;-0.227937;-0.014299;6.75;8.25;4.25;4.75;1.0;1.75;0.25;1.0;2.0;1.25;0.75;1.5;0.75;0.75;0.25;0.5;-0.254883;0.027832;0.972168;-0.77;-0.98;0.91;411.0;-0.188892;-0.060153
1.19;8.25;6.5;5.5;4.5;1.0;0.5;0.25;0.25;1.75;0.5;0.75;0.25;0.25;1.0;0.25;0.25;-0.21875;0.021973;0.984375;-0.63;0.84;0.49;364.0;-0.230984;-0.008613;6.5;8.25;4.0;4.75;1.0;1.0;0.25;1.0;2.0;1.25;0.75;1.5;1.0;0.5;0.25;0.5;-0.256348;0.022949;0.973633;-0.77;-0.98;0.84;396.0;-0.188992;-0.061499
1.2;8.25;6.75;5.75;4.5;1.0;0.5;0.25;0.25;1.75;0.5;0.5;0.25;0.25;1.0;0.5;0.25;-0.222656;0.020996;0.98584;-0.7;0.77;0.49;370.0;-0.231118;-0.008619;6.75;8.25;4.0;4.5;0.75;1.5;0.25;1.0;2.25;1.25;0.75;1.5;0.5;0.5;0.25;0.25;-0.256348;0.023438;0.969238;-0.77;-0.98;0.77;396.0;-0.192003;-0.054416
1.21;8.25;7.25;5.5;4.5;1.0;0.5;0.25;0.25;1.5;0.25;0.5;0.25;0.25;1.25;0.5;0.25;-0.22168;0.019531;0.986328;-0.63;0.91;0.49;368.0;-0.237698;-0.013726;6.75;8.25;4.0;4.5;1.0;1.5;0.25;1.0;2.0;1.0;0.75;1.5;0.5;0.75;0.5;0.25;-0.258301;0.023438;0.970703;-0.77;-0.91;0.91;398.0;-0.190772;-0.05619
1.22;8.25;6.75;5.25;4.5;0.75;0.5;0.25;0.25;1.5;0.25;0.5;0.25;0.25;1.25;0.5;0.25;-0.224121;0.026855;0.98877;-0.7;0.7;0.49;357.0;-0.235877;-0.013085;6.75;8.25;4.25;4.75;1.0;1.75;0.25;1.0;2.25;1.0;0.75;1.25;0.75;0.5;0.25;0.5;-0.257812;0.02832;0.972656;-0.98;-1.05;0.84;406.0;-0.194237;-0.057763
1.23;8.25;6.5;5.5;4.5;1.0;0.5;0.25;0.25;1.5;0.25;0.5;0.5;0.5;1.0;0.25;0.25;-0.222168;0.020508;0.987793;-0.56;0.7;0.42;360.0;-0.237032;-0.016401;6.75;8.5;4.25;5.0;1.0;1.75;0.25;1.0;2.0;1.0;0.75;1.25;0.75;0.75;0.0;0.25;-0.253418;0.025879;0.972656;-0.84;-0.98;0.84;406.0;-0.203081;-0.060144
1.24;8.25;6.5;5.75;4.5;1.0;0.5;0.25;0.25;1.5;0.5;0.5;0.5;0.25;1.25;0.25;0.25;-0.21875;0.022461;0.982422;-0.7;0.7;0.56;366.0;-0.232058;-0.010803;6.5;8.25;4.25;5.0;1.0;1.5;0.25;0.75;2.0;1.25;1.0;1.5;0.75;1.25;0.0;0.25;-0.255371;0.028809;0.976562;-0.77;-0.98;0.77;407.0;-0.186625;-0.054191
1.25;7.75;6.75;5.75;4.75;1.0;0.5;0.25;0.25;1.75;0.5;0.5;0.5;0.25;1.5;0.25;0.25;-0.218262;0.022949;0.989746;-0.7;0.77;0.56;372.0;-0.222429;-0.011484;6.5;8.25;4.0;4.5;1.0;1.5;0.25;1.0;2.0;1.0;0.75;1.25;0.75;0.75;0.25;0.5;-0.258301;0.027344;0.977051;-0.84;-0.98;0.84;393.0;-0.192301;-0.058832
1.26;7.75;6.75;5.75;4.25;1.0;0.5;0.25;0.25;1.75;0.5;0.5;0.5;0.25;0.75;0.25;0.25;-0.220215;0.023926;0.990234;-0.49;0.77;0.49;359.0;-0.233662;-0.01159;6.5;8.25;4.0;4.75;0.75;1.5;0.25;0.75;2.0;1.0;0.75;1.5;0.5;0.5;0.5;0.5;-0.258789;0.027832;0.970703;-0.84;-1.05;0.84;390.0;-0.193882;-0.058376
1.27;7.75;6.75;5.5;4.25;0.75;0.5;0.25;0.25;1.75;0.5;0.5;0.5;0.25;0.5;0.25;0.5;-0.219238;0.022461;0.986816;-0.63;0.98;0.63;352.0;-0.236071;-0.015605;6.5;8.5;4.0;5.0;0.75;1.5;0.25;0.75;2.25;0.75;1.0;1.75;0.75;0.75;0.5;0.25;-0.259277;0.028809;0.970703;-0.84;-0.98;0.84;405.0;-0.185643;-0.060352
1.28;8.25;6.5;5.5;4.5;1.0;0.5;0.25;0.25;1.75;0.5;0.75;0.5;0.25;0.75;0.25;0.25;-0.223633;0.024902;0.984375;-0.63;0.91;0.42;365.0;-0.231603;-0.012067;6.5;7.75;4.0;5.0;1.0;1.25;0.25;0.75;2.0;0.75;0.75;1.75;0.75;0.75;0.5;0.25;-0.254395;0.023926;0.972656;-0.84;-0.98;0.84;391.0;-0.18802;-0.05841
1.29;8.25;7.25;5.25;4.5;0.75;0.5;0.25;0.0;1.75;0.5;0.75;0.5;0.25;1.25;0.25;0.25;-0.220215;0.026367;0.980957;-0.63;0.7;0.56;367.0;-0.230341;-0.009974;7.0;7.75;4.0;5.0;1.0;1.5;0.25;0.75;2.25;1.0;0.5;1.5;0.75;0.75;0.25;0.5;-0.258301;0.021484;0.972168;-0.84;-1.05;0.77;399.0;-0.191848;-0.052434
1.3;8.25;7.25;5.5;4.25;0.75;0.5;0.25;0.25;1.75;0.5;0.75;0.5;0.25;0.75;0.25;0.25;-0.218262;0.022461;0.987793;-0.56;0.7;0.56;366.0;-0.235834;-0.014106;7.0;8.25;4.25;5.0;1.0;1.5;0.25;1.0;2.0;1.0;0.5;1.25;0.75;0.75;0.25;0.25;-0.25293;0.029785;0.973633;-0.77;-0.91;0.91;403.0;-0.202228;-0.056488
1.31;8.0;7.0;5.75;4.5;0.75;0.5;0.25;0.25;1.75;0.5;0.5;0.5;0.25;1.5;0.25;0.25;-0.223633;0.023926;0.978516;-0.56;0.77;0.56;371.0;-0.225385;-0.010482;6.75;8.5;4.0;4.5;1.0;1.25;0.25;0.75;2.25;1.5;0.75;1.5;0.75;0.75;0.25;0.5;-0.251953;0.027344;0.974609;-0.91;-1.05;0.84;403.0;-0.184392;-0.050318
1.32;8.25;7.0;5.5;4.25;0.75;0.5;0.25;0.25;1.75;0.5;0.5;0.5;0.25;1.5;0.25;0.25;-0.222168;0.017578;0.988281;-0.56;0.7;0.42;368.0;-0.225914;-0.008644;6.5;8.5;4.25;4.5;1.0;1.5;0.25;1.0;2.25;1.25;0.75;1.5;0.75;0.75;0.5;0.25;-0.255859;0.025879;0.970215;-0.84;-0.98;0.84;409.0;-0.182274;-0.055534
1.33;7.75;7.0;5.25;4.25;1.0;0.25;0.0;0.0;1.5;0.5;0.5;0.5;0.25;1.5;0.25;0.25;-0.22168;0.021484;0.989258;-0.63;0.7;0.56;347.0;-0.233593;-0.00985;6.5;8.5;4.25;4.75;1.0;1.5;0.25;1.0;2.25;1.25;0.75;1.5;0.75;0.75;0.5;0.25;-0.25293;0.027344;0.972656;-0.77;-0.98;0.77;412.0;-0.18304;-0.056766
1.34;8.0;6.5;5.75;4.5;1.0;0.25;0.25;0.25;1.75;0.5;0.5;0.5;0.25;1.25;0.5;0.25;-0.22168;0.023926;0.984863;-0.63;0.77;0.49;367.0;-0.221621;-0.007378;6.5;8.5;4.0;4.75;1.0;1.5;0.25;1.0;2.25;1.25;0.75;1.5;0.75;0.75;0.5;0.25;-0.254395;0.026855;0.973633;-0.77;-0.91;0.84;409.0;-0.182425;-0.057854
1.35;8.25;6.25;5.75;4.25;1.0;0.5;0.25;0.25;1.5;0.5;0.5;0.5;0.25;1.25;0.5;0.25;-0.223145;0.020508;0.990723;-0.63;0.84;0.49;363.0;-0.225275;-0.008523;6.75;8.25;4.25;5.0;1.0;1.5;0.25;1.0;2.25;1.0;0.75;1.25;0.75;0.75;0.5;0.25;-0.257324;0.022949;0.97168;-0.91;-0.91;0.84;410.0;-0.189582;-0.055336
1.36;8.0;6.5;5.75;4.25;1.0;0.5;0.0;0.25;1.5;0.75;0.5;0.5;0.25;1.25;0.25;0.25;-0.225586;0.023438;0.985352;-0.56;0.77;0.49;359.0;-0.230087;-0.012274;6.75;8.25;4.25;4.75;1.0;1.5;0.25;0.75;2.25;1.25;0.75;1.25;0.75;0.5;0.25;0.25;-0.256348;0.024414;0.969727;-0.84;-0.98;0.84;400.0;-0.195408;-0.050879
1.37;8.25;6.75;5.75;4.5;1.0;0.5;0.0;0.25;1.75;0.5;0.75;0.5;0.25;1.25;0.25;0.25;-0.220215;0.027832;0.97998;-0.63;0.84;0.56;371.0;-0.228539;-0.012733;6.5;8.25;4.25;4.5;1.0;1.5;0.25;1.0;2.25;1.0;0.75;1.75;0.5;0.5;0.0;0.25;-0.256836;0.025391;0.970703;-0.63;-1.05;0.77;396.0;-0.195079;-0.056001
1.38;8.0;7.25;5.75;4.75;1.0;0.5;0.0;0.25;1.75;0.5;0.5;0.25;0.25;1.25;0.25;0.5;-0.221191;0.024902;0.991211;-0.42;0.56;0.63;372.0;-0.234775;-0.015659;6.0;8.25;4.25;4.5;1.0;1.5;0.25;0.75;2.25;1.5;0.75;1.5;0.5;0.75;0.25;0.5;-0.256348;0.024902;0.978027;-0.77;-0.91;0.84;396.0;-0.180709;-0.051143
1.39;8.25;7.25;5.5;4.75;1.0;0.5;0.0;0.25;1.75;0.75;0.5;0.25;0.25;1.5;0.25;0.25;-0.222656;0.022949;0.98584;-0.7;0.7;0.56;375.0;-0.230543;-0.012598;6.5;8.25;4.25;4.5;1.0;1.5;0.25;0.75;2.0;1.5;0.75;1.5;0.75;0.75;0.25;0.25;-0.255859;0.026367;0.969238;-0.77;-1.05;0.77;399.0;-0.187727;-0.053241
1.4;8.25;6.75;5.5;4.25;0.75;0.5;0.0;0.25;1.75;0.5;0.25;0.5;0.25;1.25;0.25;0.0;-0.221191;0.015137;0.988281;-0.56;0.7;0.49;355.0;-0.238385;-0.009523;6.5;8.25;4.0;4.75;1.0;1.5;0.25;0.75;2.0;1.25;1.0;1.25;0.75;0.5;0.25;0.25;-0.252441;0.029785;0.97168;-0.77;-0.98;0.77;394.0;-0.194414;-0.05654
1.41;8.0;7.0;5.75;4.25;0.75;0.5;0.25;0.25;1.75;0.5;0.5;0.25;0.5;1.25;0.25;0.25;-0.221191;0.025879;0.989258;-0.63;0.7;0.56;365.0;-0.22981;-0.010574;6.5;8.0;4.0;4.5;1.0;1.75;0.25;1.0;2.0;1.25;0.75;1.25;0.5;0.75;0.25;0.5;-0.253418;0.025879;0.974609;-0.77;-0.98;0.77;394.0;-0.189603;-0.056468
1.42;8.25;7.0;5.75;4.75;0.75;0.5;0.0;0.25;1.5;0.5;0.5;0.25;0.25;1.25;0.25;0.25;-0.225586;0.020508;0.986816;-0.56;0.77;0.49;364.0;-0.242973;-0.01592;6.5;8.5;4.25;4.5;1.0;1.5;0.25;1.0;2.25;1.25;0.75;1.25;0.5;0.75;0.5;0.25;-0.255859;0.025879;0.972168;-0.91;-0.98;0.84;404.0;-0.187114;-0.051454
1.43;8.25;7.0;5.5;4.5;1.0;0.5;0.0;0.25;1.75;0.5;0.5;0.25;0.0;1.25;0.25;0.25;-0.220703;0.025391;0.988281;-0.63;0.84;0.56;362.0;-0.239191;-0.008675;6.5;8.25;4.25;4.5;1.0;1.5;0.25;1.0;2.25;1.0;0.75;1.5;0.5;0.75;0.5;0.25;-0.259277;0.026855;0.975098;-0.84;-0.98;0.84;401.0;-0.185858;-0.053303
1.44;8.25;7.25;5.75;4.25;1.0;0.5;0.0;0.25;1.5;0.5;0.5;0.25;0.25;0.75;0.25;0.25;-0.220703;0.026367;0.987305;-0.49;0.77;0.56;359.0;-0.250941;-0.015343;6.5;8.25;4.25;4.5;0.75;1.25;0.25;1.0;2.0;1.25;0.75;1.5;0.75;0.75;0.5;0.25;-0.253418;0.026855;0.971191;-0.77;-1.12;0.84;397.0;-0.185393;-0.057058
1.45;8.25;7.0;5.75;4.5;1.0;0.5;0.0;0.25;1.25;0.25;0.75;0.25;0.5;1.0;0.25;0.25;-0.217773;0.022949;0.98877;-0.56;0.77;0.56;361.0;-0.248194;-0.021997;6.5;8.0;4.25;5.0;1.0;1.75;0.25;1.0;2.0;1.25;1.0;1.25;0.5;0.25;0.5;0.25;-0.250977;0.032715;0.972656;-0.77;-0.98;0.84;403.0;-0.193402;-0.060233
1.46;8.0;6.75;5.5;4.75;0.75;0.5;0.0;0.25;1.75;0.5;0.75;0.25;0.25;1.25;0.25;0.25;-0.224609;0.026367;0.984863;-0.56;0.84;0.56;362.0;-0.231688;-0.014659;6.5;8.0;4.25;5.0;1.0;2.0;0.25;1.0;2.25;1.5;0.75;1.25;0.5;0.5;0.25;0.25;-0.254395;0.020996;0.971191;-0.84;-1.12;0.84;408.0;-0.189855;-0.056093
1.47;7.75;6.75;5.5;4.75;0.75;0.5;0.0;0.25;2.0;0.5;0.5;0.25;0.25;1.25;0.5;0.5;-0.223145;0.024902;0.989258;-0.56;0.77;0.42;364.0;-0.221722;-0.013734;6.25;8.25;4.25;4.75;1.0;1.5;0.25;0.75;2.25;1.5;0.75;1.25;0.75;0.5;0.25;0.25;-0.251953;0.023926;0.977539;-0.77;-0.91;0.77;397.0;-0.189331;-0.052333
1.48;7.75;6.75;5.75;4.5;1.0;0.5;0.0;0.25;1.5;0.5;0.75;0.5;0.25;1.0;0.25;0.25;-0.220215;0.023438;0.986328;-0.63;0.7;0.56;359.0;-0.234754;-0.018734;6.5;8.0;4.25;4.5;1.0;1.5;0.25;1.0;2.25;1.0;1.0;1.25;0.75;0.5;0.25;0.25;-0.253906;0.026855;0.973145;-0.84;-1.12;0.77;396.0;-0.189978;-0.054846
1.49;7.75;6.75;5.75;4.25;1.0;0.5;0.0;0.25;1.5;0.5;0.5;0.5;0.25;1.0;0.0;0.25;-0.219238;0.019531;0.98584;-0.56;0.84;0.42;351.0;-0.24331;-0.015661;6.5;8.0;4.0;4.75;1.0;1.5;0.25;1.0;2.25;1.25;0.75;1.25;0.75;0.75;0.25;0.25;-0.25293;0.022949;0.97168;-0.84;-1.05;0.84;398.0;-0.186538;-0.054589
1.5;7.75;6.75;5.75;4.5;1.0;0.5;0.25;0.25;1.5;0.5;0.5;0.5;0.25;1.25;0.0;0.0;-0.220215;0.026367;0.98291;-0.56;0.63;0.56;359.0;-0.238213;-0.011962;7.0;8.0;4.25;4.5;1.0;1.5;0.25;1.0;2.0;1.25;0.75;1.25;0.5;0.75;0.5;0.5;-0.254395;0.024902;0.972656;-0.84;-1.05;0.7;402.0;-0.189205;-0.051623
1.51;8.25;6.75;5.75;4.75;1.0;1.0;0.25;0.25;1.75;0.5;1.0;0.5;0.25;1.25;0.25;0.0;-0.220703;0.019531;0.984863;-0.49;0.63;0.56;385.0;-0.223411;-0.01528;6.75;8.0;4.5;4.75;1.0;1.25;0.25;1.0;2.25;1.5;0.75;1.25;0.5;0.75;0.25;0.25;-0.253906;0.025391;0.975098;-0.77;-1.05;0.84;405.0;-0.188567;-0.046474
1.52;8.0;7.25;5.5;4.25;1.0;0.5;0.25;0.25;1.5;0.5;0.75;0.25;0.25;1.25;0.25;0.25;-0.21875;0.026855;0.986328;-0.63;0.7;0.56;365.0;-0.233714;-0.0126;6.5;8.0;4.25;4.75;1.0;1.5;0.25;1.0;2.25;1.5;1.0;1.25;0.75;1.0;0.25;0.25;-0.254395;0.024414;0.974121;-0.77;-0.98;0.84;409.0;-0.177883;-0.051806
1.53;7.75;7.25;5.25;4.25;1.0;0.5;0.25;0.25;1.75;0.5;0.5;0.25;0.25;1.25;0.25;0.25;-0.216797;0.021973;0.990723;-0.63;0.84;0.42;360.0;-0.230891;-0.010745;6.5;8.5;4.25;4.5;1.0;1.5;0.25;0.75;2.25;1.5;0.75;1.25;0.75;1.0;0.25;0.25;-0.255859;0.021973;0.971191;-0.84;-1.05;0.7;404.0;-0.184606;-0.047994
1.54;8.0;7.25;5.25;4.25;1.0;0.5;0.25;0.25;1.75;0.5;0.75;0.5;0.25;1.25;0.25;0.25;-0.223633;0.024902;0.993164;-0.63;0.63;0.56;368.0;-0.225224;-0.012874;6.5;8.0;4.0;4.5;1.0;1.5;0.25;1.0;2.25;1.25;0.75;1.25;0.25;1.0;0.25;0.25;-0.259766;0.023438;0.977539;-0.84;-0.91;0.77;393.0;-0.186494;-0.047039
1.55;8.0;7.25;5.25;4.5;1.0;0.5;0.0;0.25;1.75;0.5;0.75;0.25;0.25;1.25;0.25;0.5;-0.219238;0.021484;0.988281;-0.56;0.7;0.56;366.0;-0.230226;-0.016477;6.5;8.25;4.0;4.5;1.0;1.5;0.25;1.0;2.25;1.0;0.75;1.25;0.25;0.75;0.5;0.25;-0.259766;0.024414;0.971191;-0.7;-0.91;0.77;393.0;-0.190261;-0.050188
1.56;8.0;7.25;5.25;4.5;1.0;0.5;0.0;0.25;1.5;0.5;0.75;0.25;0.25;1.25;0.0;0.5;-0.218262;0.023926;0.986816;-0.7;0.7;0.56;359.0;-0.240161;-0.018849;7.0;7.75;4.0;4.75;1.0;1.5;0.25;1.0;2.5;1.0;1.0;1.25;0.5;0.75;0.5;0.5;-0.254395;0.024902;0.969238;-0.77;-0.98;0.84;407.0;-0.180203;-0.048776
1.57;8.25;6.75;5.5;4.5;0.75;0.5;0.25;0.25;1.75;0.5;0.5;0.25;0.25;1.0;0.0;0.25;-0.220703;0.022949;0.990234;-0.56;0.63;0.63;358.0;-0.241938;-0.008862;6.5;8.25;4.25;4.5;1.0;1.5;0.25;1.0;2.5;1.25;1.0;1.75;1.0;0.75;0.5;0.5;-0.252441;0.022949;0.968262;-0.77;-1.05;0.84;420.0;-0.167778;-0.057307
1.58;8.0;7.25;5.5;4.75;0.75;0.5;0.25;0.25;2.0;0.5;0.5;0.25;0.25;1.0;0.25;0.0;-0.220703;0.020996;0.986816;-0.63;0.63;0.42;368.0;-0.235988;-0.010273;6.25;8.0;4.0;4.5;1.0;1.5;0.25;1.0;2.5;1.5;0.75;1.75;0.5;0.75;0.5;0.5;-0.254395;0.022949;0.97168;-0.77;-1.12;0.7;407.0;-0.167686;-0.052947
1.59;8.25;7.25;5.75;4.75;1.0;0.5;0.25;0.25;1.5;0.5;0.75;0.25;0.25;1.25;0.25;0.0;-0.219238;0.021973;0.989746;-0.63;0.7;0.49;375.0;-0.238458;-0.01306;6.25;7.75;4.0;4.5;1.0;1.75;0.25;0.75;2.25;1.5;1.0;1.25;0.5;0.75;0.25;0.5;-0.257324;0.023438;0.966309;-0.77;-0.98;0.77;394.0;-0.178312;-0.049965
1.6;8.0;7.25;5.75;4.5;1.0;0.5;0.0;0.25;1.75;0.5;0.5;0.25;0.25;1.25;0.25;0.25;-0.222168;0.01709;0.990723;-0.63;0.56;0.63;367.0;-0.236744;-0.01275;6.5;7.75;4.0;4.5;1.0;1.5;0.25;1.0;2.25;1.25;1.25;1.25;0.75;0.75;0.25;0.25;-0.256348;0.027832;0.976562;-0.84;-1.05;0.77;399.0;-0.178403;-0.053482
1.61;8.25;7.5;5.25;4.75;1.0;0.5;0.0;0.25;1.5;0.5;0.5;0.25;0.5;1.25;0.25;0.25;-0.223145;0.018555;0.987305;-0.49;0.63;0.56;368.0;-0.241383;-0.021936;6.5;8.0;4.0;4.75;1.0;1.5;0.25;1.0;2.25;1.5;1.0;1.25;0.5;0.75;0.5;0.25;-0.254883;0.022949;0.969238;-0.7;-0.91;0.77;405.0;-0.178484;-0.052016
1.62;8.25;7.0;5.25;4.5;1.0;0.5;0.0;0.25;1.5;0.5;0.5;0.25;0.5;1.75;0.25;0.25;-0.222168;0.023926;0.986816;-0.56;0.63;0.63;365.0;-0.230266;-0.015738;6.0;8.0;4.25;4.5;1.0;1.5;0.25;0.75;2.25;1.25;0.75;1.5;0.5;0.75;0.5;0.5;-0.256836;0.024902;0.976074;-0.77;-0.98;0.7;393.0;-0.177954;-0.051464
1.63;8.0;7.25;5.5;4.5;0.75;0.75;0.25;0.25;1.5;0.25;0.5;0.5;0.5;1.25;0.25;0.25;-0.214355;0.022949;0.993164;-0.49;0.56;0.56;367.0;-0.235569;-0.021934;6.5;8.0;4.25;4.75;1.0;1.5;0.25;0.75;2.5;1.0;1.0;1.75;0.75;0.75;0.5;0.5;-0.256836;0.025391;0.969238;-0.7;-1.05;0.84;411.0;-0.173456;-0.052995
1.64;8.25;6.25;5.5;4.75;1.0;0.75;0.25;0.25;1.5;0.5;1.0;0.5;0.5;1.0;0.25;0.25;-0.225586;0.024414;0.986328;-0.56;0.84;0.56;372.0;-0.224787;-0.020031;6.5;7.75;4.25;4.5;1.0;1.5;0.25;1.0;2.0;1.0;0.75;1.25;0.75;1.0;0.25;0.5;-0.25293;0.026855;0.974609;-0.7;-1.05;0.84;393.0;-0.186423;-0.054912
1.65;7.75;6.0;5.5;4.25;0.75;0.5;0.25;0.25;1.5;0.5;0.75;0.25;0.5;1.25;0.25;0.5;-0.225098;0.019531;0.98584;-0.7;0.7;0.56;350.0;-0.221465;-0.012983;6.25;7.75;4.25;4.5;1.0;1.75;0.25;1.0;2.5;1.0;1.0;1.25;0.75;1.0;0.25;0.5;-0.254883;0.023438;0.974609;-0.84;-0.98;0.84;403.0;-0.173875;-0.052262
1.66;7.75;6.75;5.5;4.25;0.75;0.5;0.25;0.25;1.5;0.5;1.0;0.25;0.5;1.25;0.25;0.25;-0.217773;0.022461;0.991211;-0.56;0.77;0.56;359.0;-0.224412;-0.015787;6.0;7.75;4.25;4.5;1.0;1.75;0.25;1.0;2.25;1.0;1.0;1.5;0.75;1.0;0.25;0.25;-0.261719;0.021484;0.977051;-0.7;-0.98;0.84;398.0;-0.175327;-0.057127
1.67;8.0;7.25;5.75;4.75;1.0;0.75;0.25;0.25;1.5;0.25;0.75;0.5;0.5;1.5;0.25;0.25;-0.225098;0.027832;0.994141;-0.49;0.77;0.56;382.0;-0.227946;-0.021474;6.0;8.0;4.25;4.5;1.0;1.25;0.25;1.0;2.25;1.0;1.0;1.25;0.75;1.25;0.25;0.25;-0.256348;0.020508;0.975586;-0.63;-1.05;0.84;394.0;-0.176563;-0.051444
1.68;7.75;7.25;5.75;4.25;1.0;0.75;0.0;0.25;1.5;0.25;0.75;0.25;0.5;1.5;0.25;0.25;-0.21875;0.024902;0.989258;-0.56;0.7;0.49;366.0;-0.232527;-0.019959;6.5;7.5;4.25;4.5;1.0;1.25;0.25;1.0;2.25;1.0;1.0;1.25;0.75;0.75;0.25;0.5;-0.254395;0.024414;0.970215;-0.7;-1.05;0.84;392.0;-0.181699;-0.05136
1.69;8.0;6.75;5.5;4.25;0.75;0.5;0.0;0.25;1.5;0.5;1.0;0.25;0.25;1.5;0.25;0.25;-0.22168;0.025879;0.98877;-0.63;0.77;0.63;358.0;-0.227793;-0.013586;6.0;7.25;4.25;4.25;1.0;1.5;0.25;1.0;2.5;1.25;1.25;1.0;0.75;0.75;0.5;0.25;-0.260742;0.024902;0.975098;-0.77;-1.12;0.84;391.0;-0.166514;-0.047385
1.7;8.25;7.0;5.5;4.5;1.0;0.5;0.0;0.25;1.75;0.5;1.0;0.25;0.25;1.25;0.25;0.25;-0.213867;0.021973;0.98584;-0.77;0.91;0.49;370.0;-0.22941;-0.01321;6.0;8.0;4.0;4.5;1.0;1.5;0.25;1.0;2.25;1.5;1.0;1.25;0.75;1.0;0.5;0.25;-0.256348;0.023438;0.975098;-0.7;-0.98;0.84;401.0;-0.169021;-0.054071
1.71;8.0;7.0;5.5;4.5;1.0;0.5;0.0;0.25;1.75;0.5;0.5;0.25;0.25;1.25;0.25;0.25;-0.226074;0.016113;0.986328;-0.56;0.77;0.49;362.0;-0.235248;-0.012542;6.0;8.0;4.0;4.5;1.0;1.75;0.25;1.0;2.5;1.5;0.75;1.5;0.75;1.25;0.5;0.25;-0.256348;0.02832;0.969727;-0.7;-0.98;0.84;409.0;-0.161986;-0.052747
1.72;8.25;7.25;5.5;4.5;1.0;0.5;0.0;0.25;1.5;0.5;0.5;0.25;0.25;1.5;0.25;0.25;-0.217285;0.021484;0.987305;-0.63;0.7;0.56;366.0;-0.238493;-0.014257;6.0;8.0;4.0;4.5;1.0;1.5;0.25;1.0;2.25;1.5;1.0;1.5;0.75;1.0;0.5;0.25;-0.257812;0.026367;0.977539;-0.7;-0.98;0.84;403.0;-0.166323;-0.055797
1.73;8.0;7.25;5.5;4.5;0.75;0.5;0.0;0.25;1.5;0.5;0.75;0.25;0.25;1.5;0.25;0.25;-0.221191;0.02832;0.980469;-0.7;0.7;0.42;363.0;-0.234484;-0.016643;6.5;8.0;4.0;4.5;1.0;1.5;0.25;1.0;2.25;1.5;1.0;1.25;0.75;1.0;0.25;0.25;-0.259766;0.021973;0.973633;-0.77;-1.12;0.84;403.0;-0.176405;-0.051586
1.74;8.0;7.25;5.25;4.75;0.75;0.5;0.0;0.25;1.5;0.25;0.5;0.5;0.25;1.25;0.25;0.25;-0.223633;0.026855;0.993164;-0.63;0.84;0.49;358.0;-0.242744;-0.022647;7.0;8.0;4.0;4.75;1.0;1.25;0.25;1.0;2.5;1.5;1.0;1.5;0.75;1.25;0.5;0.25;-0.256836;0.027344;0.967773;-0.77;-1.05;0.77;421.0;-0.166872;-0.046943
1.75;8.25;7.25;5.75;4.5;1.0;0.5;0.25;0.25;1.5;0.25;0.5;0.25;0.25;1.25;0.25;0.25;-0.223145;0.024414;0.982422;-0.49;0.63;0.63;368.0;-0.242956;-0.012339;6.25;7.75;4.0;4.5;1.0;1.25;0.25;1.0;2.75;1.5;1.25;1.5;0.75;1.0;0.25;0.25;-0.258789;0.023926;0.969727;-0.77;-1.12;0.91;408.0;-0.160394;-0.046838
1.76;8.25;7.25;5.5;4.5;1.0;0.5;0.25;0.25;2.0;0.5;0.5;0.5;0.5;1.5;0.25;0.25;-0.223633;0.02002;0.993164;-0.63;0.77;0.42;382.0;-0.219921;-0.01097;6.5;7.5;4.25;4.5;1.0;1.25;0.25;1.0;2.75;1.5;1.0;1.75;0.75;1.0;0.25;0.5;-0.258301;0.024414;0.967773;-0.7;-1.05;0.77;413.0;-0.159502;-0.046252
1.77;8.25;7.0;5.25;4.75;0.75;0.5;0.25;0.25;1.75;0.5;0.5;0.25;0.5;1.5;0.25;0.25;-0.218262;0.022461;0.987305;-0.7;0.84;0.56;370.0;-0.227457;-0.013595;6.5;7.5;4.0;4.5;1.0;1.25;0.25;1.0;2.5;1.75;1.0;1.75;0.75;1.0;0.25;0.25;-0.253418;0.025879;0.969238;-0.7;-0.98;0.84;408.0;-0.161458;-0.04834
1.78;8.25;7.25;5.75;4.5;1.0;0.75;0.25;0.25;2.0;0.25;0.75;0.25;0.25;1.25;0.25;0.25;-0.221191;0.02002;0.994141;-0.63;0.77;0.56;381.0;-0.22935;-0.009769;6.25;7.0;4.0;4.5;1.0;1.5;0.25;0.75;2.25;1.0;1.0;1.5;0.75;1.25;0.25;0.5;-0.254395;0.022949;0.973145;-0.77;-1.12;0.84;387.0;-0.167928;-0.049258
1.79;8.25;7.25;5.75;4.5;1.0;0.75;0.25;0.25;1.75;0.25;0.5;0.25;0.25;1.5;0.25;0.25;-0.223145;0.025879;0.989746;-0.56;0.7;0.56;377.0;-0.233461;-0.010505;6.25;7.75;4.0;4.5;1.0;1.5;0.25;0.75;2.75;1.0;1.0;1.5;0.75;1.25;0.5;0.5;-0.255371;0.023438;0.971191;-0.77;-0.91;0.77;405.0;-0.161002;-0.045957
1.8;8.25;6.75;5.75;4.75;1.0;0.75;0.25;0.25;1.75;0.25;0.5;0.25;0.25;1.5;0.25;0.25;-0.223145;0.021484;0.988281;-0.56;0.77;0.49;375.0;-0.23143;-0.010126;6.25;7.75;4.0;4.5;1.0;1.5;0.25;0.75;2.5;1.0;0.75;1.25;0.75;1.25;0.5;0.25;-0.257324;0.027832;0.969727;-0.77;-0.98;0.84;394.0;-0.172261;-0.045524
1.81;8.25;6.75;5.75;4.75;1.0;0.75;0.25;0.25;1.75;0.25;1.25;0.25;0.25;1.25;0.25;0.25;-0.21875;0.020996;0.991211;-0.63;0.77;0.56;381.0;-0.225055;-0.013652;6.0;7.25;4.0;4.25;0.75;1.5;0.25;0.75;2.5;1.0;1.0;1.0;0.5;1.25;0.5;0.25;-0.254395;0.027344;0.975098;-0.84;-0.98;0.77;378.0;-0.168751;-0.040527
1.82;8.25;6.25;5.5;4.25;1.0;0.75;0.25;0.25;1.5;0.25;1.0;0.25;0.5;1.25;0.25;0.5;-0.220703;0.023926;0.982422;-0.7;0.91;0.49;364.0;-0.224373;-0.015067;6.0;7.75;4.0;4.5;1.0;1.75;0.25;1.0;2.5;1.0;0.75;1.25;0.75;1.0;0.25;0.25;-0.256348;0.022949;0.971191;-0.84;-0.98;0.91;393.0;-0.176434;-0.053072
1.83;8.0;6.5;5.5;4.25;1.0;1.0;0.25;0.25;1.5;0.25;0.75;0.25;0.25;1.25;0.25;0.25;-0.217285;0.022461;0.987793;-0.63;0.77;0.49;360.0;-0.232269;-0.01428;6.0;7.25;4.0;4.5;1.0;1.75;0.25;0.75;2.5;1.5;1.25;1.5;0.75;1.0;0.0;0.25;-0.254395;0.024902;0.976074;-0.77;-1.05;0.77;395.0;-0.164714;-0.048849
1.84;8.0;7.25;5.75;4.25;1.0;0.75;0.25;0.25;1.5;0.5;0.5;0.25;0.25;1.25;0.25;0.25;-0.21875;0.018066;0.98877;-0.56;0.7;0.56;368.0;-0.236891;-0.013057;6.0;7.25;4.0;4.5;1.0;1.5;0.25;0.75;2.75;1.25;1.25;1.75;0.75;1.0;0.25;0.25;-0.251953;0.023926;0.973145;-0.77;-1.05;0.84;399.0;-0.157108;-0.047107
1.85;8.25;7.25;5.5;4.25;1.0;0.5;0.25;0.25;1.5;0.5;0.5;0.25;0.5;1.25;0.25;0.25;-0.217285;0.022461;0.989746;-0.7;0.63;0.56;367.0;-0.236016;-0.013739;6.0;7.5;4.0;4.25;1.0;1.25;0.25;0.75;2.5;1.0;1.0;1.75;0.75;1.0;0.5;0.25;-0.256348;0.025879;0.96875;-0.77;-0.98;0.84;389.0;-0.163182;-0.0483
1.86;8.25;6.75;5.5;4.5;1.0;0.5;0.25;0.25;1.5;0.5;0.5;0.25;0.25;1.5;0.25;0.25;-0.22168;0.01709;0.991211;-0.7;0.63;0.63;365.0;-0.232436;-0.009262;5.75;7.5;4.0;4.5;1.0;1.5;0.25;1.0;2.5;1.25;1.25;1.5;0.75;1.25;0.25;0.5;-0.256348;0.02832;0.970703;-0.77;-0.98;0.77;400.0;-0.156605;-0.053311
1.87;8.0;6.75;5.25;4.5;1.0;0.5;0.25;0.25;1.75;0.25;0.25;0.25;0.25;1.0;0.25;0.25;-0.222168;0.021973;0.988281;-0.7;0.84;0.49;352.0;-0.241849;-0.010374;6.0;7.75;4.0;4.5;1.0;1.5;0.25;1.0;2.5;1.25;1.0;1.5;0.75;0.75;0.25;0.5;-0.252441;0.023438;0.963867;-0.7;-1.12;0.77;398.0;-0.169395;-0.055117
1.88;8.25;7.0;5.25;4.5;1.0;0.5;0.25;0.25;1.75;0.25;0.25;0.25;0.25;1.0;0.25;0.25;-0.21582;0.018555;0.986816;-0.56;0.7;0.49;358.0;-0.244358;-0.010528;6.5;7.0;4.0;4.25;1.0;1.5;0.25;0.75;2.5;1.5;1.0;1.5;0.75;0.75;0.25;0.25;-0.252441;0.021484;0.977051;-0.77;-0.98;0.84;390.0;-0.16779;-0.043846
1.89;7.75;7.0;5.75;4.75;0.75;0.5;0.25;0.25;1.5;0.25;0.5;0.25;0.25;1.25;0.25;0.25;-0.224609;0.024414;0.989258;-0.7;0.84;0.56;360.0;-0.240569;-0.015555;6.0;7.0;4.0;4.5;1.0;1.5;0.25;1.0;2.75;1.5;1.0;1.5;0.75;0.75;0.25;0.25;-0.262207;0.021484;0.970215;-0.77;-0.98;0.84;395.0;-0.159854;-0.04819
1.9;8.0;7.25;5.5;4.5;0.75;0.5;0.25;0.25;1.5;0.5;0.5;0.25;0.25;1.25;0.25;0.25;-0.216309;0.026367;0.991211;-0.63;0.7;0.63;362.0;-0.238691;-0.014156;6.0;7.25;4.0;4.5;1.0;1.75;0.25;1.0;2.5;1.25;0.5;1.25;0.75;0.75;0.5;0.5;-0.256348;0.024414;0.969727;-0.7;-0.98;0.84;390.0;-0.17042;-0.052874
1.91;8.0;7.25;5.25;4.5;1.0;0.5;0.25;0.25;1.5;0.5;0.5;0.25;0.25;1.25;0.25;0.5;-0.219727;0.021973;0.989258;-0.56;0.63;0.56;363.0;-0.235087;-0.015621;6.0;7.75;4.0;4.5;1.0;1.75;0.25;1.0;2.5;1.25;0.75;1.5;0.75;1.0;0.5;0.5;-0.257324;0.026855;0.970703;-0.77;-0.91;0.7;403.0;-0.16462;-0.055145
1.92;8.0;7.25;5.5;4.75;1.0;0.5;0.25;0.25;1.5;0.5;0.5;0.25;0.25;1.25;0.25;0.25;-0.219727;0.022949;0.989258;-0.49;0.77;0.56;368.0;-0.238165;-0.015257;6.0;7.75;4.25;4.5;1.0;1.75;0.25;1.0;2.5;1.5;1.0;1.5;0.5;0.75;0.5;0.5;-0.254395;0.024902;0.973145;-0.84;-1.05;0.84;407.0;-0.165028;-0.052637
1.93;8.25;7.25;5.5;4.75;1.0;0.5;0.25;0.25;1.5;0.25;0.5;0.25;0.25;1.5;0.25;0.25;-0.22168;0.020508;0.981934;-0.7;0.63;0.56;370.0;-0.239021;-0.013706;6.0;7.5;4.0;4.25;1.0;1.75;0.25;1.0;2.5;1.25;1.0;1.25;0.5;1.0;0.5;0.25;-0.257812;0.025879;0.971191;-0.7;-0.98;0.91;394.0;-0.165939;-0.048423
1.94;8.25;7.25;5.5;4.75;1.0;0.5;0.25;0.25;1.75;0.25;0.5;0.5;0.25;1.25;0.5;0.25;-0.224609;0.017578;0.986816;-0.56;0.84;0.56;377.0;-0.229997;-0.014829;6.0;7.75;4.0;4.25;1.0;1.5;0.25;1.0;2.5;1.0;1.0;1.25;0.5;0.75;0.5;0.25;-0.256836;0.026367;0.975098;-0.63;-0.98;0.84;388.0;-0.174105;-0.049641
1.95;8.25;6.75;5.75;4.5;1.0;0.5;0.25;0.25;1.5;0.25;0.5;0.5;0.25;1.25;0.25;0.5;-0.22168;0.023926;0.982422;-0.63;0.84;0.56;367.0;-0.234591;-0.013668;6.5;7.75;4.0;4.5;1.0;1.75;0.25;1.0;2.75;1.25;1.0;1.5;0.5;0.75;0.5;0.25;-0.250977;0.022949;0.96875;-0.84;-1.05;0.84;409.0;-0.168608;-0.048469
1.96;8.0;7.25;5.75;4.75;1.0;0.5;0.25;0.25;1.75;0.25;0.5;0.25;0.25;0.75;0.0;0.5;-0.21875;0.026855;0.983887;-0.7;0.91;0.42;366.0;-0.248175;-0.015303;6.25;7.25;3.75;4.5;1.0;1.75;0.25;1.0;2.75;1.25;0.75;1.5;0.75;1.0;0.5;0.25;-0.255859;0.024902;0.971191;-0.77;-1.05;0.98;400.0;-0.160544;-0.049786
1.97;8.25;6.75;5.5;4.5;1.0;0.75;0.0;0.25;1.5;0.25;0.5;0.25;0.25;0.75;0.25;0.5;-0.224121;0.022949;0.985352;-0.63;0.77;0.63;356.0;-0.24933;-0.0199;6.25;7.75;3.75;4.5;0.75;1.75;0.25;1.0;2.75;1.5;0.75;1.5;0.75;1.0;0.5;0.25;-0.250488;0.02832;0.966797;-0.77;-0.98;0.84;405.0;-0.161179;-0.05126
1.98;7.75;6.5;5.5;4.5;1.0;0.5;0.0;0.25;1.5;0.25;0.5;0.5;0.25;1.0;0.25;0.5;-0.219238;0.020508;0.984375;-0.63;0.84;0.56;350.0;-0.238284;-0.01974;6.5;7.75;4.25;4.5;1.0;1.75;0.25;1.0;2.5;1.5;1.0;1.0;0.75;0.75;0.5;0.25;-0.256348;0.022949;0.974121;-0.77;-0.98;0.91;408.0;-0.173587;-0.048378
1.99;8.25;6.75;5.75;4.75;1.0;0.25;0.0;0.25;1.5;0.25;1.5;0.5;0.25;1.0;0.25;0.25;-0.217773;0.019043;0.984863;-0.63;0.77;0.49;371.0;-0.231398;-0.019296;6.25;7.75;4.0;4.5;1.0;1.5;0.25;1.0;2.5;1.25;1.0;1.0;0.75;0.75;0.75;0.25;-0.254883;0.022461;0.976074;-0.77;-1.12;0.84;399.0;-0.170191;-0.049913
2.0;8.25;7.0;5.75;4.75;1.0;0.5;0.0;0.25;1.75;0.5;1.0;0.5;0.25;1.25;0.25;0.25;-0.22168;0.023438;0.984863;-0.63;0.77;0.56;379.0;-0.226829;-0.016206;6.5;7.75;4.0;4.5;1.0;1.5;0.25;1.0;2.75;1.25;1.0;1.25;0.75;1.0;0.25;0.25;-0.256836;0.029297;0.972656;-0.77;-1.12;0.84;405.0;-0.170195;-0.045929
2.01;8.0;7.25;5.75;4.25;1.0;0.5;0.0;0.25;1.75;0.5;0.5;0.5;0.25;1.25;0.25;0.5;-0.214844;0.022461;0.986328;-0.63;0.84;0.56;369.0;-0.230448;-0.014446;6.0;7.75;4.0;4.5;1.0;1.5;0.25;1.0;2.75;1.25;1.25;1.5;0.75;1.25;0.25;0.5;-0.256348;0.02002;0.973145;-0.77;-0.91;0.91;409.0;-0.156303;-0.05002
2.02;8.25;6.75;5.25;4.25;1.0;0.5;0.0;0.25;1.5;0.25;0.5;0.5;0.25;1.25;0.0;0.25;-0.219727;0.021973;0.988281;-0.63;0.7;0.49;350.0;-0.245091;-0.014839;6.0;7.75;4.0;4.25;1.0;1.75;0.25;1.0;2.5;1.5;1.25;1.0;0.75;0.75;0.25;0.5;-0.260254;0.027344;0.976562;-0.7;-1.05;0.84;398.0;-0.168085;-0.051568
2.03;8.25;7.25;5.5;4.75;1.0;0.5;0.0;0.25;1.5;0.25;0.5;0.5;0.25;1.25;0.25;0.25;-0.227539;0.02002;0.98877;-0.63;0.84;0.56;367.0;-0.243211;-0.020014;6.0;7.75;4.0;4.25;1.0;1.75;0.25;1.0;2.5;1.5;1.0;1.25;0.75;0.75;0.5;0.5;-0.260742;0.023926;0.974609;-0.84;-0.98;0.7;401.0;-0.164069;-0.053084
2.04;7.75;7.0;5.5;4.75;1.0;0.5;0.0;0.25;1.5;0.25;0.5;0.5;0.25;1.5;0.0;0.25;-0.221191;0.018555;0.989258;-0.56;0.77;0.49;358.0;-0.240417;-0.019243;6.0;7.75;4.0;4.5;1.0;1.5;0.25;1.0;2.75;1.5;1.25;1.5;0.75;0.75;0.5;0.5;-0.257324;0.026855;0.972656;-0.84;-1.05;0.84;410.0;-0.156052;-0.052033
2.05;8.0;7.0;5.5;4.75;1.0;0.25;0.25;0.25;1.75;0.25;1.0;0.5;0.25;1.5;0.25;0.25;-0.221191;0.024902;0.986816;-0.63;0.7;0.56;374.0;-0.221973;-0.012527;6.0;8.0;4.0;4.5;1.0;1.5;0.25;1.0;2.5;1.5;1.0;1.25;0.75;1.0;0.5;0.25;-0.259766;0.020508;0.969727;-0.77;-0.98;0.84;404.0;-0.165257;-0.051165
2.06;8.25;7.0;5.5;4.75;1.0;0.25;0.25;0.25;1.75;0.25;1.0;0.5;0.25;1.25;0.25;0.25;-0.218262;0.022949;0.990723;-0.77;0.7;0.56;375.0;-0.227276;-0.012789;6.5;7.75;4.0;4.5;1.0;1.75;0.25;1.0;2.5;1.25;1.0;1.25;0.5;1.25;0.5;0.25;-0.256836;0.021973;0.978516;-0.7;-0.98;0.91;407.0;-0.168384;-0.046976
2.07;7.75;7.0;5.5;4.5;0.75;0.5;0.0;0.25;1.5;0.5;0.75;0.25;0.25;1.0;0.25;0.25;-0.22168;0.023926;0.985352;-0.56;0.84;0.49;353.0;-0.240341;-0.019138;6.0;7.75;3.75;4.25;1.0;1.75;0.25;0.75;2.75;1.25;1.0;1.5;0.5;1.0;0.5;0.25;-0.260742;0.025391;0.967773;-0.77;-0.98;0.77;396.0;-0.161839;-0.045504
2.08;8.25;7.0;5.5;4.5;1.0;0.5;0.0;0.25;1.5;0.5;0.75;0.25;0.25;1.25;0.25;0.25;-0.217285;0.018066;0.984863;-0.56;0.77;0.49;364.0;-0.237762;-0.015229;6.25;7.75;4.0;4.5;1.0;1.5;0.25;0.75;2.75;1.25;1.5;1.25;0.75;1.25;0.5;0.25;-0.255371;0.023926;0.969727;-0.84;-0.98;0.84;409.0;-0.157294;-0.043443
2.09;7.75;7.0;5.5;4.75;0.75;0.5;0.0;0.25;1.5;0.5;0.75;0.25;0.25;1.25;0.25;0.25;-0.220215;0.017578;0.993652;-0.63;0.77;0.49;358.0;-0.236506;-0.019585;6.0;7.25;4.0;4.5;1.0;1.25;0.25;1.0;2.75;1.0;1.5;1.5;0.75;1.0;0.5;0.25;-0.253906;0.027344;0.968262;-0.84;-0.98;0.7;400.0;-0.154313;-0.048756
2.1;8.0;7.0;5.75;4.75;1.0;0.5;0.25;0.25;1.5;0.25;0.75;0.25;0.25;1.25;0.0;0.25;-0.224121;0.019043;0.98877;-0.56;0.91;0.49;366.0;-0.242316;-0.014223;6.0;7.25;4.0;4.5;1.0;1.5;0.25;1.0;2.75;1.25;1.25;1.5;0.75;1.0;0.5;0.25;-0.26123;0.023438;0.97168;-0.7;-0.98;0.77;403.0;-0.154212;-0.049139
2.11;8.25;7.25;5.5;4.75;1.0;0.5;0.0;0.25;1.5;0.5;0.5;0.25;0.25;1.25;0.25;0.25;-0.22168;0.01709;0.988281;-0.56;0.7;0.49;367.0;-0.243017;-0.017195;6.0;7.75;4.0;4.25;1.0;1.5;0.25;1.0;2.5;1.5;1.0;1.5;0.5;1.25;0.5;0.5;-0.258301;0.027344;0.975098;-0.77;-1.05;0.77;403.0;-0.156795;-0.04815
2.12;8.0;7.25;5.75;4.25;1.0;0.5;0.0;0.25;1.5;0.5;0.5;0.25;0.25;1.25;0.25;0.25;-0.220215;0.023926;0.984375;-0.56;0.7;0.56;361.0;-0.241209;-0.013833;6.0;7.25;4.0;4.5;1.0;1.5;0.25;1.0;2.25;1.5;1.0;1.5;0.5;1.25;0.5;0.5;-0.25293;0.022461;0.968262;-0.77;-1.05;0.84;397.0;-0.158204;-0.050889
2.13;8.25;7.25;5.25;4.25;1.0;0.5;0.0;0.25;1.75;0.25;0.75;0.25;0.25;1.5;0.25;0.25;-0.220215;0.020508;0.985352;-0.56;0.84;0.56;363.0;-0.233083;-0.01196;6.0;7.5;4.0;4.25;1.0;1.5;0.25;1.0;2.25;1.25;1.0;1.25;0.75;0.75;0.75;0.25;-0.257812;0.026855;0.974121;-0.77;-0.98;0.84;390.0;-0.167119;-0.053756
2.14;8.25;6.75;5.25;4.5;1.0;0.5;0.0;0.25;1.75;0.5;0.5;0.25;0.25;1.5;0.25;0.0;-0.220703;0.021484;0.988281;-0.63;0.63;0.49;360.0;-0.233317;-0.008908;6.25;7.5;4.0;4.25;1.0;1.25;0.25;1.0;2.5;1.25;1.0;1.75;0.75;0.75;0.75;0.25;-0.258789;0.022461;0.972168;-0.77;-0.98;0.84;399.0;-0.159687;-0.051525
2.15;8.25;6.75;5.75;4.25;1.0;0.5;0.25;0.25;2.0;0.25;0.5;0.5;0.25;1.5;0.25;0.0;-0.219727;0.026855;0.987305;-0.56;0.77;0.56;371.0;-0.225394;-0.00281;6.0;7.5;4.0;4.5;1.0;1.5;0.25;1.0;2.5;1.5;1.0;1.75;0.75;0.75;0.5;0.5;-0.257324;0.027832;0.970215;-0.84;-0.98;0.84;404.0;-0.15818;-0.055495
2.16;8.25;7.25;5.75;4.5;1.0;0.5;0.25;0.25;1.75;0.25;0.75;0.25;0.25;1.25;0.25;0.25;-0.218262;0.017578;0.990234;-0.63;0.77;0.49;374.0;-0.234603;-0.010392;6.0;7.75;3.75;4.5;1.0;1.5;0.25;0.75;2.25;1.25;1.0;1.5;0.5;1.0;0.5;0.25;-0.254883;0.024414;0.973633;-0.84;-0.91;0.77;389.0;-0.170582;-0.051036
2.17;8.25;6.75;5.75;4.5;1.0;0.5;0.0;0.25;1.75;0.5;0.75;0.25;0.25;1.25;0.0;0.25;-0.222656;0.020508;0.984863;-0.63;0.7;0.56;365.0;-0.236985;-0.009954;6.0;7.5;4.0;4.5;1.0;1.5;0.25;1.0;2.25;1.25;1.0;1.5;0.5;1.25;0.25;0.25;-0.258301;0.027832;0.975586;-0.84;-0.98;0.77;393.0;-0.168835;-0.051241
2.18;8.0;6.75;5.75;4.75;1.0;0.5;0.0;0.25;1.75;0.5;0.75;0.0;0.25;1.5;0.25;0.25;-0.221191;0.025391;0.981445;-0.63;0.84;0.49;368.0;-0.230487;-0.009758;6.0;7.75;4.0;4.5;1.0;1.75;0.25;1.0;2.25;1.25;1.25;1.75;0.75;0.75;0.25;0.25;-0.257812;0.030273;0.976074;-0.84;-1.05;0.84;402.0;-0.169485;-0.06087
2.19;8.25;7.0;5.75;4.5;1.0;0.5;0.0;0.25;1.75;0.5;1.0;0.25;0.25;0.75;0.0;0.25;-0.217285;0.021484;0.98877;-0.7;0.77;0.56;366.0;-0.242846;-0.014238;6.0;7.75;4.0;4.25;1.0;1.25;0.25;1.0;2.5;1.5;1.25;1.25;0.5;0.75;0.25;0.5;-0.253906;0.023926;0.966309;-0.77;-1.05;0.84;392.0;-0.167583;-0.047546
2.2;7.75;7.0;5.25;4.5;1.0;0.5;0.25;0.25;2.0;0.5;1.0;0.25;0.25;0.75;0.0;0.25;-0.21875;0.024414;0.985352;-0.7;0.84;0.56;362.0;-0.231344;-0.012134;6.0;7.25;4.0;4.25;1.0;1.0;0.25;1.0;2.5;1.5;0.75;1.25;0.5;0.75;0.5;0.5;-0.255371;0.025391;0.97168;-0.91;-1.12;0.84;382.0;-0.165991;-0.043458
2.21;8.0;7.0;5.25;4.75;0.75;0.5;0.25;0.25;1.5;0.5;0.5;0.25;0.25;1.0;0.25;0.25;-0.222168;0.021484;0.986328;-0.63;0.63;0.49;357.0;-0.241851;-0.016984;6.0;7.25;4.0;4.25;1.0;1.25;0.25;1.0;2.5;1.5;0.75;1.25;0.75;1.0;0.75;0.25;-0.254395;0.025391;0.976074;-0.77;-0.98;0.84;391.0;-0.158212;-0.045671
2.22;8.0;7.0;5.5;4.75;0.75;0.5;0.25;0.25;1.75;0.0;0.5;0.25;0.25;0.75;0.25;0.25;-0.217285;0.020996;0.990723;-0.63;0.63;0.56;356.0;-0.249024;-0.015707;6.0;7.25;3.75;4.25;1.0;1.25;0.25;1.0;2.5;1.5;1.25;1.5;0.75;0.75;0.25;0.25;-0.257812;0.023438;0.97168;-0.77;-1.05;0.77;388.0;-0.160755;-0.05042
2.23;8.0;7.0;5.75;4.25;1.0;0.5;0.25;0.25;1.75;0.25;0.25;0.25;0.25;0.75;0.25;0.25;-0.216309;0.026367;0.987305;-0.56;0.7;0.56;356.0;-0.247379;-0.009188;6.0;7.5;4.0;4.25;1.0;1.25;0.25;1.0;2.75;1.5;1.25;1.25;0.75;0.75;0.25;0.5;-0.256836;0.023926;0.972656;-0.84;-1.05;0.84;396.0;-0.160163;-0.046346
2.24;8.25;7.25;5.5;4.5;1.0;0.5;0.25;0.25;1.75;0.25;0.5;0.25;0.25;1.25;0.25;0.25;-0.21875;0.018555;0.984375;-0.7;0.91;0.56;368.0;-0.237922;-0.010398;6.0;6.75;4.0;4.5;1.0;1.25;0.25;1.0;2.5;1.5;1.25;1.25;0.75;1.0;0.25;0.5;-0.259277;0.023438;0.971191;-0.77;-1.05;0.84;390.0;-0.156581;-0.047003
2.25;8.25;7.0;5.25;4.5;1.0;0.5;0.25;0.25;1.75;0.25;0.5;0.5;0.25;1.25;0.25;0.25;-0.223633;0.02002;0.98584;-0.77;0.77;0.49;366.0;-0.23294;-0.012405;6.0;7.0;4.0;4.25;1.0;1.25;0.25;1.0;2.25;1.25;1.0;1.25;0.75;0.75;0.25;0.5;-0.259766;0.024902;0.969727;-0.84;-0.98;0.84;378.0;-0.170559;-0.051119
2.26;8.25;7.0;5.5;4.75;1.0;0.5;0.25;0.0;1.75;0.25;0.5;0.5;0.25;1.25;0.25;0.0;-0.221191;0.023926;0.981934;-0.56;0.77;0.49;366.0;-0.238567;-0.007766;6.0;7.5;4.0;4.5;0.75;1.25;0.25;1.0;2.5;1.5;1.0;1.25;0.75;0.75;0.25;0.5;-0.251465;0.018555;0.971191;-0.84;-1.05;0.84;389.0;-0.168073;-0.050984
2.27;8.25;7.25;5.5;4.75;1.0;0.75;0.0;0.25;1.75;0.25;0.75;0.5;0.25;1.25;0.25;0.25;-0.21875;0.017578;0.987793;-0.7;0.77;0.56;376.0;-0.234172;-0.019944;6.25;7.5;4.0;4.5;1.0;1.25;0.25;1.0;2.75;1.5;1.0;1.25;0.75;0.5;0.25;0.5;-0.25293;0.023926;0.975586;-0.84;-1.05;0.84;397.0;-0.168999;-0.047398
2.28;8.0;7.25;5.25;4.5;1.0;0.75;0.25;0.25;1.75;0.5;1.0;0.5;0.25;1.25;0.25;0.25;-0.223633;0.019043;0.982422;-0.56;0.7;0.49;377.0;-0.221722;-0.017393;6.5;7.25;4.0;4.5;1.25;1.5;0.25;1.0;2.5;1.5;1.25;1.25;0.75;0.5;0.0;0.5;-0.256348;0.025391;0.976562;-0.77;-1.05;0.84;399.0;-0.173764;-0.049527
2.29;8.0;7.25;5.25;4.5;1.0;0.75;0.25;0.25;1.75;0.5;0.5;0.5;0.25;1.5;0.25;0.25;-0.21875;0.025391;0.986328;-0.63;0.77;0.56;374.0;-0.224634;-0.014672;6.0;7.75;4.0;4.25;1.25;1.75;0.25;1.0;2.5;1.5;1.0;1.25;0.75;0.75;0.25;0.25;-0.259766;0.026367;0.973145;-0.84;-0.91;0.91;399.0;-0.169825;-0.051049
2.3;8.25;7.25;5.5;4.75;1.0;0.5;0.25;0.25;1.75;0.5;1.0;0.25;0.25;1.5;0.25;0.25;-0.219727;0.02002;0.98877;-0.63;0.77;0.63;382.0;-0.223867;-0.011963;6.0;7.25;4.0;4.5;1.0;1.25;0.5;1.0;2.75;1.5;1.0;1.25;0.75;1.0;0.25;0.5;-0.256348;0.025391;0.97168;-0.84;-1.05;0.84;400.0;-0.156461;-0.042156
2.31;8.25;7.25;5.75;4.75;1.0;0.5;0.25;0.25;1.75;0.5;0.75;0.25;0.25;1.25;0.25;0.25;-0.220215;0.020996;0.980957;-0.56;0.84;0.56;380.0;-0.23147;-0.011528;6.0;7.25;4.0;4.5;1.0;1.25;0.25;1.0;2.75;1.5;1.25;1.25;0.75;0.75;0.25;0.5;-0.25;0.026855;0.975586;-0.84;-1.05;0.84;396.0;-0.159495;-0.046934
2.32;7.75;7.0;5.75;4.75;1.25;0.75;0.25;0.25;1.5;0.25;0.5;0.25;0.25;1.5;0.25;0.25;-0.221191;0.024414;0.989746;-0.63;0.7;0.42;371.0;-0.233911;-0.015165;6.0;7.25;4.0;4.5;1.0;1.5;0.25;1.0;2.5;1.5;1.5;1.75;0.75;0.75;0.25;0.5;-0.250488;0.021484;0.974609;-0.91;-0.91;0.77;404.0;-0.155146;-0.055471
2.33;8.25;7.0;5.75;4.25;1.25;0.75;0.25;0.25;1.5;0.25;0.75;0.5;0.25;1.5;0.25;0.25;-0.217773;0.017578;0.98584;-0.63;0.7;0.49;376.0;-0.228718;-0.012873;6.0;7.5;4.0;4.5;1.0;1.25;0.25;0.75;2.75;1.25;1.25;1.75;0.75;0.75;0.25;0.5;-0.254395;0.024902;0.96875;-0.91;-0.91;0.77;398.0;-0.160188;-0.048477
2.34;8.25;7.0;5.75;4.25;1.0;0.5;0.25;0.25;1.5;0.5;0.75;0.25;0.0;1.25;0.25;0.5;-0.216309;0.024902;0.991699;-0.63;0.63;0.56;367.0;-0.234217;-0.0081;6.0;7.5;4.0;4.25;1.0;1.25;0.25;1.0;2.75;1.5;1.0;1.75;0.75;0.75;0.25;0.5;-0.256348;0.025391;0.969727;-0.84;-0.84;0.84;399.0;-0.157601;-0.04945
2.35;8.25;7.25;5.5;4.5;1.0;0.5;0.25;0.25;1.75;0.25;0.75;0.25;0.0;1.25;0.0;0.25;-0.223633;0.015625;0.985352;-0.63;0.77;0.56;366.0;-0.241973;-0.007758;6.0;7.5;4.0;4.25;1.0;1.5;0.25;1.0;2.75;1.5;0.75;1.25;0.75;0.75;0.25;0.25;-0.257324;0.030273;0.973145;-0.91;-1.05;0.7;392.0;-0.16771;-0.04604
2.36;8.25;7.25;5.5;4.5;1.0;0.5;0.25;0.25;1.75;0.25;0.75;0.25;0.25;1.0;0.0;0.25;-0.223633;0.022461;0.984863;-0.7;0.7;0.63;366.0;-0.243477;-0.011853;6.0;7.25;4.0;4.5;1.0;1.25;0.25;0.75;2.75;1.25;1.0;1.5;0.75;1.0;0.5;0.5;-0.257324;0.030762;0.970703;-0.77;-0.98;0.77;395.0;-0.156548;-0.044345
2.37;8.0;7.25;5.25;4.5;1.0;0.5;0.0;0.0;1.75;0.5;0.25;0.25;0.25;0.75;0.25;0.25;-0.223633;0.02832;0.986816;-0.77;0.77;0.56;350.0;-0.251321;-0.011702;6.0;7.25;4.0;4.25;1.0;1.25;0.25;0.75;2.75;1.25;0.75;1.75;0.5;1.0;0.25;0.25;-0.253418;0.026367;0.975098;-0.84;-0.91;0.77;385.0;-0.16382;-0.040419
2.38;8.25;7.0;5.75;4.5;1.25;0.75;0.25;0.0;1.75;0.5;0.5;0.25;0.25;1.0;0.25;0.25;-0.221191;0.021973;0.984375;-0.7;0.56;0.63;371.0;-0.238273;-0.006376;6.25;7.5;4.0;4.0;1.0;1.5;0.25;0.75;2.75;1.0;0.75;1.25;0.75;1.25;0.25;0.25;-0.258789;0.023926;0.977051;-0.84;-0.98;0.7;386.0;-0.169212;-0.038719
2.39;8.25;7.0;5.75;4.75;1.0;0.75;0.25;0.25;1.75;0.5;0.75;0.25;0.25;1.0;0.25;0.25;-0.219238;0.025391;0.992188;-0.7;0.63;0.56;378.0;-0.233565;-0.013714;6.0;7.5;4.0;4.25;1.0;1.25;0.25;1.0;2.75;1.5;1.25;1.25;0.75;1.25;0.5;0.5;-0.257812;0.021973;0.970703;-0.91;-0.98;0.77;403.0;-0.149535;-0.044021
2.4;8.0;7.0;5.75;4.75;0.75;0.5;0.25;0.25;1.25;0.5;0.75;0.5;0.25;0.75;0.25;0.25;-0.220703;0.022949;0.984863;-0.63;0.56;0.7;363.0;-0.244077;-0.022307;6.0;7.5;4.0;4.25;1.0;1.25;0.25;1.0;2.75;1.5;1.0;1.5;0.75;1.0;0.5;0.5;-0.256348;0.027832;0.971191;-0.84;-1.05;0.84;401.0;-0.152893;-0.0466
2.41;8.25;7.0;5.75;4.75;1.0;0.5;0.25;0.0;1.25;0.5;1.25;0.5;0.25;1.0;0.25;0.25;-0.22168;0.022461;0.987793;-0.7;0.77;0.63;373.0;-0.235614;-0.0167;6.0;7.5;4.0;4.25;1.0;1.75;0.25;1.0;2.75;1.25;1.0;1.5;1.0;1.0;0.5;0.25;-0.254883;0.023438;0.969727;-1.05;-1.05;0.84;405.0;-0.155645;-0.052136
2.42;8.5;7.0;5.75;4.75;1.0;0.5;0.25;0.0;1.75;0.25;1.0;0.25;0.25;1.0;0.25;0.25;-0.227051;0.024902;0.987305;-0.7;0.56;0.56;374.0;-0.238046;-0.007888;6.0;7.5;4.0;4.5;1.0;1.25;0.25;1.0;2.75;1.25;0.75;1.25;0.75;1.25;0.5;0.25;-0.258789;0.025879;0.969727;-0.91;-1.05;0.91;396.0;-0.1607;-0.044119
2.43;8.25;7.0;5.75;4.75;1.0;0.5;0.25;0.25;1.5;0.25;0.5;0.25;0.25;1.0;0.0;0.25;-0.221191;0.026855;0.989746;-0.77;0.49;0.56;363.0;-0.251442;-0.01369;6.0;7.25;4.0;4.5;1.25;1.25;0.25;1.0;2.5;1.25;0.75;1.25;0.75;1.25;0.25;0.5;-0.258789;0.023438;0.969238;-0.98;-1.05;0.77;392.0;-0.164778;-0.046173
2.44;8.25;7.25;5.75;4.75;1.0;0.5;0.25;0.25;1.5;0.25;0.75;0.25;0.25;1.0;0.0;0.5;-0.22168;0.023438;0.986328;-0.77;0.7;0.56;370.0;-0.246428;-0.016719;6.25;7.75;4.0;4.5;1.25;1.25;0.25;0.75;2.25;1.0;0.75;1.25;0.75;1.25;0.25;0.5;-0.254883;0.024414;0.973145;-0.84;-1.05;0.84;389.0;-0.178236;-0.046652
2.45;8.5;7.0;6.0;4.75;1.0;0.5;0.25;0.25;1.75;0.25;0.5;0.25;0.25;1.25;0.25;0.5;-0.220703;0.019531;0.993652;-0.77;0.7;0.63;379.0;-0.236467;-0.00975;6.25;7.5;4.0;4.25;0.75;1.25;0.25;0.75;2.25;1.5;0.75;1.5;0.75;0.75;0.25;0.5;-0.258301;0.022949;0.977539;-0.84;-0.91;0.84;382.0;-0.174664;-0.049124
2.46;8.0;7.25;6.0;4.75;1.0;0.75;0.25;0.25;1.75;0.5;0.5;0.25;0.25;1.0;0.25;0.5;-0.224609;0.020508;0.989746;-0.84;0.91;0.49;380.0;-0.234915;-0.015212;6.0;7.5;4.0;4.25;0.75;1.25;0.25;0.75;2.75;1.5;0.75;1.5;0.5;0.75;0.25;0.5;-0.26123;0.025879;0.969727;-0.91;-1.05;0.84;384.0;-0.167051;-0.041725
2.47;8.0;7.25;6.0;4.75;1.0;0.75;0.25;0.25;2.0;0.25;0.75;0.25;0.25;1.25;0.25;0.5;-0.223633;0.022949;0.989746;-0.84;0.7;0.49;386.0;-0.226546;-0.012696;6.5;7.75;4.0;4.5;1.0;1.75;0.25;1.0;2.5;1.0;0.75;1.25;0.75;0.75;0.25;0.5;-0.254395;0.027832;0.970703;-0.91;-1.05;0.84;398.0;-0.181097;-0.053085
2.48;8.0;7.25;6.0;4.75;1.0;0.75;0.25;0.25;2.0;0.25;1.0;0.5;0.25;1.0;0.25;0.0;-0.21875;0.021973;0.986816;-0.63;0.7;0.49;386.0;-0.228291;-0.014409;6.5;7.75;4.0;4.5;1.0;1.75;0.25;1.0;2.25;1.0;0.75;1.25;0.5;0.75;0.5;0.25;-0.254395;0.030273;0.96582;-0.98;-1.05;0.84;393.0;-0.184921;-0.052848
2.49;8.25;7.25;6.0;4.75;1.0;1.0;0.25;0.25;1.75;0.25;0.5;0.25;0.25;1.0;0.25;0.25;-0.218262;0.02002;0.98877;-0.7;0.84;0.49;381.0;-0.241378;-0.015732;6.0;7.75;4.25;4.5;1.0;1.5;0.25;0.75;2.25;1.25;0.75;1.25;0.5;0.75;0.25;0.25;-0.255859;0.021973;0.97168;-1.05;-0.98;0.91;384.0;-0.185743;-0.047635
2.5;8.25;7.0;6.0;5.0;1.0;0.75;0.25;0.25;1.25;0.0;0.5;0.5;0.25;1.5;0.25;0.25;-0.21875;0.024902;0.991699;-0.84;0.84;0.42;376.0;-0.24286;-0.020233;6.0;7.75;4.0;4.5;1.0;1.5;0.25;0.75;2.25;1.25;0.75;1.25;0.5;1.25;0.0;0.25;-0.252441;0.02002;0.968262;-0.98;-0.98;0.91;382.0;-0.182291;-0.045733
2.51;8.25;7.5;6.0;5.0;1.0;0.5;0.25;0.25;1.5;0.25;0.5;0.5;0.25;1.5;0.25;0.0;-0.223145;0.019531;0.991211;-0.63;0.84;0.56;383.0;-0.239938;-0.015684;6.25;7.75;4.0;4.5;1.0;1.0;0.25;0.5;2.25;1.25;1.0;1.25;0.75;0.75;0.0;0.25;-0.255859;0.029297;0.970703;-0.98;-0.91;0.77;376.0;-0.188354;-0.043038
2.52;7.75;7.5;5.75;5.0;1.0;0.5;0.25;0.25;1.5;0.25;0.5;0.25;0.25;1.25;0.25;0.25;-0.225586;0.016602;0.98877;-0.63;0.7;0.56;371.0;-0.24241;-0.018672;6.5;7.75;5.0;4.5;1.0;1.0;0.25;0.75;2.25;1.25;0.75;1.25;0.75;0.75;0.0;0.25;-0.260254;0.021973;0.976074;-1.05;-0.98;0.84;392.0;-0.193458;-0.040997
2.53;8.0;7.0;5.75;4.75;1.0;0.5;0.25;0.25;1.5;0.25;0.75;0.25;0.25;1.25;0.25;0.25;-0.222656;0.024902;0.991211;-0.63;0.84;0.42;368.0;-0.237259;-0.014752;6.75;7.75;4.25;4.5;1.0;1.25;0.25;1.0;2.25;1.75;0.75;1.25;0.75;0.75;0.25;0.25;-0.257812;0.023438;0.967773;-0.98;-0.98;0.84;401.0;-0.180674;-0.047076
2.54;7.75;7.0;5.75;5.0;1.0;0.5;0.25;0.25;1.75;0.25;0.75;0.5;0.25;1.25;0.25;0.25;-0.220215;0.023926;0.98584;-0.56;0.77;0.56;375.0;-0.228273;-0.016767;6.75;7.75;4.0;4.25;1.0;1.25;0.25;0.75;2.25;1.25;1.25;1.25;0.75;0.75;0.25;0.25;-0.25293;0.019531;0.970703;-0.91;-0.91;0.84;391.0;-0.181159;-0.045726
2.55;8.0;7.0;5.75;5.0;1.0;0.5;0.25;0.25;1.5;0.25;0.75;0.5;0.25;1.5;0.25;0.25;-0.223145;0.022461;0.98877;-0.56;0.7;0.56;377.0;-0.23024;-0.017389;6.0;7.75;4.0;4.25;1.0;1.25;0.25;0.75;2.25;1.0;0.75;1.25;0.75;0.75;0.25;0.25;-0.252441;0.024414;0.972656;-0.98;-1.05;0.77;374.0;-0.185546;-0.048993
2.56;8.25;7.0;5.75;5.0;1.0;0.5;0.25;0.25;1.75;0.25;0.75;0.25;0.25;1.25;0.25;0.25;-0.21875;0.023926;0.986816;-0.56;0.77;0.49;378.0;-0.234229;-0.012757;6.25;7.75;4.25;4.5;1.0;1.25;0.25;1.0;2.25;1.0;0.75;1.25;0.75;1.0;0.25;0.25;-0.260254;0.024414;0.971191;-0.98;-0.98;0.77;390.0;-0.183123;-0.05043
2.57;8.25;7.25;5.75;5.0;0.75;0.5;0.25;0.0;1.75;0.25;1.0;0.25;0.25;1.5;0.25;0.0;-0.220703;0.023438;0.991699;-0.63;0.77;0.49;377.0;-0.23363;-0.008613;6.0;7.75;4.0;4.25;1.0;1.25;0.25;0.75;2.25;1.25;0.75;1.5;0.75;1.0;0.25;0.25;-0.255859;0.022461;0.970703;-1.05;-1.12;0.77;382.0;-0.175773;-0.048636
2.58;7.75;7.25;5.75;4.75;0.75;0.5;0.25;0.0;1.5;0.25;0.75;0.25;0.25;1.25;0.25;0.25;-0.223633;0.021973;0.991211;-0.7;0.77;0.49;361.0;-0.240735;-0.013062;6.25;7.75;4.0;4.25;1.0;1.25;0.25;0.75;2.25;1.0;1.0;1.5;0.75;1.25;0.25;0.25;-0.257324;0.03125;0.975586;-1.05;-0.98;0.84;387.0;-0.173997;-0.047452
2.59;7.75;7.5;5.75;4.75;0.75;0.5;0.25;0.0;1.75;0.25;0.75;0.25;0.25;1.25;0.25;0.25;-0.21875;0.026367;0.987305;-0.63;0.91;0.42;367.0;-0.2371;-0.011312;6.5;7.75;4.0;4.25;1.0;1.5;0.25;0.75;2.25;1.0;0.75;1.5;0.75;1.25;0.5;0.25;-0.25293;0.024414;0.969727;-1.05;-1.05;0.77;393.0;-0.17415;-0.047788
2.6;8.0;7.5;6.0;4.75;1.0;0.5;0.25;0.0;1.5;0.25;0.75;0.25;0.25;1.25;0.25;0.25;-0.214844;0.023926;0.985352;-0.7;0.84;0.42;372.0;-0.242434;-0.011733;6.5;7.75;4.0;4.25;1.0;1.25;0.25;0.75;2.75;1.0;0.75;1.5;0.75;1.0;0.5;0.25;-0.253906;0.026367;0.973145;-1.05;-1.05;0.77;395.0;-0.169969;-0.041586
2.61;8.25;7.5;5.5;4.75;1.0;0.75;0.25;0.0;1.5;0.25;0.75;0.5;0.25;1.25;0.25;0.25;-0.226074;0.016602;0.98584;-0.7;0.84;0.49;375.0;-0.239087;-0.016721;6.5;7.5;4.0;4.25;1.0;1.25;0.25;0.75;2.75;1.5;0.75;1.5;0.5;1.25;0.5;0.25;-0.253906;0.022949;0.970215;-0.91;-1.12;0.7;398.0;-0.161159;-0.03553
2.62;7.75;7.25;5.5;4.75;0.75;0.5;0.25;0.0;1.75;0.25;1.0;0.5;0.25;1.5;0.0;0.25;-0.22168;0.024414;0.98291;-0.77;0.77;0.49;367.0;-0.229439;-0.012386;6.5;7.75;4.0;4.5;1.0;1.25;0.25;0.75;2.75;1.5;0.75;1.5;0.75;0.75;0.5;0.5;-0.255371;0.026855;0.975098;-0.98;-0.98;0.84;403.0;-0.16646;-0.043725
2.63;7.75;7.0;5.75;4.75;1.0;0.5;0.25;0.0;1.5;0.25;1.0;0.25;0.25;1.25;0.0;0.25;-0.220215;0.023438;0.983887;-0.7;0.7;0.49;361.0;-0.239999;-0.011642;6.25;7.75;4.25;4.5;1.0;1.25;0.25;0.75;2.75;1.25;0.75;1.25;0.75;0.75;0.25;0.5;-0.258301;0.027344;0.977051;-0.84;-1.05;0.84;395.0;-0.175371;-0.042447
2.64;8.25;7.0;5.75;4.75;1.0;0.5;0.25;0.25;2.0;0.5;0.75;0.25;0.25;1.0;0.0;0.25;-0.220703;0.019531;0.985352;-0.56;0.7;0.56;376.0;-0.234436;-0.008403;6.25;7.75;4.0;4.5;1.0;1.25;0.25;0.75;2.5;1.25;0.75;1.25;0.75;0.75;0.25;0.5;-0.259766;0.018555;0.969238;-0.91;-1.05;0.84;388.0;-0.178642;-0.046403
2.65;8.5;7.0;5.75;5.0;1.0;0.5;0.25;0.25;1.75;0.5;0.75;0.25;0.25;1.25;0.25;0.25;-0.219238;0.018555;0.98877;-0.7;0.91;0.42;384.0;-0.231959;-0.011291;6.25;7.5;4.0;4.5;1.0;1.25;0.25;0.75;2.75;1.5;0.5;1.25;0.75;1.25;0.5;0.5;-0.257324;0.023438;0.973633;-0.91;-0.98;0.84;396.0;-0.161956;-0.039091
2.66;8.25;7.0;5.75;4.75;1.0;0.75;0.25;0.25;2.0;0.5;0.5;0.5;0.25;1.5;0.25;0.25;-0.219727;0.023926;0.988281;-0.7;0.84;0.49;387.0;-0.221373;-0.010098;6.25;7.5;4.25;4.5;1.0;1.25;0.25;0.75;2.75;1.0;0.5;1.25;0.25;1.25;0.5;0.5;-0.258301;0.023438;0.976562;-0.98;-0.91;0.84;389.0;-0.172658;-0.034475
2.67;8.0;7.0;6.0;4.5;1.0;0.75;0.25;0.25;2.0;0.5;0.75;0.25;0.25;1.25;0.25;0.25;-0.220215;0.025391;0.987793;-0.63;0.77;0.49;381.0;-0.223611;-0.008275;6.0;7.5;4.0;4.5;1.0;1.25;0.25;0.75;2.25;1.0;0.75;1.0;0.25;1.0;0.5;0.25;-0.260742;0.023926;0.978516;-0.98;-0.98;0.77;372.0;-0.184049;-0.041328
2.68;7.75;7.5;6.0;4.75;1.0;0.75;0.25;0.25;1.75;0.5;0.75;0.5;0.25;1.25;0.25;0.25;-0.219238;0.019043;0.988281;-0.49;0.49;0.56;386.0;-0.226529;-0.017643;6.0;7.25;4.0;4.5;1.0;1.25;0.25;0.75;2.25;0.75;0.75;1.0;0.5;1.0;0.5;0.25;-0.254395;0.027832;0.96875;-0.84;-0.98;0.77;369.0;-0.183475;-0.043966
2.69;8.0;7.25;5.5;4.75;1.0;0.75;0.25;0.25;1.75;0.5;0.75;0.25;0.25;1.25;0.25;0.25;-0.219238;0.01709;0.98584;-0.7;0.7;0.56;377.0;-0.229281;-0.015306;6.0;7.25;3.75;4.25;1.0;1.25;0.25;1.0;2.5;1.0;0.75;1.25;0.5;0.75;0.5;0.5;-0.258301;0.025391;0.97168;-0.84;-0.98;0.77;376.0;-0.171222;-0.047975
2.7;8.0;7.0;5.5;4.75;1.0;0.75;0.25;0.25;1.75;0.5;0.5;0.25;0.25;1.25;0.25;0.25;-0.22168;0.023438;0.992676;-0.7;0.63;0.49;372.0;-0.231512;-0.013511;6.5;7.5;3.75;4.25;1.0;1.25;0.5;1.0;2.75;1.5;0.75;1.25;0.5;0.75;0.5;0.5;-0.257324;0.026855;0.975586;-0.84;-0.98;0.84;397.0;-0.163738;-0.038979
2.71;8.5;7.25;5.75;4.75;1.0;0.5;0.25;0.25;2.0;0.5;0.5;0.5;0.25;1.25;0.25;0.25;-0.223145;0.02002;0.988281;-0.77;0.49;0.49;387.0;-0.228315;-0.00935;6.0;7.5;4.0;4.25;1.0;1.25;0.5;1.0;2.75;1.5;0.75;1.25;0.5;0.75;0.25;0.5;-0.257812;0.023438;0.972656;-0.7;-0.98;0.77;392.0;-0.165251;-0.039799
2.72;7.75;7.0;5.75;4.75;1.0;0.5;0.25;0.25;1.75;0.5;0.75;0.25;0.25;1.5;0.25;0.5;-0.216797;0.026367;0.98877;-0.84;0.84;0.49;376.0;-0.22133;-0.012326;6.5;7.0;4.0;4.25;1.0;1.25;0.25;0.75;2.75;1.5;0.75;1.25;0.5;1.0;0.25;0.25;-0.252441;0.025391;0.973145;-0.84;-1.05;0.84;385.0;-0.168276;-0.032811
2.73;7.75;7.0;5.75;4.25;1.0;0.5;0.25;0.25;1.75;0.5;0.75;0.25;0.25;1.25;0.25;0.25;-0.222656;0.019043;0.990723;-0.77;0.84;0.49;366.0;-0.226619;-0.00883;6.5;7.0;3.75;4.25;1.0;1.25;0.5;0.5;2.75;1.5;0.75;1.25;0.5;1.0;0.25;0.25;-0.259766;0.020996;0.971191;-0.84;-0.98;0.84;382.0;-0.166519;-0.026904
2.74;8.25;7.0;5.75;4.75;1.0;0.5;0.25;0.25;2.25;0.25;1.0;0.5;0.25;1.25;0.25;0.25;-0.21875;0.021973;0.989746;-0.84;0.77;0.49;388.0;-0.218078;-0.008686;6.0;6.75;4.0;4.25;1.0;1.25;0.5;0.75;2.75;1.5;0.75;1.25;0.5;1.0;0.25;0.25;-0.260254;0.027832;0.968262;-0.84;-0.98;0.84;381.0;-0.160457;-0.031057
2.75;8.0;7.0;5.75;4.75;1.0;0.5;0.25;0.25;2.25;0.375;0.75;0.5;0.25;1.125;0.25;0.25;-0.218994;0.02417;0.991699;-0.77;0.8049999999999999;0.49;382.5;-0.22027049999999998;-0.0090555;6.0;6.75;4.0;4.25;1.0;1.5;0.25;1.0;2.75;1.5;1.0;1.25;0.5;1.0;0.25;0.25;-0.258789;0.020996;0.969727;-0.77;-0.91;0.77;387.0;-0.158506;-0.040338
2.76;7.75;7.0;5.75;4.75;1.0;0.5;0.25;0.25;2.25;0.5;0.5;0.5;0.25;1.0;0.25;0.25;-0.219238;0.026367;0.993652;-0.7;0.84;0.49;377.0;-0.222463;-0.009425;6.0;6.75;4.0;4.25;1.0;1.25;0.5;1.0;2.75;1.5;0.75;1.25;0.25;1.25;0.25;0.25;-0.256348;0.022949;0.971191;-0.84;-0.91;0.84;385.0;-0.157418;-0.031066
2.77;8.0;7.0;6.0;4.75;1.0;0.5;0.25;0.25;2.0;0.5;0.5;0.5;0.25;1.0;0.25;0.25;-0.220215;0.023438;0.987305;-0.77;0.7;0.49;379.0;-0.228674;-0.010424;6.0;7.25;3.75;4.25;1.0;1.25;0.25;1.0;2.75;1.5;0.5;1.25;0.25;1.5;0.25;0.5;-0.256836;0.022949;0.970215;-0.77;-1.05;0.84;384.0;-0.159924;-0.035926
2.78;8.25;7.0;6.0;4.75;1.0;0.5;0.25;0.0;2.0;0.5;0.5;0.25;0.25;1.25;0.5;0.25;-0.225098;0.026855;0.985352;-0.84;0.42;0.56;380.0;-0.226948;-0.002588;6.0;7.25;4.0;4.25;1.0;1.25;0.25;1.0;2.75;1.25;0.5;1.25;0.5;1.0;0.25;0.5;-0.257812;0.026367;0.970215;-0.77;-0.91;0.77;382.0;-0.168677;-0.040891
2.79;7.75;7.0;5.75;4.75;1.0;0.5;0.25;0.25;2.0;0.5;0.75;0.25;0.25;1.25;0.25;0.25;-0.21582;0.023438;0.98584;-0.77;0.42;0.49;376.0;-0.222993;-0.009583;6.0;7.5;4.0;4.25;1.0;1.25;0.5;0.75;2.5;1.25;0.75;1.25;0.5;1.0;0.0;0.5;-0.259277;0.022461;0.972168;-0.84;-0.91;0.77;381.0;-0.174701;-0.03803
2.8;7.75;7.125;5.75;4.75;1.0;0.5;0.25;0.25;2.0;0.5;0.875;0.25;0.25;1.375;0.125;0.25;-0.217529;0.0246585;0.988037;-0.8049999999999999;0.42;0.49;378.0;-0.222384;-0.009656;6.0;7.0;4.0;4.25;1.0;1.25;0.5;0.75;2.75;1.25;0.75;1.5;0.5;1.0;0.25;0.5;-0.259277;0.020508;0.97168;-0.84;-0.91;0.84;385.0;-0.160327;-0.035709
2.81;7.75;7.25;5.75;4.75;1.0;0.5;0.25;0.25;2.0;0.5;1.0;0.25;0.25;1.5;0.0;0.25;-0.219238;0.025879;0.990234;-0.84;0.42;0.49;380.0;-0.221775;-0.009729;6.0;7.0;4.0;4.25;1.0;1.5;0.5;0.75;2.75;1.25;0.75;1.5;0.5;1.25;0.25;0.5;-0.258789;0.023926;0.975098;-0.84;-0.91;0.84;390.0;-0.156858;-0.036248
2.82;8.25;7.0;6.0;4.75;1.0;0.75;0.25;0.25;2.0;0.5;1.0;0.25;0.25;1.0;0.25;0.25;-0.223145;0.020508;0.983398;-0.7;0.63;0.56;388.0;-0.225909;-0.011002;6.0;6.75;4.0;4.0;0.75;1.25;0.25;0.5;2.75;1.5;0.75;1.25;0.5;1.25;0.5;0.5;-0.254883;0.024902;0.969727;-0.91;-0.77;0.84;373.0;-0.154037;-0.029454
2.83;8.0;7.25;6.0;4.75;1.0;0.5;0.25;0.25;2.0;0.5;1.0;0.25;0.25;1.0;0.25;0.25;-0.22168;0.023926;0.985352;-0.7;0.77;0.63;385.0;-0.226424;-0.010874;6.0;6.75;3.75;4.0;0.75;1.0;0.5;0.75;2.75;1.5;0.75;1.0;0.5;0.75;0.5;0.5;-0.253906;0.023926;0.972168;-0.91;-0.84;0.77;368.0;-0.158889;-0.030053
2.84;8.0;7.25;6.0;4.75;1.0;0.5;0.25;0.25;2.0;0.5;1.0;0.25;0.25;1.25;0.25;0.25;-0.218262;0.023926;0.98877;-0.7;0.84;0.49;387.0;-0.22259;-0.009743;6.0;6.5;4.0;4.25;1.0;1.0;0.25;0.75;2.75;1.25;0.75;1.0;0.5;0.75;0.25;0.5;-0.257324;0.027832;0.975098;-0.91;-0.84;0.77;365.0;-0.169043;-0.032365
2.85;8.25;7.0;6.25;4.75;1.0;0.5;0.25;0.25;2.0;0.5;1.0;0.25;0.25;1.0;0.0;0.0;-0.21875;0.018555;0.992676;-0.7;0.91;0.49;384.0;-0.233794;-0.006473;6.0;6.75;3.75;4.25;1.0;1.0;0.5;0.75;2.75;1.25;0.5;1.25;0.5;1.0;0.25;0.5;-0.256348;0.032227;0.969727;-0.91;-0.84;0.7;371.0;-0.163632;-0.031309
2.86;8.375;7.0;6.25;4.75;1.0;0.5;0.25;0.25;1.875;0.625;1.0;0.25;0.25;1.25;0.0;0.125;-0.22045900000000002;0.016846;0.9899905;-0.63;0.8400000000000001;0.56;388.0;-0.22997;-0.006572;5.75;6.5;3.75;4.25;1.0;1.0;0.5;0.75;2.75;1.5;0.75;1.25;0.5;1.0;0.25;0.5;-0.26123;0.027344;0.97168;-0.91;-0.91;0.77;371.0;-0.15399;-0.031384
2.87;8.5;7.0;6.25;4.75;1.0;0.5;0.25;0.25;1.75;0.75;1.0;0.25;0.25;1.5;0.0;0.25;-0.222168;0.015137;0.987305;-0.56;0.77;0.63;392.0;-0.226146;-0.006671;5.0;6.0;3.75;3.75;1.0;1.0;0.5;0.75;2.75;1.5;1.0;1.25;0.5;1.25;0.5;0.5;-0.259766;0.023926;0.974121;-0.84;-0.91;0.77;360.0;-0.131046;-0.029307
2.88;8.25;7.25;6.25;4.75;1.0;0.5;0.25;0.25;2.0;0.5;1.0;0.5;0.5;1.25;0.25;0.0;-0.223633;0.022461;0.986816;-0.56;0.77;0.49;397.0;-0.220923;-0.011762;5.5;6.0;3.75;3.75;1.0;1.0;0.5;0.75;2.75;1.5;0.5;1.25;0.5;1.25;0.5;0.5;-0.257812;0.021484;0.97168;-0.98;-0.91;0.7;360.0;-0.141008;-0.025755
2.89;8.25;7.25;6.0;4.75;1.0;0.5;0.25;0.25;2.25;0.5;1.0;0.5;0.25;1.5;0.5;0.0;-0.223145;0.025391;0.987793;-0.77;0.91;0.56;400.0;-0.210429;-0.00673;6.0;6.25;3.75;4.0;1.0;1.25;0.25;0.75;2.75;1.5;0.5;1.25;0.5;1.25;0.25;0.5;-0.251953;0.022461;0.974121;-0.91;-0.91;0.77;367.0;-0.15501;-0.030847
2.9;8.25;7.5;6.0;4.75;1.0;0.5;0.25;0.25;2.0;0.75;0.5;0.5;0.25;1.75;0.25;0.25;-0.223633;0.021973;0.990234;-0.63;0.77;0.56;397.0;-0.217695;-0.007717;5.25;6.5;3.75;3.75;0.75;1.25;0.25;0.75;3.0;1.5;0.75;1.5;0.5;1.25;0.25;0.5;-0.260742;0.024902;0.974609;-0.98;-0.98;0.84;364.0;-0.140278;-0.03397
2.91;8.25;7.0;6.0;5.0;1.25;0.5;0.25;0.25;2.0;0.75;0.75;0.25;0.25;1.5;0.0;0.25;-0.219727;0.025391;0.985352;-0.7;0.84;0.56;393.0;-0.22316;-0.00604;5.75;6.25;3.75;4.0;1.0;1.0;0.25;0.5;2.75;1.25;0.75;1.5;0.5;1.25;0.5;0.5;-0.254883;0.025879;0.971191;-0.84;-0.77;0.77;363.0;-0.14749;-0.029732
2.92;8.25;7.0;6.0;5.0;1.25;0.5;0.25;0.25;2.0;0.25;0.75;0.25;0.0;1.5;0.0;0.25;-0.220215;0.02002;0.988281;-0.49;0.98;0.63;385.0;-0.232416;-0.004285;5.25;6.0;3.75;4.0;1.0;1.25;0.25;0.5;2.75;1.5;0.75;1.25;0.5;1.0;0.25;0.25;-0.256836;0.023926;0.971191;-0.77;-0.84;0.84;351.0;-0.151642;-0.029851
2.93;8.25;7.0;6.25;5.0;1.0;0.5;0.25;0.25;2.0;0.5;0.5;0.25;0.0;1.25;0.0;0.25;-0.224121;0.018555;0.986816;-0.63;0.98;0.63;382.0;-0.23735;-0.003817;5.25;6.0;3.75;4.0;0.5;1.0;0.25;0.75;2.75;1.0;0.75;1.25;0.5;1.0;0.25;0.25;-0.25293;0.024902;0.974609;-0.63;-0.98;0.91;340.0;-0.15695;-0.035332
2.94;8.5;7.0;5.75;4.75;1.0;0.75;0.25;0.25;2.0;0.25;0.75;0.5;0.25;1.25;0.25;0.25;-0.220703;0.024902;0.985352;-0.63;1.19;0.56;387.0;-0.22659;-0.011679;5.5;6.25;3.75;3.75;0.5;1.0;0.25;0.5;2.75;1.0;0.75;1.25;0.5;1.0;0.25;0.25;-0.255371;0.020996;0.969727;-0.56;-0.84;0.98;338.0;-0.161566;-0.029034
2.95;8.0;7.0;5.75;4.75;1.0;0.5;0.25;0.25;1.75;0.25;0.75;0.25;0.25;1.25;0.25;0.5;-0.225586;0.019043;0.990723;-0.56;1.26;0.49;374.0;-0.230162;-0.013169;5.5;6.5;3.75;4.0;0.75;1.25;0.25;1.0;2.5;1.25;0.75;1.25;0.5;1.0;0.5;0.25;-0.255371;0.023438;0.969238;-0.35;-0.98;0.98;360.0;-0.157018;-0.043968
2.96;8.25;7.0;5.5;4.75;1.0;0.5;0.25;0.25;2.0;0.25;0.5;0.25;0.25;1.5;0.25;0.25;-0.216309;0.022949;0.987793;-0.63;1.26;0.56;375.0;-0.228373;-0.007185;6.0;6.5;3.75;4.25;1.0;1.25;0.25;0.75;2.75;1.5;1.0;1.0;0.5;1.0;0.5;0.25;-0.248535;0.026855;0.971191;-0.21;-0.91;1.05;374.0;-0.156062;-0.033141
2.97;8.25;7.0;5.5;4.75;1.0;0.5;0.25;0.25;2.0;0.5;0.5;0.25;0.25;1.5;0.25;0.0;-0.219727;0.022949;0.98877;-0.49;1.26;0.56;376.0;-0.227149;-0.005441;5.75;6.5;3.5;4.25;1.0;1.0;0.25;0.75;2.75;1.5;1.0;1.25;0.5;1.0;0.5;0.5;-0.256348;0.025879;0.966797;-0.14;-0.91;1.05;370.0;-0.148386;-0.036479
2.98;7.75;7.0;5.75;4.75;1.0;0.5;0.25;0.25;2.0;0.5;0.75;0.5;0.25;1.5;0.25;0.25;-0.224609;0.028809;0.986328;-0.56;1.12;0.49;381.0;-0.21585;-0.010607;5.5;6.5;3.5;4.0;1.0;1.0;0.25;0.5;2.5;1.0;1.0;1.5;0.5;1.0;0.25;0.5;-0.255371;0.023926;0.97168;0.07;-0.91;1.12;350.0;-0.158804;-0.038378
2.99;8.25;6.5;5.5;4.5;1.0;0.5;0.25;0.0;1.75;0.5;0.5;0.25;0.25;1.25;0.25;0.25;-0.219727;0.021484;0.987305;-0.56;0.98;0.63;360.0;-0.232995;-0.00212;5.75;6.5;3.5;4.0;1.0;1.25;0.25;1.0;2.5;1.25;1.0;1.5;0.5;1.0;0.25;0.25;-0.255371;0.027344;0.97168;-0.0;-0.84;1.19;366.0;-0.156308;-0.045279
3.0;7.75;6.25;5.5;4.5;1.0;0.5;0.25;0.0;1.75;0.5;0.25;0.25;0.25;1.25;0.25;0.25;-0.216797;0.015625;0.98291;-0.56;1.05;0.49;349.0;-0.232668;-0.001803;5.75;6.75;3.5;4.25;1.0;1.25;0.25;0.75;2.5;1.0;1.0;1.25;0.5;1.0;0.5;0.25;-0.259277;0.026367;0.969238;0.21;-0.98;1.33;364.0;-0.162377;-0.042795
3.01;8.25;6.5;5.5;4.75;1.0;0.5;0.25;0.25;2.0;0.5;0.5;0.25;0.25;1.5;0.25;0.25;-0.220703;0.019043;0.98291;-0.49;0.91;0.49;373.0;-0.22225;-0.004492;5.25;6.5;3.5;4.0;1.0;1.25;0.25;1.0;2.5;1.0;0.75;1.25;0.5;1.0;0.5;0.25;-0.256836;0.022461;0.973145;0.35;-0.98;1.26;355.0;-0.157038;-0.046307
3.02;7.75;6.25;5.25;4.75;1.0;0.5;0.25;0.25;2.0;0.5;0.5;0.25;0.25;1.5;0.25;0.25;-0.219238;0.023926;0.990723;-0.49;0.84;0.35;361.0;-0.217695;-0.005932;5.25;6.5;3.5;4.0;1.0;1.25;0.25;1.0;2.25;1.25;0.75;1.25;0.5;1.0;0.5;0.25;-0.255371;0.025391;0.962891;0.42;-1.05;1.19;354.0;-0.158023;-0.048663
3.03;7.0;6.0;5.25;4.25;1.0;0.5;0.25;0.25;2.0;0.5;0.75;0.25;0.25;1.5;0.25;0.25;-0.223145;0.021484;0.992676;-0.35;0.91;0.42;347.0;-0.206855;-0.0047;5.25;6.5;3.5;4.0;1.0;1.5;0.25;1.0;2.25;1.5;1.0;1.5;0.5;1.25;0.5;0.5;-0.251465;0.026855;0.964355;0.7;-1.19;1.12;369.0;-0.143405;-0.051691
3.04;6.5;5.5;5.0;3.75;1.0;0.5;0.25;0.25;2.25;0.75;1.0;0.5;0.25;1.75;0.25;0.25;-0.220703;0.021973;0.984375;-0.35;0.77;0.56;342.0;-0.178689;0.000164;4.75;5.75;3.5;4.25;1.0;1.5;0.25;1.0;2.25;1.5;1.25;1.75;0.5;1.5;0.5;0.5;-0.255371;0.027832;0.969238;0.91;-1.26;1.19;367.0;-0.125791;-0.054188
3.05;6.25;5.25;5.0;3.5;0.75;0.5;0.25;0.25;2.25;0.75;1.0;0.5;0.25;1.75;0.5;0.25;-0.222168;0.026367;0.98584;-0.42;0.91;0.42;334.0;-0.169449;0.001263;4.5;5.75;3.5;4.25;1.0;1.5;0.25;1.0;2.75;1.75;1.5;1.75;0.75;1.0;0.5;0.5;-0.255859;0.026855;0.974121;1.05;-1.19;1.12;375.0;-0.115758;-0.054157
3.06;6.25;5.0;4.75;3.5;0.75;0.5;0.25;0.25;2.25;0.5;1.0;0.5;0.25;1.75;0.5;0.25;-0.217773;0.023438;0.989258;-0.77;1.61;0.35;325.0;-0.170215;0.001188;4.5;5.75;3.25;4.25;1.0;1.5;0.25;1.25;3.0;1.75;1.5;1.75;0.75;1.0;0.5;1.0;-0.260254;0.02832;0.963379;0.91;-1.4;1.05;382.0;-0.106271;-0.057913
3.07;5.5;4.25;4.5;3.25;0.75;0.5;0.25;0.25;2.75;0.5;1.0;0.5;0.25;1.75;0.25;0.5;-0.22168;0.023438;0.993652;-0.77;1.82;0.35;309.0;-0.148635;0.009238;4.25;5.5;3.25;4.0;1.0;1.5;0.5;1.25;3.0;1.75;1.75;1.75;0.75;1.25;0.75;1.25;-0.259277;0.028809;0.974121;0.49;-1.05;1.05;388.0;-0.087567;-0.054117
3.08;4.75;3.5;4.25;2.75;0.75;0.25;0.25;0.25;3.0;0.75;1.0;0.5;0.25;1.5;0.25;0.25;-0.224121;0.022461;0.990723;-1.26;2.8;0.35;283.0;-0.127868;0.022188;4.0;5.25;3.5;4.0;1.0;1.75;0.5;1.25;3.5;2.0;1.75;1.75;1.25;1.5;1.0;1.25;-0.257812;0.026855;0.970703;0.21;-0.63;0.91;408.0;-0.067556;-0.052082
3.09;4.5;3.0;4.0;2.5;0.75;0.25;0.25;0.25;3.0;0.5;1.0;0.5;0.0;1.75;0.5;0.0;-0.224121;0.024414;0.993652;-1.4;3.22;0.35;268.0;-0.114982;0.032712;4.0;4.75;3.0;3.5;0.75;1.75;0.5;1.25;4.0;2.0;2.0;2.0;1.25;1.5;1.25;1.5;-0.260742;0.028809;0.972656;-0.07;-0.35;0.91;405.0;-0.041891;-0.048665
3.1;4.0;2.5;3.5;2.25;0.75;0.25;0.25;0.0;3.25;0.75;0.75;0.5;0.0;1.75;0.25;0.0;-0.224609;0.023926;0.995605;-1.96;4.34;0.35;245.0;-0.098536;0.050989;3.5;4.5;2.75;3.5;1.0;1.5;0.5;1.5;4.5;2.0;2.0;2.0;1.25;2.0;1.25;1.75;-0.254883;0.029297;0.972656;-0.21;-0.21;0.84;412.0;-0.020731;-0.044969
3.11;3.25;2.25;3.5;1.75;0.25;0.0;0.25;0.0;3.25;0.75;0.75;0.25;0.0;1.5;0.25;0.25;-0.232422;0.020508;0.993164;-2.45;5.67;0.42;215.0;-0.082495;0.063901;2.75;4.25;2.75;3.25;1.25;1.5;0.5;1.25;4.5;2.75;2.5;2.0;1.5;2.75;1.25;2.0;-0.255859;0.042969;0.981934;-0.28;0.28;0.84;422.0;0.008598;-0.040234
3.12;3.0;2.0;3.0;1.5;0.25;0.0;0.25;0.0;3.25;0.75;0.75;0.25;0.0;1.25;0.25;0.5;-0.229492;0.016602;0.994141;-3.29;7.35;0.49;200.0;-0.067541;0.065601;2.5;3.5;2.75;3.0;1.0;1.75;0.5;1.25;5.0;3.0;2.75;2.25;1.25;3.0;1.75;2.25;-0.254395;0.029297;0.981445;-0.63;1.12;0.63;431.0;0.036863;-0.034358
3.13;2.25;1.25;2.25;1.25;0.25;0.0;0.25;0.0;3.0;0.5;0.75;0.25;0.0;1.25;0.25;0.25;-0.228516;0.021484;0.987793;-4.27;9.8;0.42;164.0;-0.0352;0.076962;2.0;3.0;2.25;2.75;0.75;1.25;0.5;1.5;5.25;3.25;2.75;2.25;1.5;3.0;2.0;2.5;-0.257812;0.030762;0.979004;-0.7;1.89;0.49;420.0;0.065976;-0.036404
3.14;1.5;0.75;1.5;0.75;0.0;0.0;0.25;0.0;2.5;0.25;0.25;0.25;0.0;0.75;0.25;0.0;-0.240723;0.026855;1.002441;-5.67;12.81;0.49;110.0;-0.017871;0.1;1.5;2.25;2.0;2.0;0.5;1.25;0.5;1.25;5.25;3.25;2.75;2.75;1.5;3.5;2.25;2.75;-0.255859;0.024902;0.981934;-0.77;2.73;0.56;402.0;0.103872;-0.032388
3.15;0.75;0.25;1.0;0.25;0.0;0.0;0.25;0.0;2.25;0.25;0.25;0.0;0.0;0.5;0.0;0.25;-0.221191;0.004395;1.004395;-7.35;14.7;0.63;74.0;0.050947;0.147429;1.0;1.75;1.75;1.75;0.5;1.0;0.5;1.0;5.5;3.5;2.75;2.5;1.5;3.5;2.25;3.5;-0.256836;0.034668;0.977051;-0.63;3.78;0.49;386.0;0.131866;-0.02417
3.16;0.25;0.25;0.5;0.25;0.0;0.0;0.25;0.0;2.25;0.5;0.25;0.25;0.0;0.75;0.0;0.0;-0.236816;0.001465;1.00293;-9.52;14.49;0.63;69.0;0.13588;0.144683;0.75;0.75;1.5;1.0;0.5;0.75;0.5;1.0;5.75;3.5;2.75;2.5;1.25;3.5;2.25;4.0;-0.225098;0.015625;0.979004;-0.63;5.04;0.63;362.0;0.170228;-0.011769
3.17;0.25;0.25;0.25;0.25;0.0;0.0;0.0;0.0;2.0;0.25;0.0;0.25;0.0;0.75;0.25;0.0;-0.289551;0.030273;1.041992;-12.46;12.53;0.21;56.0;0.158309;0.137969;0.25;0.25;1.0;0.75;0.25;0.5;0.5;1.0;6.0;3.5;3.0;2.25;1.0;4.25;3.0;4.0;-0.259766;0.013672;0.981934;-0.14;6.72;0.7;353.0;0.216;-0.000468
3.18;0.25;0.25;0.25;0.25;0.0;0.0;0.0;0.0;1.75;0.25;0.25;0.0;0.0;0.25;0.0;0.0;-0.20166;-0.047852;1.162598;-26.950001;14.35;0.56;44.0;0.0;0.0;0.25;0.25;0.75;0.25;0.25;0.5;0.5;0.75;6.25;3.5;3.0;2.5;1.25;4.25;3.0;4.25;-0.239258;0.015137;0.973633;-0.14;8.96;1.47;350.0;0.23215;0.003192
3.19;0.25;0.25;0.25;0.25;0.0;0.0;0.0;0.0;1.5;0.0;0.0;0.0;0.0;0.25;0.0;0.0;-0.237793;0.018066;1.186035;-23.030001;31.99;1.75;35.0;0.0;0.0;0.25;0.25;0.25;0.25;0.25;0.25;0.5;0.75;6.5;3.5;3.0;2.25;1.25;4.5;3.0;4.5;-0.208008;0.045898;0.981445;-1.61;11.27;2.31;346.0;0.246454;0.009159
3.2;0.25;0.0;0.25;0.0;0.0;0.0;0.0;0.0;0.75;0.0;0.0;0.0;0.0;0.25;0.0;0.0;-0.225098;-0.070801;1.115723;-28.139999;64.050003;7.98;19.0;0.0;0.0;0.25;0.25;0.25;0.25;0.0;0.25;0.5;0.5;6.25;3.5;2.75;2.25;1.25;4.75;3.0;4.5;-0.259766;0.062988;0.998047;-3.99;11.62;2.94;335.0;0.25423;0.013084
3.21;0.25;0.0;0.25;0.0;0.0;0.0;0.0;0.0;1.0;0.0;0.0;0.0;0.0;0.25;0.0;0.0;-0.087891;-0.169434;1.091797;-23.799999;70.279999;22.75;23.0;0.0;0.0;0.0;0.25;0.25;0.25;0.25;0.25;0.25;0.5;5.75;3.0;2.5;2.0;1.25;4.75;3.0;5.0;-0.183594;0.078613;1.005371;-6.72;13.65;3.15;315.0;0.260666;0.003759
3.22;0.25;0.0;0.0;0.25;0.0;0.0;0.0;0.0;1.25;0.0;0.0;0.0;0.0;0.25;0.0;0.0;-0.132324;-0.305664;1.167969;-37.869999;81.760002;57.610001;26.0;0.0;0.0;0.0;0.25;0.0;0.25;0.25;0.25;0.25;0.5;5.25;3.0;2.0;2.0;1.0;5.0;3.0;5.25;-0.268066;0.016113;1.030273;-8.19;20.16;2.31;301.0;0.269146;0.002154
3.23;0.25;0.0;0.25;0.0;0.0;0.0;0.0;0.0;0.75;0.0;0.0;0.0;0.0;0.25;0.0;0.0;-0.158203;-0.254395;1.174805;-58.52;83.300003;91.279999;19.0;0.0;0.0;0.0;0.25;0.0;0.25;0.25;0.25;0.25;0.25;5.0;2.75;1.75;1.75;0.75;5.0;2.75;5.5;-0.278809;0.03125;0.98877;-7.0;34.16;1.75;280.0;0.274746;0.011258
3.24;0.0;0.0;0.25;0.0;0.0;0.0;0.0;0.0;0.5;0.0;0.0;0.0;0.0;0.25;0.0;0.0;-0.219727;-0.226562;0.933594;-65.800003;77.559998;120.610001;13.0;0.0;0.0;0.25;0.25;0.25;0.25;0.25;0.25;0.25;0.25;4.5;2.25;1.5;1.75;0.75;5.0;3.25;5.75;-0.28125;0.012695;0.959473;-4.41;41.16;1.61;278.0;0.266788;0.00291
3.25;0.0;0.0;0.25;0.0;0.0;0.0;0.0;0.0;0.75;0.0;0.0;0.0;0.0;0.25;0.0;0.0;-0.312988;-0.243164;0.904785;-67.199997;73.360001;148.610001;16.0;0.0;0.0;0.25;0.25;0.0;0.25;0.25;0.0;0.0;0.0;4.5;2.25;1.75;2.0;1.0;5.5;3.25;6.25;-0.241699;0.026855;0.994141;-0.49;46.900002;1.19;279.0;0.285529;-0.001414
3.26;0.0;0.0;0.0;0.0;0.0;0.0;0.0;0.0;0.75;0.0;0.0;0.0;0.0;0.25;0.0;0.0;-0.468262;-0.230957;0.8125;-74.340004;70.139999;189.559998;13.0;0.0;0.0;0.25;0.0;0.25;0.25;0.0;0.25;0.0;0.25;5.0;3.0;2.0;2.0;1.25;6.75;3.5;8.0;-0.196289;0.003418;0.866699;3.71;49.209999;1.68;330.0;0.286553;-0.00809
3.27;0.0;0.0;0.25;0.0;0.0;0.0;0.0;0.0;0.5;0.0;0.0;0.0;0.0;0.25;0.0;0.0;-0.491211;-0.244141;0.721191;-76.440002;68.879997;208.460007;13.0;0.0;0.0;0.25;0.25;0.25;0.5;0.25;0.25;0.0;0.25;5.5;3.5;2.75;2.25;1.75;8.0;3.75;9.0;-0.319824;0.055664;0.781738;4.13;22.33;0.84;388.0;0.275567;-0.013678
3.28;0.25;0.0;0.25;0.0;0.0;0.0;0.0;0.0;0.5;0.0;0.0;0.0;0.0;0.75;0.25;0.25;-0.48291;-0.280273;0.717285;-68.809998;66.360001;216.860001;24.0;0.0;0.0;0.25;0.25;0.5;0.5;0.0;0.25;0.25;0.25;6.25;4.0;3.25;3.0;2.25;9.0;4.0;9.75;-0.370117;0.029785;0.748047;7.7;-18.83;0.21;444.0;0.273299;-0.014151
3.29;0.0;0.0;0.25;0.0;0.0;0.0;0.0;0.0;0.75;0.0;0.0;0.0;0.0;1.0;0.25;0.25;-0.519043;-0.385254;0.615234;-65.239998;66.080002;219.520004;27.0;0.0;0.0;0.25;0.25;0.25;0.25;0.25;0.25;0.25;0.5;7.0;4.5;3.75;3.75;2.5;9.75;4.0;10.25;-0.322266;0.005859;0.888672;11.83;-49.07;1.96;488.0;0.274755;-0.01643
3.3;0.0;0.0;0.0;0.0;0.0;0.0;0.0;0.0;1.0;0.0;0.0;0.0;0.0;1.25;0.25;0.25;-0.570312;-0.382324;0.703613;-64.190002;67.340004;221.970001;30.0;0.0;0.0;0.25;0.25;0.25;0.5;0.25;0.5;0.25;1.0;7.0;4.75;4.5;4.0;3.5;9.75;4.25;11.0;-0.303223;0.032715;1.018066;9.45;-61.810001;3.71;533.0;0.26297;-0.038259
3.31;0.0;0.0;0.0;0.0;0.0;0.0;0.0;0.0;1.25;0.25;0.0;0.0;0.0;2.5;0.5;0.25;-0.599121;-0.384277;0.817383;-64.120003;65.169998;225.75;51.0;0.346544;0.161875;0.25;0.25;0.25;0.5;0.25;0.5;0.25;1.5;7.25;5.0;4.75;4.5;4.25;10.0;4.5;11.5;-0.286133;0.03125;1.077637;2.8;-48.02;3.01;572.0;0.258744;-0.049922
3.32;0.0;0.0;0.25;0.0;0.0;0.0;0.0;0.0;2.25;0.25;0.25;0.0;0.0;3.25;0.75;0.5;-0.483887;-0.29834;0.762207;-69.230003;66.849998;231.630005;83.0;0.312114;0.153398;0.25;0.25;0.25;0.5;0.25;0.5;0.25;1.75;7.25;5.0;4.75;4.5;4.25;10.25;4.5;11.75;-0.259277;0.033691;1.065918;0.14;-23.24;2.59;580.0;0.257674;-0.052138
3.33;0.0;0.0;0.0;0.0;0.0;0.0;0.0;0.0;2.75;0.25;0.25;0.25;0.0;3.75;1.0;1.25;-0.222656;-0.016113;0.912598;-77.0;60.760002;239.470001;102.0;0.331898;0.125107;0.25;0.25;0.25;0.25;0.0;0.25;0.25;1.75;7.25;4.5;4.5;4.5;4.25;10.75;4.75;11.75;-0.273926;0.037109;1.007812;0.49;-8.4;2.45;570.0;0.267044;-0.049792
3.34;0.0;0.0;0.0;0.0;0.0;0.0;0.0;0.0;3.0;0.25;0.5;0.25;0.25;5.25;2.25;2.0;0.085449;0.336914;0.834961;-71.120003;48.439999;227.639999;143.0;0.34159;0.085117;0.25;0.25;0.25;0.25;0.0;0.25;0.25;1.5;7.0;4.5;4.5;4.5;4.75;11.0;4.75;12.0;-0.273926;0.031738;0.988281;0.42;-0.91;1.96;571.0;0.26918;-0.052485
3.35;0.0;0.0;0.0;0.0;0.0;0.0;0.0;0.0;3.75;0.0;0.5;0.25;0.25;6.75;3.25;2.75;0.311523;0.706055;0.819824;-44.029999;31.85;196.070007;181.0;0.348256;0.083407;0.25;0.25;0.5;0.25;0.25;0.5;0.25;1.75;7.0;4.5;4.5;4.5;5.25;11.25;5.0;12.5;-0.270996;0.013184;1.022461;1.96;10.15;1.89;597.0;0.26129;-0.058425
3.36;0.0;0.0;0.0;0.0;0.0;0.0;0.0;0.0;4.5;0.25;0.5;0.25;0.25;8.0;4.0;3.5;0.271973;0.979004;0.989746;-10.15;4.76;151.270004;219.0;0.34835;0.08295;0.25;0.25;0.25;0.25;0.25;0.5;0.25;1.75;7.0;4.75;5.0;5.0;5.5;12.0;5.25;13.0;-0.254395;0.046875;0.993652;7.84;33.740002;2.59;623.0;0.265437;-0.061518
3.37;0.0;0.0;0.0;0.0;0.0;0.0;0.0;0.0;5.25;0.25;0.75;0.75;0.5;10.0;4.5;4.5;-0.297852;1.198242;1.121094;17.219999;-21.98;94.57;271.0;0.344774;0.069965;0.25;0.25;0.25;0.25;0.25;0.25;0.25;1.5;7.0;4.75;5.25;5.25;5.5;13.0;5.25;13.25;-0.302734;0.05957;0.930664;7.42;37.170002;0.63;633.0;0.271168;-0.056742
3.38;0.0;0.0;0.0;0.0;0.0;0.0;0.0;0.0;5.5;0.5;1.25;1.25;1.25;12.25;5.5;5.5;-0.40918;0.616211;1.147461;36.189999;-30.1;23.450001;334.0;0.34152;0.046094;0.25;0.25;0.25;0.25;0.0;0.25;0.25;1.25;7.25;5.25;5.0;5.5;5.5;13.5;5.0;13.25;-0.29834;0.050781;0.919922;5.81;31.5;-1.61;637.0;0.274863;-0.051162
3.39;0.0;0.0;0.0;0.0;0.0;0.0;0.0;0.0;5.75;0.5;1.75;1.75;2.25;14.0;6.25;7.5;-0.442871;0.007324;0.925781;10.78;-26.460001;-4.9;395.0;0.337933;0.020577;0.25;0.0;0.25;0.25;0.0;0.25;0.25;1.25;7.75;5.25;5.25;5.75;6.25;14.25;5.25;13.5;-0.297852;0.038574;0.910645;4.55;21.98;-2.38;665.0;0.277869;-0.051244
3.4;0.0;0.0;0.0;0.0;0.0;0.0;0.0;0.0;6.25;0.75;2.0;2.25;2.25;15.5;7.0;7.5;-0.39209;0.082031;1.006348;-15.75;-8.05;-24.780001;437.0;0.33727;0.022934;0.25;0.0;0.25;0.0;0.0;0.25;0.25;1.25;7.75;5.5;5.75;5.75;6.25;14.75;5.25;13.75;-0.293945;0.032227;0.936523;3.57;12.46;-1.96;677.0;0.280883;-0.049542
3.41;0.0;0.0;0.0;0.0;0.0;0.0;0.0;0.0;6.5;1.0;2.5;3.0;2.5;17.5;7.5;9.5;-0.426758;0.074219;1.02832;-26.880001;-7.77;-27.93;496.0;0.335949;0.01206;0.25;0.0;0.25;0.25;0.25;0.5;0.25;1.25;8.5;6.0;5.75;6.0;6.25;15.25;5.25;14.0;-0.293457;0.039062;0.933105;2.94;4.69;-1.4;711.0;0.274997;-0.04502
3.42;0.0;0.0;0.0;0.0;0.0;0.0;0.0;0.0;6.5;1.25;3.0;2.75;2.25;19.0;8.0;10.5;-0.43457;-0.044922;1.007812;-16.59;-8.12;-25.83;525.0;0.338785;0.014453;0.25;0.0;0.25;0.25;0.25;0.5;0.25;1.25;9.0;6.0;6.25;6.25;6.25;15.75;5.5;14.0;-0.305176;0.044434;0.973633;1.82;-3.15;-1.61;735.0;0.275556;-0.042184
3.43;0.0;0.0;0.0;0.0;0.0;0.0;0.0;0.0;6.75;2.0;3.0;3.0;2.25;20.0;8.25;11.25;-0.411133;0.080078;0.989746;-11.41;-7.56;-21.98;556.0;0.337823;0.01488;0.25;0.0;0.25;0.25;0.25;0.25;0.25;1.0;9.0;6.0;6.25;6.0;6.25;16.25;5.5;14.0;-0.306152;0.036621;1.02002;0.91;3.71;-1.68;729.0;0.280091;-0.036845
3.44;0.0;0.0;0.0;0.0;0.0;0.0;0.0;0.0;7.25;2.75;3.25;3.0;2.25;20.75;8.25;11.75;-0.391113;-0.046875;1.006348;-6.79;0.14;-18.34;585.0;0.335866;0.018403;0.25;0.0;0.25;0.0;0.0;0.0;0.25;1.0;9.25;6.25;6.25;6.25;6.0;16.75;5.5;14.0;-0.296387;0.041016;1.033203;0.63;20.370001;-2.38;732.0;0.286473;-0.031899
3.45;0.0;0.0;0.0;0.0;0.0;0.0;0.0;0.0;7.5;3.25;3.25;3.0;2.5;21.0;8.5;12.75;-0.40332;-0.10498;0.869629;-3.22;-0.7;-9.59;608.0;0.334724;0.015371;0.0;0.0;0.0;0.0;0.0;0.25;0.25;1.0;9.75;6.5;6.25;6.25;5.75;17.0;5.5;14.0;-0.291992;0.050293;0.976562;-0.98;32.970001;-3.78;739.0;0.289926;-0.028548
3.46;0.0;0.0;0.0;0.0;0.0;0.0;0.0;0.0;7.75;4.0;3.5;3.25;2.5;21.5;8.75;13.5;-0.391113;0.008301;0.79541;3.92;-27.09;0.49;637.0;0.333027;0.013927;0.0;0.0;0.0;0.0;0.0;0.25;0.0;0.5;10.0;6.75;6.5;6.25;5.5;17.75;5.5;14.0;-0.307129;0.052734;0.916016;-1.61;31.219999;-4.83;740.0;0.295429;-0.021173
3.47;0.0;0.0;0.0;0.0;0.0;0.0;0.0;0.0;8.0;4.0;3.75;3.75;3.25;21.25;9.0;14.25;-0.383301;0.024902;0.840332;6.72;-43.68;1.82;662.0;0.329524;0.003808;0.0;0.0;0.0;0.0;0.0;0.25;0.0;0.5;10.0;7.25;6.5;6.25;5.5;17.75;5.5;13.75;-0.304199;0.033203;0.933594;-2.17;18.27;-4.41;745.0;0.294884;-0.019942
3.48;0.0;0.0;0.0;0.0;0.0;0.0;0.0;0.0;8.25;4.5;4.0;4.25;3.5;21.0;9.0;14.75;-0.383301;0.045898;0.885742;8.75;-55.16;1.82;683.0;0.326221;-0.000881;0.0;0.0;0.25;0.0;0.0;0.25;0.25;0.75;10.5;7.25;6.75;6.25;5.5;18.0;5.5;13.75;-0.306152;0.03125;0.905762;-3.15;7.56;-3.99;768.0;0.289587;-0.017137
3.49;0.0;0.0;0.0;0.0;0.0;0.0;0.0;0.0;8.0;4.75;4.25;4.5;4.0;20.75;8.75;15.0;-0.382324;0.049805;0.914551;9.8;-62.02;-0.14;689.0;0.323683;-0.007842;0.25;0.0;0.25;0.25;0.0;0.25;0.25;1.0;11.25;8.0;6.75;6.25;5.25;18.5;5.5;13.75;-0.323242;0.036621;0.899902;-2.24;-5.46;-3.64;800.0;0.283503;-0.012206
3.5;0.0;0.0;0.0;0.0;0.0;0.0;0.0;0.0;8.0;4.75;4.5;4.5;4.25;20.75;8.75;15.0;-0.284668;0.174316;0.926758;11.34;-64.959999;-2.17;694.0;0.322759;-0.009827;0.0;0.0;0.25;0.0;0.0;0.25;0.25;0.75;11.25;8.0;6.75;6.5;5.25;18.5;5.5;13.75;-0.328125;0.038086;0.920898;-1.19;-18.059999;-3.08;793.0;0.289386;-0.010872
3.51;0.0;0.0;0.0;0.0;0.0;0.0;0.0;0.0;7.75;4.75;4.75;4.5;4.25;20.25;8.75;15.0;-0.346191;0.060547;1.060547;12.67;-67.550003;-3.71;689.0;0.322093;-0.013008;0.0;0.0;0.0;0.0;0.0;0.0;0.25;0.5;11.5;8.0;6.75;6.5;5.0;18.5;5.25;13.75;-0.311523;0.035156;0.932617;-1.26;-25.549999;-2.59;781.0;0.294618;-0.005307
3.52;0.0;0.0;0.0;0.0;0.0;0.0;0.0;0.0;7.5;4.75;4.75;4.75;4.25;19.75;9.0;15.0;-0.321289;0.014648;0.841309;14.35;-78.75;-1.33;686.0;0.321694;-0.017273;0.0;0.0;0.0;0.0;0.0;0.0;0.0;0.5;10.5;7.75;6.5;6.25;3.75;18.0;5.0;13.75;-0.308105;0.039062;0.935059;-2.38;-32.130001;-2.8;735.0;0.298194;-0.004384
3.53;0.0;0.0;0.0;0.0;0.0;0.0;0.0;0.0;7.5;5.0;5.25;5.25;5.0;19.5;8.5;15.0;-0.319824;0.006348;0.895996;15.54;-95.480003;0.91;699.0;0.31709;-0.024648;0.0;0.0;0.0;0.0;0.0;0.0;0.0;1.25;11.5;8.75;6.75;6.25;4.75;18.25;5.25;13.75;-0.306152;0.025879;0.936035;-4.27;-45.220001;-2.8;790.0;0.290646;-0.010079
3.54;0.0;0.0;0.0;0.0;0.0;0.0;0.0;0.25;7.5;5.0;5.75;6.0;5.5;19.25;8.75;15.5;-0.315918;0.027832;0.927734;13.3;-112.770004;3.57;726.0;0.312438;-0.035585;0.0;0.0;0.0;0.0;0.25;0.25;0.25;2.0;12.0;8.75;6.75;6.5;5.5;18.25;5.25;13.75;-0.294434;0.013672;0.933105;-6.37;-52.779999;-2.1;830.0;0.280339;-0.017638
3.55;0.0;0.0;0.0;0.0;0.0;0.0;0.0;0.25;7.5;5.5;6.0;6.0;6.5;18.75;8.5;15.5;-0.294922;0.037598;1.061523;4.13;-122.43;4.13;737.0;0.30872;-0.041739;0.0;0.0;0.25;0.0;0.25;0.25;0.25;2.0;12.0;9.0;6.75;6.5;6.0;18.25;5.5;13.75;-0.295898;0.020508;0.990723;-6.58;-47.880001;-0.7;843.0;0.278048;-0.019675
3.56;0.0;0.0;0.0;0.0;0.0;0.0;0.0;0.25;8.0;5.75;6.25;6.5;6.75;18.5;8.5;15.5;-0.286133;0.050293;1.111816;-6.65;-108.290001;3.15;755.0;0.306121;-0.04255;0.0;0.0;0.5;0.25;0.25;0.25;0.25;2.0;12.25;9.0;6.75;6.25;6.5;18.0;5.75;14.0;-0.281738;0.031738;1.008789;-6.79;-34.790001;0.98;857.0;0.273897;-0.02153
3.57;0.0;0.0;0.0;0.25;0.0;0.0;0.0;0.75;8.0;5.75;6.5;6.75;7.5;18.0;8.5;15.5;-0.260742;0.024902;1.17334;-10.78;-73.849998;2.59;775.0;0.297855;-0.053361;0.25;0.0;0.5;0.25;0.25;0.25;0.5;2.5;12.5;9.0;6.75;6.25;7.0;17.25;5.25;14.25;-0.269043;0.016113;1.040039;-5.32;-20.02;3.57;869.0;0.265547;-0.026262
3.58;0.0;0.0;0.0;0.25;0.0;0.0;0.0;0.75;8.0;5.75;6.5;6.5;7.25;17.5;8.25;15.75;-0.244629;0.01416;1.121582;-3.78;-12.18;5.25;764.0;0.297599;-0.052989;0.25;0.25;0.75;0.5;0.5;0.25;0.5;3.25;12.25;9.0;6.75;6.25;7.25;17.0;5.25;14.75;-0.271973;0.039062;1.032227;-0.35;-4.9;3.57;893.0;0.254462;-0.035586
3.59;0.0;0.0;0.0;0.0;0.0;0.0;0.0;0.75;8.0;5.5;6.0;6.25;7.0;17.25;8.25;15.75;-0.247559;0.042969;1.115234;3.15;20.58;6.09;744.0;0.301119;-0.050747;0.5;0.25;0.75;0.25;0.25;0.25;0.25;2.75;11.75;9.0;7.0;6.5;7.75;16.75;5.25;14.75;-0.268555;0.029297;1.032227;8.26;14.49;2.66;878.0;0.257699;-0.039221
3.6;0.0;0.0;0.0;0.0;0.0;0.0;0.0;0.5;7.5;5.5;5.75;6.0;6.75;17.0;8.25;16.0;-0.251465;0.028809;1.222656;12.67;54.950001;5.53;724.0;0.304222;-0.050699;0.5;0.25;0.25;0.25;0.25;0.25;0.25;2.25;11.25;9.0;7.0;6.75;7.75;16.5;5.5;15.0;-0.263184;0.023926;1.05127;14.56;26.6;3.85;861.0;0.264112;-0.041384
3.61;0.0;0.0;0.0;0.0;0.0;0.0;0.0;0.25;7.0;5.25;4.75;5.25;6.5;16.5;8.25;16.5;-0.208984;-0.003906;1.057129;17.219999;86.590004;4.62;686.0;0.309402;-0.049588;0.25;0.0;0.0;0.25;0.0;0.0;0.0;2.0;10.75;8.75;7.0;6.75;7.25;15.75;5.25;15.0;-0.286621;0.025879;1.091797;17.15;38.009998;5.11;814.0;0.274734;-0.043627
3.62;0.0;0.0;0.0;0.0;0.0;0.0;0.0;0.0;6.25;4.0;3.75;5.0;6.0;15.5;7.75;16.5;0.506348;0.257812;0.637695;22.960001;111.580002;4.62;623.0;0.314646;-0.053087;0.25;0.0;0.25;0.25;0.0;0.25;0.0;1.75;10.0;8.75;6.75;6.75;8.75;15.0;5.0;15.5;-0.308594;0.016602;1.124023;17.85;57.540001;7.91;810.0;0.269841;-0.056184
3.63;0.0;0.0;0.0;0.0;0.0;0.0;0.0;0.0;5.0;2.75;3.0;4.25;6.0;13.75;7.75;16.75;-0.339844;-0.110352;1.35791;40.32;133.910004;8.12;559.0;0.318686;-0.069227;0.0;0.0;0.25;0.0;0.0;0.25;0.0;1.5;8.75;8.25;6.75;6.75;9.25;14.0;4.75;15.5;-0.321289;0.010254;1.091309;17.5;81.830002;9.73;769.0;0.273693;-0.068103
3.64;0.0;0.0;0.0;0.0;0.0;0.0;0.0;0.0;3.25;1.0;1.25;3.25;5.5;11.25;7.5;16.5;-0.648926;-0.207031;1.758789;69.160004;174.089996;19.67;450.0;0.328592;-0.094101;0.0;0.0;0.0;0.0;0.0;0.25;0.0;1.25;6.75;7.75;6.25;6.5;10.0;12.5;4.0;15.25;-0.35791;0.018066;1.208984;23.17;129.009995;14.0;702.0;0.27374;-0.088725
3.65;0.0;0.0;0.0;0.0;0.0;0.0;0.0;0.0;1.25;1.25;1.0;1.5;4.5;6.0;6.75;15.0;-1.408691;0.02002;2.321289;150.289993;267.540009;52.009998;325.0;0.331663;-0.136843;0.25;0.0;0.0;0.0;0.0;0.25;0.0;0.5;5.0;5.75;5.0;6.5;9.0;9.75;3.5;14.25;-0.466309;0.009277;1.362305;36.610001;178.009995;16.59;583.0;0.273184;-0.10556
3.66;0.0;0.0;0.0;0.0;0.0;0.0;0.0;0.0;1.25;0.75;0.5;1.25;2.25;4.75;5.5;11.75;-1.226562;0.112793;2.951172;180.180008;314.089996;65.309998;245.0;0.341246;-0.11622;0.0;0.0;0.0;0.0;0.0;0.0;0.0;0.5;2.5;3.5;3.0;5.0;6.75;5.5;3.25;12.5;-0.629883;0.079102;1.592773;72.590004;244.369995;23.59;402.0;0.278745;-0.145477
3.67;0.0;0.0;0.0;0.0;0.0;0.0;0.0;0.0;1.5;0.25;0.25;0.75;1.0;2.75;3.0;4.75;-1.964844;-0.263184;5.631836;201.039993;321.299988;98.07;133.0;0.336819;-0.062111;0.0;0.0;0.0;0.0;0.0;0.0;0.0;0.25;1.5;2.0;2.0;1.75;3.25;3.75;2.25;9.75;-0.619141;0.328613;2.30957;128.729996;284.339996;29.33;241.0;0.295789;-0.12924
3.68;0.0;0.0;0.0;0.0;0.0;0.0;0.0;0.0;0.25;0.25;0.25;0.25;1.0;1.25;1.75;3.5;-2.405762;-0.178711;7.140137;263.339996;193.199997;155.539993;74.0;0.336095;-0.141287;0.0;0.0;0.0;0.0;0.0;0.0;0.0;0.25;1.75;1.0;1.0;1.5;2.0;2.75;0.75;4.0;-2.220703;0.71582;6.357422;152.880005;287.209991;36.119999;146.0;0.281061;-0.087466
3.69;0.0;0.0;0.0;0.0;0.0;0.0;0.0;0.0;0.25;0.25;0.0;0.25;0.25;0.75;0.5;1.25;-4.864258;-1.006348;2.565918;253.680008;-65.169998;301.630005;32.0;0.0;0.0;0.0;0.0;0.0;0.0;0.0;0.0;0.0;0.25;0.75;0.5;0.5;0.75;1.5;0.75;1.0;3.25;-2.505371;0.528809;9.483887;277.339996;118.090004;63.560001;87.0;0.276817;-0.159075
3.7;0.0;0.0;0.0;0.0;0.0;0.0;0.0;0.0;0.25;0.25;0.0;0.25;0.25;0.25;1.0;1.0;-3.775391;-0.998047;-4.224121;-115.57;-291.829987;64.68;31.0;0.0;0.0;0.0;0.0;0.0;0.0;0.0;0.0;0.0;0.25;0.25;0.25;0.25;0.5;0.5;0.75;0.5;1.0;-5.135742;3.700195;1.399902;448.559998;-201.180008;149.309998;43.0;0.0;0.0
3.71;0.0;0.0;0.0;0.0;0.0;0.0;0.0;0.0;0.0;0.25;0.0;0.25;0.25;0.25;1.25;0.75;-4.860352;0.988281;-3.461914;-14.91;-241.430008;-5.53;29.0;0.0;0.0;0.0;0.0;0.0;0.0;0.0;0.25;0.0;0.25;0.25;0.25;0.25;0.5;0.5;0.25;0.75;0.25;-5.723145;-2.286133;-3.868164;179.130005;-471.589996;-9.38;39.0;0.0;0.0
3.72;0.0;0.0;0.0;0.0;0.0;0.0;0.0;0.0;0.0;0.25;0.0;0.25;0.25;0.25;1.25;0.5;-2.915039;0.446777;-3.161133;183.960007;-122.5;-161.279999;28.0;0.0;0.0;0.0;0.0;0.0;0.0;0.0;0.0;0.0;0.25;0.25;0.5;0.25;0.5;0.5;0.0;1.25;0.25;-5.979492;-0.763672;-3.318359;335.860016;-323.540009;-204.75;43.0;0.0;0.0
3.73;0.0;0.0;0.0;0.0;0.0;0.0;0.0;0.0;0.0;0.25;0.0;0.25;0.0;0.25;1.25;0.5;-2.57666;-0.351074;-2.914551;164.850006;-89.599998;-125.230003;25.0;0.0;0.0;0.0;0.0;0.0;0.0;0.0;0.0;0.0;0.25;0.25;0.25;0.25;0.25;0.25;0.25;1.25;0.25;-4.121582;-1.677734;-3.272461;314.230011;-262.01001;-341.040009;37.0;0.0;0.0
3.74;0.0;0.0;0.0;0.0;0.0;0.0;0.0;0.0;0.0;0.25;0.0;0.0;0.0;0.25;1.5;0.25;-2.222168;-0.538086;-1.876953;50.889999;-31.219999;-61.599998;24.0;0.0;0.0;0.0;0.0;0.0;0.0;0.0;0.0;0.0;0.0;0.25;0.25;0.0;0.5;0.25;0.25;1.0;0.25;-3.572266;-2.293457;-2.98877;251.089996;-241.919998;-325.01001;30.0;0.0;0.0
3.75;0.0;0.0;0.0;0.0;0.0;0.0;0.0;0.0;0.0;0.25;0.0;0.0;0.0;0.0;1.25;0.25;-1.431641;-0.256836;-1.192871;-50.82;21.77;4.9;19.0;0.0;0.0;0.0;0.0;0.0;0.0;0.0;0.0;0.0;0.0;0.0;0.25;0.25;0.25;0.25;0.0;0.5;0.25;-3.550781;-2.031738;-2.307617;58.380001;-193.550003;-281.75;18.0;0.0;0.0
3.76;0.0;0.0;0.0;0.0;0.0;0.0;0.0;0.0;0.0;0.0;0.0;0.25;0.0;0.25;0.5;0.25;-0.942871;0.041992;-0.648926;-118.510002;45.290001;42.700001;12.0;0.0;0.0;0.0;0.0;0.0;0.0;0.0;0.0;0.0;0.25;0.0;0.25;0.25;0.25;0.25;0.25;0.25;0.25;-2.838867;0.224121;-1.012207;-243.180008;-122.989998;-238.0;22.0;0.0;0.0
3.77;0.0;0.0;0.0;0.0;0.0;0.0;0.0;0.0;0.0;0.0;0.0;0.25;0.0;0.25;0.5;0.25;-0.707031;0.166016;-0.228516;-131.669998;51.799999;58.099998;12.0;0.0;0.0;0.0;0.0;0.0;0.0;0.0;0.0;0.0;0.25;0.25;0.0;0.25;0.5;0.25;0.0;0.25;0.25;-2.463867;1.241211;-0.473633;-311.920013;-69.860001;-230.440002;23.0;0.0;0.0
3.78;0.0;0.0;0.0;0.0;0.0;0.0;0.0;0.0;0.0;0.25;0.0;0.0;0.0;0.25;0.25;0.25;-0.424316;-0.012695;0.046387;-112.559998;53.689999;58.66;10.0;0.0;0.0;0.0;0.0;0.0;0.0;0.0;0.0;0.0;0.0;0.25;0.25;0.25;0.25;0.25;0.0;0.25;0.25;-1.867676;1.73877;-0.240723;-278.73999;-28.210001;-232.399994;19.0;0.0;0.0
3.79;0.0;0.0;0.0;0.0;0.0;0.0;0.0;0.0;0.0;0.0;0.0;0.0;0.0;0.25;0.25;0.25;-0.322266;-0.100586;0.123047;-104.510002;50.82;52.990002;7.0;0.0;0.0;0.0;0.0;0.0;0.0;0.0;0.0;0.0;0.0;0.0;0.0;0.25;0.25;0.0;0.0;0.25;0.25;-1.369629;1.591309;-0.232422;-190.119995;11.34;-236.669998;10.0;0.0;0.0
3.8;0.0;0.0;0.0;0.0;0.0;0.0;0.0;0.0;0.0;0.0;0.0;0.0;0.0;0.0;0.25;0.25;-0.313965;-0.128906;0.189453;-102.760002;47.32;44.380001;4.0;0.0;0.0;0.0;0.0;0.0;0.0;0.0;0.0;0.0;0.0;0.0;0.0;0.25;0.25;0.0;0.0;0.25;0.25;-0.894531;1.092773;-0.075684;-66.849998;68.949997;-214.130005;10.0;0.0;0.0
3.81;0.0;0.0;0.0;0.0;0.0;0.0;0.0;0.0;0.0;0.0;0.0;0.0;0.0;0.0;0.25;0.25;-0.326172;-0.134766;0.191895;-95.340004;47.18;35.139999;4.0;0.0;0.0;0.0;0.0;0.0;0.0;0.0;0.0;0.0;0.25;0.0;0.25;0.25;0.25;0.0;0.25;0.25;0.0;-0.799316;0.959473;0.106934;-50.959999;86.099998;-200.130005;18.0;0.0;0.0
3.82;0.0;0.0;0.0;0.0;0.0;0.0;0.0;0.0;0.0;0.0;0.0;0.0;0.0;0.0;0.25;0.0;-0.331055;-0.137695;0.155273;-80.080002;52.290001;24.290001;3.0;0.0;0.0;0.0;0.0;0.0;0.0;0.0;0.0;0.0;0.25;0.0;0.25;0.25;0.25;0.0;0.25;0.25;0.25;-0.57373;0.631836;0.507324;-55.439999;122.080002;-143.360001;19.0;0.0;0.0
3.83;0.0;0.0;0.0;0.0;0.0;0.0;0.0;0.0;0.0;0.0;0.0;0.0;0.0;0.0;0.25;0.0;-0.309082;-0.184082;0.172852;-59.360001;60.619999;10.92;3.0;0.0;0.0;0.0;0.0;0.0;0.0;0.0;0.25;0.0;0.25;0.25;0.25;0.25;0.25;0.0;0.25;0.0;0.25;-0.467773;0.497559;0.76123;-72.029999;131.600006;-99.540001;23.0;0.0;0.0
3.84;0.0;0.0;0.0;0.0;0.0;0.0;0.0;0.0;0.0;0.25;0.0;0.0;0.0;0.0;0.25;0.0;-0.309082;-0.256836;0.327148;-28.91;66.849998;-5.32;6.0;0.0;0.0;0.0;0.0;0.0;0.0;0.0;0.0;0.0;0.0;0.25;0.25;0.0;0.5;0.0;0.0;0.25;0.0;-0.358887;0.452148;0.86084;-83.720001;133.210007;-57.189999;15.0;0.0;0.0
3.85;0.0;0.0;0.0;0.0;0.0;0.0;0.0;0.0;0.0;0.0;0.0;0.0;0.0;0.0;0.25;0.25;-0.294922;-0.237793;0.486816;-11.27;65.309998;-32.830002;4.0;0.0;0.0;0.0;0.0;0.0;0.0;0.0;0.0;0.0;0.0;0.0;0.25;0.25;0.25;0.0;0.0;0.0;0.25;-0.297363;0.398926;0.82959;-93.099998;130.899994;-23.17;10.0;0.0;0.0
3.86;0.0;0.0;0.0;0.0;0.0;0.0;0.0;0.0;0.0;0.0;0.0;0.0;0.0;0.0;0.0;0.0;-0.253418;-0.250977;0.581543;-2.73;54.18;-51.869999;0.0;0.0;0.0;0.0;0.0;0.0;0.0;0.0;0.0;0.0;0.0;0.25;0.25;0.25;0.25;0.0;0.0;0.25;0.0;-0.342285;0.364746;0.780273;-94.080002;133.490005;0.35;15.0;0.0;0.0
3.87;0.0;0.0;0.0;0.0;0.0;0.0;0.0;0.0;0.0;0.0;0.0;0.0;0.0;0.0;0.25;0.25;-0.242188;-0.299805;0.534668;-7.84;40.740002;-73.43;4.0;0.0;0.0;0.0;0.0;0.0;0.0;0.0;0.0;0.0;0.25;0.25;0.25;0.25;0.5;0.25;0.0;0.25;0.0;-0.355469;0.341309;0.75;-86.590004;143.990005;14.42;24.0;0.0;0.0
3.88;0.0;0.0;0.0;0.0;0.0;0.0;0.0;0.0;0.0;0.0;0.0;0.0;0.0;0.0;0.0;0.0;-0.34082;-0.283203;0.40332;-17.290001;36.189999;-97.580002;0.0;0.0;0.0;0.0;0.0;0.0;0.0;0.0;0.0;0.0;0.25;0.25;0.5;0.0;0.5;0.25;0.0;0.0;0.25;-0.316406;0.226562;0.881836;-67.620003;158.339996;17.5;23.0;0.0;0.0
3.89;0.0;0.0;0.0;0.0;0.0;0.0;0.0;0.0;0.0;0.0;0.0;0.0;0.0;0.0;0.0;0.0;-0.434082;-0.186523;0.292969;-23.379999;47.040001;-122.080002;0.0;0.0;0.0;0.0;0.0;0.0;0.0;0.0;0.0;0.0;0.0;0.25;0.25;0.25;0.25;0.25;0.0;0.0;0.0;-0.259277;0.145508;0.982422;-55.16;161.979996;12.74;15.0;0.0;0.0
3.9;0.0;0.0;0.0;0.0;0.0;0.0;0.0;0.0;0.0;0.0;0.0;0.0;0.0;0.0;0.0;0.0;-0.430664;-0.022949;0.275879;-24.92;77.349998;-150.360001;0.0;0.0;0.0;0.0;0.0;0.0;0.0;0.0;0.25;0.0;0.0;0.25;0.25;0.25;0.25;0.25;0.0;0.0;0.0;-0.176758;0.092773;0.969727;-49.630001;165.830002;7.84;17.0;0.0;0.0
3.91;0.0;0.0;0.0;0.0;0.0;0.0;0.0;0.0;0.0;0.0;0.0;0.0;0.0;0.0;0.0;0.0;-0.352051;0.0625;0.530762;-22.960001;90.300003;-160.440002;0.0;0.0;0.0;0.0;0.0;0.0;0.0;0.25;0.0;0.0;0.25;0.25;0.5;0.25;0.5;0.25;0.0;0.0;0.0;0.064453;0.083984;0.884766;-55.23;174.509995;4.48;27.0;0.0;0.0
3.92;0.0;0.0;0.0;0.0;0.0;0.0;0.0;0.0;0.0;0.25;0.0;0.0;0.0;0.0;0.0;0.0;-0.259277;0.068359;0.772949;-27.58;89.529999;-162.330002;3.0;0.0;0.0;0.25;0.0;0.0;0.0;0.0;0.0;0.0;0.25;0.25;0.5;0.25;0.75;0.0;0.0;0.0;0.0;0.331055;0.125488;0.903809;-59.57;187.320007;5.53;28.0;0.0;0.0
3.93;0.0;0.0;0.0;0.0;0.0;0.0;0.0;0.0;0.0;0.25;0.0;0.0;0.0;0.0;0.0;0.0;-0.176758;0.080566;0.905762;-35.0;79.660004;-156.589996;3.0;0.0;0.0;0.0;0.0;0.0;0.0;0.0;0.0;0.0;0.25;0.25;0.75;0.25;0.5;0.25;0.0;0.0;0.0;0.54834;0.172852;1.001465;-54.25;191.940002;9.31;27.0;0.0;0.0
3.94;0.0;0.0;0.0;0.0;0.0;0.0;0.0;0.0;0.0;0.25;0.0;0.0;0.0;0.0;0.0;0.0;-0.078613;0.129883;0.844727;-42.91;67.760002;-144.059998;3.0;0.0;0.0;0.0;0.0;0.0;0.0;0.0;0.0;0.0;0.25;0.25;0.75;0.0;0.5;0.25;0.0;0.0;0.0;0.644043;0.094727;1.100098;-40.110001;181.930008;12.39;24.0;0.0;0.0
3.95;0.0;0.0;0.0;0.0;0.0;0.0;0.0;0.0;0.0;0.0;0.0;0.0;0.0;0.0;0.0;0.0;0.006836;0.023926;0.591309;-59.150002;60.900002;-130.830002;0.0;0.0;0.0;0.0;0.0;0.0;0.0;0.0;0.0;0.0;0.25;0.25;0.75;0.25;0.5;0.25;0.0;0.0;0.0;0.944824;-0.030273;1.053223;-41.580002;170.240005;10.08;27.0;0.0;0.0
3.96;0.0;0.0;0.0;0.0;0.0;0.0;0.0;0.0;0.0;0.0;0.0;0.0;0.0;0.0;0.0;0.0;0.08252;-0.105957;0.388672;-78.190002;68.32;-119.770004;0.0;0.0;0.0;0.0;0.0;0.0;0.0;0.0;0.0;0.25;0.25;0.25;0.75;0.25;0.75;0.25;0.0;0.0;0.25;1.32959;-0.100586;1.027832;-55.02;154.419998;3.15;36.0;0.0;0.0
3.97;0.0;0.0;0.0;0.0;0.0;0.0;0.0;0.0;0.0;0.0;0.0;0.25;0.0;0.0;0.0;0.0;0.275391;-0.283691;0.089355;-100.029999;105.980003;-109.550003;3.0;0.0;0.0;0.0;0.0;0.0;0.0;0.0;0.25;0.25;0.25;0.25;0.75;0.25;0.75;0.25;0.0;0.0;0.25;1.52002;-0.08252;0.988281;-58.939999;131.039993;-4.48;39.0;0.0;0.0
3.98;0.0;0.0;0.0;0.0;0.0;0.0;0.0;0.0;0.0;0.25;0.0;0.0;0.0;0.0;0.0;0.0;0.449707;-0.397949;-0.002441;-102.059998;137.619995;-109.199997;3.0;0.0;0.0;0.0;0.0;0.0;0.0;0.0;0.0;0.25;0.0;0.25;0.75;0.25;0.75;0.25;0.0;0.0;0.0;1.617676;-0.042969;0.856445;-49.0;109.270004;-14.28;30.0;0.0;0.0
3.99;0.0;0.0;0.0;0.0;0.0;0.0;0.0;0.0;0.0;0.5;0.25;0.0;0.0;0.0;0.0;0.0;0.724609;-0.598633;-0.07666;-108.150002;172.899994;-114.099998;9.0;0.0;0.0;0.0;0.0;0.0;0.0;0.0;0.0;0.25;0.25;0.25;0.75;0.25;0.75;0.25;0.0;0.0;0.0;2.153809;-0.050293;0.508301;-41.09;93.169998;-35.84;34.0;0.0;0.0
4.0;0.0;0.0;0.0;0.0;0.0;0.0;0.0;0.0;0.0;0.5;0.25;0.25;0.0;0.0;0.0;0.0;1.381836;-0.717285;0.29541;-135.380005;203.139999;-121.449997;11.0;0.0;0.0;0.0;0.0;0.0;0.0;0.0;0.0;0.25;0.25;0.5;1.0;0.25;0.75;0.0;0.0;0.0;0.0;2.521484;-0.035645;0.315918;-52.360001;87.150002;-51.310001;38.0;0.0;0.0
4.01;0.0;0.0;0.0;0.0;0.0;0.0;0.0;0.0;0.25;0.5;0.25;0.25;0.0;0.0;0.0;0.0;2.29248;-0.51123;0.404785;-186.479996;213.919998;-125.160004;15.0;0.0;0.0;0.0;0.0;0.0;0.0;0.0;0.0;0.25;0.25;0.75;1.25;0.5;0.75;0.25;0.0;0.0;0.25;2.507324;0.227539;0.132812;-63.630001;81.690002;-62.860001;51.0;0.203493;-0.030182
4.02;0.0;0.0;0.0;0.0;0.0;0.0;0.0;0.0;0.25;0.75;0.5;0.25;0.0;0.0;0.0;0.25;2.950195;-0.114258;0.518066;-235.479996;202.369995;-116.480003;22.0;0.0;0.0;0.0;0.0;0.0;0.0;0.0;0.0;0.5;0.25;0.75;0.75;0.5;0.75;0.25;0.0;0.0;0.0;2.104004;0.774902;-0.203125;-44.310001;87.290001;-59.150002;48.0;0.0;0.0
4.03;0.0;0.0;0.0;0.0;0.0;0.0;0.0;0.0;0.5;1.0;0.5;0.5;0.0;0.0;0.0;0.25;3.239746;0.658203;1.123535;-230.860001;164.919998;-88.059998;32.0;0.0;0.0;0.0;0.0;0.0;0.0;0.0;0.0;0.5;0.25;0.75;0.75;0.5;1.0;0.25;0.0;0.0;0.0;1.680176;1.09668;-0.349609;2.03;122.150002;-33.32;51.0;0.185207;-0.025446
4.04;0.0;0.0;0.0;0.0;0.0;0.0;0.0;0.0;0.75;1.0;0.5;0.5;0.0;0.0;0.0;0.25;3.23291;1.239746;1.772949;-148.259995;71.68;-15.75;35.0;0.0;0.0;0.0;0.0;0.0;0.0;0.0;0.0;0.5;0.25;0.5;0.75;0.25;1.0;0.25;0.0;0.0;0.0;1.350098;0.927734;-0.333984;44.240002;171.289993;0.35;45.0;0.0;0.0
4.05;0.0;0.0;0.0;0.0;0.0;0.0;0.0;0.0;4.5;4.0;1.75;0.5;0.25;4.5;0.25;0.5;3.98877;6.607422;0.460449;-113.470001;16.17;58.380001;186.0;0.285816;0.117008;0.0;0.0;0.0;0.0;0.0;0.25;0.75;0.25;0.25;1.0;0.25;1.25;0.25;0.0;0.0;0.0;1.146973;1.222656;0.169922;96.110001;252.0;65.800003;54.0;0.151214;-0.063198
4.06;0.0;0.0;0.0;0.0;0.0;0.0;0.5;0.0;18.5;14.75;4.25;1.5;1.25;9.5;1.75;1.75;-15.998047;-0.955078;11.055664;240.309998;-6.51;346.850006;637.0;0.272787;0.125464;0.0;0.0;0.0;0.0;0.0;0.25;0.5;0.25;0.5;0.75;0.25;1.0;0.25;0.0;0.0;2.0;1.024902;1.397461;1.083008;131.740005;294.279999;118.020004;60.0;0.196745;-0.108567
4.07;0.0;0.0;0.0;0.0;0.0;0.0;2.0;0.0;20.5;14.25;6.75;3.5;1.75;6.25;3.0;3.0;2.022461;6.012695;-14.009277;210.419998;-881.02002;339.360016;733.0;0.259079;0.098574;0.0;0.0;0.0;0.0;0.0;0.0;0.75;0.25;2.0;3.0;3.0;3.25;2.75;3.0;2.75;9.0;5.480957;1.838867;-13.920898;57.540001;335.720001;98.699997;290.0;0.275878;-0.10346
4.08;0.0;0.0;0.0;0.0;0.0;0.0;2.25;0.0;17.5;13.0;10.5;8.75;3.25;4.75;3.5;4.25;1.706543;1.212402;6.229492;546.559998;-883.119995;181.860001;797.0;0.250613;0.032466;0.0;0.0;0.0;0.0;0.0;0.0;2.5;0.25;11.75;14.75;13.0;10.0;7.5;5.0;3.0;9.5;-3.17627;-0.458008;6.354492;173.389999;-143.710007;11.9;853.0;0.245726;-0.036316
