Time;left pressure 1[N/cm²];left pressure 2[N/cm²];left pressure 3[N/cm²];left pressure 4[N/cm²];left pressure 5[N/cm²];left pressure 6[N/cm²];left pressure 7[N/cm²];left pressure 8[N/cm²];left pressure 9[N/cm²];left pressure 10[N/cm²];left pressure 11[N/cm²];left pressure 12[N/cm²];left pressure 13[N/cm²];left pressure 14[N/cm²];left pressure 15[N/cm²];left pressure 16[N/cm²];left acceleration X[g];left acceleration Y[g];left acceleration Z[g];left angular X[dps];left angular Y[dps];left angular Z[dps];left total force[N];left center of pressure X[-0.5...+0.5];left center of pressure Y[-0.5...+0.5];right pressure 1[N/cm²];right pressure 2[N/cm²];right pressure 3[N/cm²];right pressure 4[N/cm²];right pressure 5[N/cm²];right pressure 6[N/cm²];right pressure 7[N/cm²];right pressure 8[N/cm²];right pressure 9[N/cm²];right pressure 10[N/cm²];right pressure 11[N/cm²];right pressure 12[N/cm²];right pressure 13[N/cm²];right pressure 14[N/cm²];right pressure 15[N/cm²];right pressure 16[N/cm²];right acceleration X[g];right acceleration Y[g];right acceleration Z[g];right angular X[dps];right angular Y[dps];right angular Z[dps];right total force[N];right center of pressure X[-0.5...+0.5];right center of pressure Y[-0.5...+0.5]
0.0;5.25;4.75;2.5;4.25;0.5;1.5;0.25;0.5;0.0;0.5;0.75;0.75;0.5;0.0;0.0;0.5;-0.203613;0.03418;0.984863;-1.19;2.52;1.19;214.0;-0.245893;-0.091063;6.0;7.0;4.5;5.25;1.5;1.0;0.0;0.5;0.0;1.0;0.25;0.5;0.0;0.25;0.0;0.0;-0.230957;-0.01123;0.986328;-0.77;-0.42;0.7;265.0;-0.277939;-0.062693
0.01;5.25;4.75;2.5;4.25;0.5;1.5;0.25;0.5;0.0;0.5;0.75;0.75;0.5;0.0;0.0;0.5;-0.203613;0.03418;0.984863;-1.19;2.52;1.19;214.0;-0.245893;-0.091063;6.0;6.75;4.25;5.0;0.5;1.0;0.0;0.25;0.0;0.5;0.5;0.5;0.0;0.0;0.0;0.0;-0.226562;-0.010254;0.986816;-0.63;-0.28;1.75;240.0;-0.297856;-0.067126
0.02;5.25;4.75;2.5;4.25;0.5;1.5;0.25;0.5;0.0;0.5;0.75;0.75;0.5;0.0;0.0;0.5;-0.203613;0.03418;0.984863;-1.19;2.52;1.19;214.0;-0.245893;-0.091063;6.0;6.5;4.25;4.75;0.25;1.25;0.0;0.25;0.25;0.5;0.25;0.5;0.0;0.0;0.0;0.0;-0.227051;-0.006348;0.989746;-0.7;-0.35;0.21;236.0;-0.29549;-0.063276
0.03;5.25;5.0;2.75;4.25;0.75;1.5;0.0;0.5;0.0;0.75;0.75;1.0;0.5;0.0;0.0;0.5;-0.200684;0.033691;0.985352;-1.19;2.52;1.19;222.0;-0.241347;-0.093774;6.0;7.0;4.25;4.75;0.75;1.25;0.25;0.5;0.0;0.5;0.25;0.5;0.0;0.0;0.0;0.0;-0.224121;-0.009766;0.987793;-0.63;-0.42;0.42;249.0;-0.291529;-0.066863
0.04;5.75;5.0;2.75;4.25;0.75;1.75;0.0;0.5;0.0;1.0;0.75;0.5;0.5;0.0;0.0;0.5;-0.197754;0.038574;0.990234;-1.12;2.38;1.33;227.0;-0.248274;-0.085575;6.0;6.75;4.25;5.0;0.75;0.75;0.0;0.5;0.0;0.25;0.5;0.5;0.0;0.25;0.0;0.0;-0.229004;-0.009277;0.989746;-0.7;-0.42;1.33;243.0;-0.293042;-0.067652
0.05;5.75;5.25;2.75;4.25;0.5;1.75;0.0;0.5;0.0;0.5;0.5;0.5;0.5;0.0;0.0;0.25;-0.210938;0.033203;0.988281;-1.05;2.31;1.26;218.0;-0.270642;-0.089662;6.0;6.5;4.0;5.0;0.75;0.75;0.0;0.5;0.0;0.25;0.25;0.5;0.0;0.0;0.0;0.0;-0.22998;-0.003418;0.987793;-0.77;-0.35;0.63;234.0;-0.303424;-0.070031
0.06;5.5;5.25;2.75;4.25;0.5;1.875;0.0;0.5;0.0;0.5;0.5;0.5;0.5;0.0;0.0;0.125;-0.2053225;0.032715;0.9873045;-1.12;2.38;1.225;216.5;-0.27032849999999997;-0.0922595;6.0;7.0;3.75;5.25;0.5;1.0;0.0;0.5;0.0;0.25;0.25;0.0;0.0;0.0;0.0;0.0;-0.231934;-0.010254;0.986816;-0.77;-0.49;0.91;233.0;-0.316624;-0.074083
0.07;5.25;5.25;2.75;4.25;0.5;2.0;0.0;0.5;0.0;0.5;0.5;0.5;0.5;0.0;0.0;0.0;-0.199707;0.032227;0.986328;-1.19;2.45;1.19;215.0;-0.270015;-0.094857;6.0;7.0;4.0;5.25;0.75;1.0;0.0;0.25;0.25;0.25;0.0;0.0;0.0;0.0;0.0;0.0;-0.228516;-0.003906;0.983398;-0.7;-0.42;0.98;236.0;-0.316754;-0.061327
0.08;5.25;5.0;3.75;4.25;0.75;1.25;0.0;0.5;0.0;0.5;0.75;0.5;0.5;0.0;0.0;0.25;-0.201172;0.036133;0.991699;-0.98;2.52;1.4;222.0;-0.26183;-0.07939;6.25;6.5;4.0;5.0;0.75;1.0;0.0;0.0;0.0;0.5;0.0;0.25;0.0;0.0;0.0;0.0;-0.230469;-0.006348;0.988281;-0.7;-0.63;0.63;230.0;-0.316912;-0.056399
0.09;5.5;5.0;3.0;4.25;0.5;1.25;0.0;0.5;0.0;0.5;0.5;0.5;0.25;0.0;0.0;0.25;-0.197754;0.037598;0.992676;-1.12;2.31;1.26;209.0;-0.274614;-0.081061;6.0;6.5;3.75;5.0;0.75;1.25;0.0;0.25;0.0;0.25;0.0;0.25;0.0;0.25;0.0;0.0;-0.229004;-0.006348;0.989258;-0.77;-0.49;0.56;230.0;-0.309784;-0.066379
0.1;5.25;4.75;3.25;4.25;0.5;1.5;0.0;0.5;0.0;0.25;0.25;0.5;0.5;0.25;0.0;0.0;-0.19873;0.035156;0.993652;-1.12;2.45;1.26;208.0;-0.274893;-0.083647;5.75;6.5;4.0;4.5;0.75;1.0;0.0;0.5;0.0;0.25;0.0;0.25;0.0;0.0;0.0;0.0;-0.231934;-0.007324;0.989746;-0.77;-0.49;0.91;224.0;-0.312212;-0.067789
0.11;5.75;5.25;2.5;4.25;0.5;1.5;0.0;0.5;0.0;0.25;0.5;0.5;0.0;0.25;0.0;0.25;-0.198242;0.034668;0.985352;-0.98;2.38;1.33;209.0;-0.27995;-0.081813;6.0;6.5;4.25;5.0;0.75;1.0;0.0;0.5;0.25;0.5;0.5;0.25;0.0;0.0;0.0;0.0;-0.227539;-0.00293;0.983398;-0.7;-0.49;0.63;244.0;-0.289222;-0.063135
0.12;5.25;5.5;2.0;4.25;0.5;1.75;0.0;0.5;0.0;0.5;0.25;0.5;0.25;0.0;0.0;0.25;-0.200195;0.038574;0.988281;-1.19;2.38;1.26;204.0;-0.279406;-0.097845;6.0;6.5;4.25;5.25;0.5;0.5;0.0;0.5;0.25;0.5;0.5;0.25;0.0;0.0;0.0;0.0;-0.22168;-0.003418;0.987793;-0.7;-0.56;0.77;239.0;-0.29377;-0.061776
0.13;5.5;5.25;2.25;4.25;0.5;1.25;0.0;0.5;0.0;0.25;0.25;1.0;0.25;0.0;0.0;0.0;-0.198242;0.032227;0.986816;-1.19;2.38;1.19;203.0;-0.280781;-0.093344;6.0;6.75;4.25;4.75;0.75;0.5;0.0;0.25;0.0;0.5;0.5;0.25;0.0;0.0;0.0;0.0;-0.223633;-0.004883;0.985352;-0.63;-0.49;0.77;233.0;-0.304482;-0.057265
0.14;5.25;5.25;1.25;4.25;0.25;1.25;0.0;0.5;0.0;0.5;0.0;0.5;0.0;0.0;0.0;0.0;-0.203125;0.038086;0.990234;-1.26;2.52;1.19;181.0;-0.300105;-0.096629;6.0;7.0;4.0;4.75;0.5;0.25;0.0;0.25;0.0;0.25;0.25;0.5;0.0;0.25;0.0;0.0;-0.222656;-0.008789;0.984863;-0.7;-0.42;0.7;227.0;-0.30929;-0.06004
0.15;5.25;5.25;2.75;4.0;0.25;1.25;0.0;0.5;0.0;0.75;0.25;0.5;0.0;0.25;0.0;0.0;-0.203613;0.038086;0.990723;-1.33;2.45;1.26;200.0;-0.27796;-0.076457;6.0;7.0;4.25;5.0;0.5;0.5;0.0;0.25;0.0;0.25;0.0;0.5;0.0;0.25;0.0;0.0;-0.230469;-0.008789;0.987305;-0.7;-0.42;0.7;232.0;-0.312413;-0.061886
0.16;5.75;5.25;3.25;4.25;0.5;1.25;0.0;0.5;0.0;0.25;0.5;0.5;0.0;0.5;0.0;0.0;-0.202637;0.030762;0.98291;-1.12;2.31;1.26;215.0;-0.278342;-0.069792;5.75;7.0;4.25;5.0;0.75;0.5;0.0;0.5;0.0;0.25;0.0;0.5;0.0;0.0;0.0;0.0;-0.228516;-0.00293;0.985352;-0.7;-0.49;0.84;234.0;-0.311073;-0.069204
0.17;5.5;5.5;3.0;4.25;0.5;1.5;0.0;0.5;0.0;0.0;0.75;0.5;0.25;0.0;0.0;0.25;-0.203125;0.032715;0.98584;-1.05;2.38;1.33;214.0;-0.281842;-0.088584;6.0;6.75;4.25;4.75;0.75;0.5;0.0;0.5;0.25;0.5;0.25;0.5;0.0;0.0;0.0;0.0;-0.231445;-0.006836;0.98877;-0.7;-0.49;0.77;239.0;-0.293338;-0.059798
0.18;5.25;5.0;2.5;4.25;0.5;1.5;0.0;0.5;0.0;0.25;0.5;0.5;0.5;0.0;0.0;0.25;-0.19873;0.037598;0.98584;-1.12;2.66;1.33;204.0;-0.273522;-0.095272;6.0;6.5;4.0;4.5;0.75;0.5;0.0;0.25;0.25;0.5;0.25;0.5;0.0;0.0;0.0;0.0;-0.228516;-0.003418;0.98291;-0.77;-0.49;0.77;228.0;-0.296852;-0.053619
0.19;5.25;5.25;2.75;4.25;0.5;1.75;0.0;0.5;0.0;0.5;0.25;0.5;0.5;0.0;0.0;0.5;-0.19873;0.030762;0.997559;-1.05;2.38;1.33;212.0;-0.269569;-0.095105;5.75;6.5;4.25;5.0;0.75;0.25;0.0;0.5;0.0;0.5;0.25;0.5;0.0;0.0;0.0;0.0;-0.226562;-0.004883;0.984375;-0.63;-0.42;0.77;232.0;-0.299648;-0.064371
0.2;5.5;5.5;2.75;4.25;0.5;1.0;0.0;0.5;0.0;0.5;0.5;0.5;0.5;0.0;0.0;0.5;-0.208496;0.038574;0.986328;-1.19;2.45;1.4;212.0;-0.27106;-0.087504;6.25;6.5;4.5;5.0;0.75;0.5;0.0;0.5;0.0;0.0;0.5;0.5;0.0;0.0;0.0;0.0;-0.227051;-0.005371;0.983398;-0.63;-0.42;0.77;239.0;-0.305286;-0.064538
0.21;5.5;5.25;2.5;4.25;0.5;0.75;0.0;0.25;0.0;0.5;0.25;0.5;0.5;0.0;0.0;0.5;-0.19873;0.037109;0.986816;-1.26;2.52;1.19;199.0;-0.281584;-0.080959;6.0;7.0;4.5;5.0;0.75;0.75;0.0;0.25;0.0;0.25;0.5;0.25;0.0;0.0;0.0;0.0;-0.225586;-0.009277;0.98584;-0.56;-0.42;0.7;240.0;-0.308698;-0.061852
0.22;5.5;4.75;2.5;4.25;0.5;1.25;0.0;0.0;0.0;0.0;0.25;0.5;0.25;0.25;0.0;0.25;-0.205078;0.036621;0.98584;-1.19;2.52;1.19;190.0;-0.295015;-0.073859;6.0;7.0;4.5;5.0;0.75;0.5;0.0;0.25;0.25;0.5;0.5;0.25;0.0;0.0;0.0;0.0;-0.230957;-0.002441;0.990723;-0.7;-0.42;0.7;243.0;-0.297955;-0.054312
0.23;4.75;4.75;2.5;4.25;0.5;1.0;0.0;0.0;0.0;0.0;0.5;0.5;0.0;0.25;0.0;0.0;-0.202637;0.032227;0.986816;-1.33;2.45;1.33;180.0;-0.295479;-0.072915;6.0;6.75;4.25;4.75;0.75;0.25;0.0;0.25;0.25;0.25;0.25;0.0;0.0;0.0;0.0;0.0;-0.226074;-0.008301;0.983398;-0.7;-0.42;0.7;226.0;-0.315576;-0.048605
0.24;5.25;5.0;2.5;4.5;0.5;1.25;0.0;0.25;0.0;0.5;0.5;0.25;0.25;0.25;0.0;0.0;-0.20166;0.033203;0.983887;-1.12;2.59;1.26;199.0;-0.281166;-0.077482;6.25;6.5;4.25;4.75;0.75;0.5;0.0;0.25;0.0;0.5;0.25;0.0;0.0;0.0;0.0;0.0;-0.226074;-0.005859;0.986328;-0.7;-0.42;0.84;228.0;-0.31548;-0.051397
0.25;5.75;5.0;3.0;4.25;0.5;1.25;0.0;0.25;0.0;0.5;0.25;0.5;0.5;0.5;0.0;0.25;-0.199707;0.034668;0.983398;-1.19;2.45;1.33;212.0;-0.269167;-0.072259;6.25;6.5;4.25;4.75;0.75;0.5;0.0;0.5;0.0;0.25;0.5;0.0;0.0;0.0;0.0;0.0;-0.232422;-0.006836;0.986816;-0.63;-0.35;0.77;232.0;-0.311041;-0.05836
0.26;5.75;5.5;3.0;4.25;0.5;1.5;0.0;0.25;0.0;0.5;0.0;0.5;0.5;0.25;0.0;0.0;-0.20166;0.033691;0.983887;-1.12;2.52;1.33;213.0;-0.286227;-0.076845;6.0;6.75;4.0;5.0;0.75;0.5;0.0;0.0;0.0;0.0;0.25;0.0;0.0;0.0;0.0;0.0;-0.231445;-0.005371;0.989258;-0.63;-0.42;0.77;219.0;-0.332614;-0.054952
0.27;5.75;5.25;2.75;4.5;0.5;1.5;0.0;0.5;0.0;0.5;0.5;0.5;0.25;0.5;0.0;0.0;-0.196289;0.033203;0.990723;-1.19;2.59;1.19;219.0;-0.267605;-0.0797;6.0;6.75;3.75;5.0;0.75;0.5;0.0;0.0;0.0;0.25;0.0;0.25;0.0;0.25;0.0;0.0;-0.226074;-0.004395;0.98877;-0.77;-0.42;0.77;221.0;-0.320786;-0.055251
0.28;5.5;5.0;3.0;4.5;0.5;1.5;0.0;0.5;0.0;0.5;0.5;0.5;0.25;0.5;0.0;0.0;-0.197754;0.035645;0.992676;-1.12;2.38;1.26;217.0;-0.264655;-0.07893;6.0;7.0;4.0;5.25;0.75;0.75;0.0;0.25;0.0;0.25;0.0;0.0;0.0;0.25;0.0;0.0;-0.226074;-0.003906;0.984375;-0.56;-0.28;0.63;232.0;-0.319775;-0.061377
0.29;5.5;5.5;2.75;4.5;0.75;1.5;0.0;0.5;0.0;0.25;0.5;0.5;0.5;0.0;0.0;0.0;-0.196777;0.035645;0.985352;-1.33;2.52;1.26;217.0;-0.279718;-0.09068;6.0;6.5;4.25;4.5;0.75;0.5;0.0;0.25;0.25;0.25;0.25;0.0;0.0;0.0;0.0;0.0;-0.229004;-0.005371;0.982422;-0.7;-0.56;0.77;224.0;-0.313123;-0.048017
0.3;5.5;5.25;2.75;4.25;0.5;1.25;0.0;0.5;0.0;0.5;0.5;0.5;0.5;0.0;0.0;0.0;-0.19873;0.036133;0.986816;-1.33;2.38;1.33;210.0;-0.275712;-0.086223;6.0;6.75;4.0;4.75;0.75;0.5;0.0;0.0;0.0;0.25;0.25;0.25;0.0;0.0;0.0;0.0;-0.225586;-0.011719;0.986816;-0.63;-0.35;0.77;222.0;-0.321079;-0.054375
0.31;5.25;5.25;2.75;4.25;0.5;1.25;0.0;0.5;0.0;0.0;0.25;0.5;0.5;0.0;0.0;0.0;-0.197266;0.032715;0.981934;-1.19;2.38;1.26;200.0;-0.292463;-0.09174;5.75;6.75;4.0;4.75;0.75;0.5;0.0;0.0;0.0;0.5;0.0;0.25;0.0;0.0;0.0;0.0;-0.227051;-0.008789;0.987793;-0.7;-0.35;0.7;219.0;-0.320073;-0.054183
0.32;5.0;5.0;2.75;4.25;0.5;1.5;0.0;0.5;0.0;0.25;0.0;0.25;0.5;0.0;0.0;0.0;-0.199707;0.035156;0.983887;-1.19;2.45;1.19;196.0;-0.294055;-0.09097;6.25;7.0;4.25;5.0;0.75;0.75;0.0;0.25;0.25;0.5;0.0;0.25;0.0;0.0;0.0;0.0;-0.230469;-0.007812;0.983887;-0.84;-0.42;0.7;240.0;-0.30827;-0.055266
0.33;5.5;5.0;3.0;4.25;0.5;1.5;0.0;0.25;0.0;0.5;0.0;0.25;0.25;0.0;0.0;0.25;-0.201172;0.03125;0.98584;-1.4;2.52;1.26;201.0;-0.295342;-0.074663;6.0;6.5;4.0;4.5;0.75;0.5;0.0;0.5;0.0;0.5;0.0;0.0;0.0;0.0;0.0;0.0;-0.227539;-0.00293;0.982422;-0.77;-0.42;0.7;222.0;-0.316526;-0.057407
0.34;5.75;5.25;3.0;4.5;0.75;1.25;0.0;0.25;0.0;0.5;0.0;0.5;0.25;0.0;0.0;0.25;-0.199707;0.040527;0.989746;-1.19;2.52;1.19;211.0;-0.291558;-0.073872;6.0;6.25;4.0;4.75;0.75;0.5;0.0;0.0;0.0;0.5;0.0;0.25;0.0;0.0;0.0;0.0;-0.228027;-0.007324;0.984863;-0.7;-0.42;0.77;218.0;-0.31911;-0.050242
0.35;5.75;5.25;1.25;4.5;0.5;1.25;0.0;0.25;0.0;0.5;0.5;0.5;0.25;0.25;0.0;0.25;-0.195801;0.040039;0.992676;-1.26;2.52;1.26;197.0;-0.276491;-0.088923;6.0;6.25;4.0;4.5;0.75;0.75;0.0;0.0;0.0;0.5;0.25;0.25;0.0;0.0;0.0;0.0;-0.229492;0.000488;0.988281;-0.7;-0.42;0.63;220.0;-0.31165;-0.051484
0.36;5.5;5.0;2.0;4.5;0.5;1.25;0.0;0.25;0.0;0.5;0.5;0.5;0.5;0.25;0.0;0.5;-0.201172;0.03418;0.989258;-1.19;2.38;1.33;203.0;-0.264869;-0.088748;6.0;6.5;4.25;4.5;0.5;0.25;0.0;0.25;0.25;0.5;0.5;0.0;0.0;0.0;0.0;0.0;-0.228516;-0.002441;0.98584;-0.7;-0.42;0.63;224.0;-0.305361;-0.046279
0.37;5.75;5.0;2.5;4.5;0.5;1.5;0.0;0.5;0.0;0.5;0.5;0.25;0.5;0.0;0.0;0.25;-0.196777;0.032715;0.98291;-1.26;2.52;1.26;211.0;-0.276327;-0.088159;6.0;6.5;4.5;4.75;0.5;0.25;0.0;0.25;0.0;0.5;0.25;0.5;0.0;0.25;0.0;0.0;-0.224609;0.001465;0.982422;-0.63;-0.42;0.77;230.0;-0.300668;-0.053502
0.38;5.75;4.75;3.25;4.5;0.5;1.5;0.0;0.5;0.0;0.75;0.0;0.25;0.5;0.25;0.0;0.25;-0.199219;0.037598;0.98584;-1.19;2.31;1.26;216.0;-0.273794;-0.076435;6.0;6.5;4.0;4.5;0.75;0.5;0.0;0.25;0.0;0.25;0.0;0.0;0.0;0.0;0.0;0.0;-0.225098;-0.009277;0.988281;-0.77;-0.49;0.77;216.0;-0.327563;-0.053358
0.39;5.75;5.5;3.5;4.25;0.5;1.25;0.0;0.5;0.0;0.5;0.0;0.5;0.25;0.5;0.0;0.0;-0.196777;0.033691;0.987793;-1.19;2.38;1.26;219.0;-0.280836;-0.069971;5.5;6.5;4.0;5.0;0.75;0.5;0.0;0.0;0.0;0.0;0.0;0.25;0.0;0.0;0.0;0.0;-0.230469;-0.006348;0.985352;-0.56;-0.49;0.77;213.0;-0.330341;-0.059543
0.4;5.75;5.5;3.25;4.25;0.5;1.25;0.0;0.5;0.0;0.25;0.25;0.5;0.25;0.5;0.0;0.0;-0.202637;0.037598;0.98584;-1.26;2.52;1.19;216.0;-0.28114;-0.073829;5.75;6.5;4.25;4.75;0.75;0.5;0.0;0.0;0.0;0.25;0.0;0.25;0.0;0.0;0.0;0.0;-0.228027;-0.010254;0.984375;-0.63;-0.42;0.7;217.0;-0.324626;-0.052706
0.41;5.75;5.75;2.5;4.25;0.5;1.25;0.0;0.5;0.0;0.5;0.25;0.25;0.25;0.25;0.0;0.0;-0.199219;0.035156;0.984863;-1.12;2.45;1.26;209.0;-0.289291;-0.078959;6.0;6.75;4.25;4.5;0.75;0.5;0.0;0.5;0.0;0.25;0.25;0.0;0.0;0.0;0.0;0.0;-0.225098;-0.006836;0.984375;-0.77;-0.42;0.77;226.0;-0.316996;-0.058657
0.42;5.5;5.25;2.75;4.25;0.5;1.25;0.0;0.25;0.0;0.5;0.25;0.0;0.25;0.25;0.0;0.25;-0.197266;0.03418;0.990723;-1.05;2.52;1.19;200.0;-0.291725;-0.070622;5.75;6.5;4.0;4.75;0.5;0.5;0.0;0.0;0.0;0.5;0.25;0.25;0.0;0.0;0.0;0.0;-0.224121;-0.003906;0.991211;-0.7;-0.42;0.84;217.0;-0.31537;-0.055114
0.43;5.75;5.25;2.75;4.25;0.5;1.25;0.0;0.5;0.0;0.5;0.25;0.25;0.25;0.25;0.0;0.0;-0.196289;0.034668;0.98584;-1.05;2.38;1.33;207.0;-0.28641;-0.075116;5.5;7.0;4.0;5.0;0.75;0.75;0.0;0.0;0.0;0.5;0.25;0.0;0.0;0.0;0.0;0.0;-0.228027;-0.007812;0.98584;-0.77;-0.42;0.77;224.0;-0.317743;-0.059353
0.44;6.0;4.75;2.75;4.25;0.25;1.75;0.0;0.5;0.0;0.25;0.5;0.5;0.0;0.0;0.0;0.0;-0.196289;0.037598;0.987793;-1.05;2.38;1.33;206.0;-0.289168;-0.080888;6.0;6.5;4.0;4.5;0.5;0.5;0.0;0.25;0.25;0.25;0.0;0.0;0.0;0.0;0.0;0.0;-0.229492;-0.009766;0.987793;-0.63;-0.42;0.84;216.0;-0.321831;-0.050155
0.45;5.5;5.25;3.0;4.25;0.25;1.25;0.0;0.5;0.0;0.25;0.5;0.5;0.25;0.0;0.0;0.25;-0.19873;0.038574;0.986328;-1.19;2.45;1.26;207.0;-0.283802;-0.085326;6.0;6.25;3.75;4.25;0.75;0.5;0.0;0.25;0.0;0.25;0.0;0.25;0.0;0.0;0.0;0.0;-0.230469;-0.005859;0.986816;-0.7;-0.35;0.77;211.0;-0.321761;-0.05469
0.46;5.5;5.25;3.25;4.5;0.5;1.25;0.0;0.5;0.0;0.0;0.25;0.5;0.25;0.25;0.0;0.25;-0.206055;0.03418;0.980957;-1.12;2.45;1.26;211.0;-0.286981;-0.082035;5.75;6.5;3.75;4.5;0.75;0.5;0.0;0.25;0.0;0.25;0.0;0.5;0.0;0.0;0.0;0.0;-0.227539;-0.007812;0.984863;-0.7;-0.35;0.7;216.0;-0.315452;-0.062246
0.47;5.75;5.5;3.0;4.5;0.5;1.25;0.0;0.5;0.0;0.25;0.5;0.5;0.25;0.0;0.0;0.0;-0.199707;0.039062;0.987793;-1.26;2.45;1.26;215.0;-0.288358;-0.082568;5.5;6.5;3.75;4.5;0.75;0.25;0.0;0.5;0.0;0.25;0.0;0.25;0.0;0.0;0.0;0.0;-0.231934;-0.004883;0.986328;-0.77;-0.42;0.91;212.0;-0.317391;-0.064432
0.48;5.75;5.5;2.25;4.25;0.5;1.25;0.0;0.5;0.0;0.5;0.5;0.5;0.25;0.0;0.0;0.25;-0.19873;0.037109;0.98291;-1.26;2.52;1.19;208.0;-0.279283;-0.086884;5.75;6.75;4.25;4.5;0.75;0.0;0.0;0.0;0.0;0.5;0.5;0.25;0.0;0.0;0.0;0.0;-0.224609;-0.007812;0.98291;-0.63;-0.42;0.84;219.0;-0.311695;-0.046944
0.49;5.5;4.75;2.0;4.25;0.5;0.75;0.0;0.5;0.0;0.5;0.5;0.5;0.0;0.0;0.0;0.25;-0.20166;0.039551;0.986816;-1.26;2.59;1.19;190.0;-0.281391;-0.080256;5.75;6.5;4.5;4.5;0.75;0.5;0.0;0.0;0.0;0.0;0.25;0.0;0.0;0.0;0.0;0.0;-0.233398;-0.007812;0.986816;-0.84;-0.42;0.77;215.0;-0.330468;-0.04828
0.5;5.5;4.75;2.75;4.25;0.5;1.0;0.0;0.5;0.25;0.5;0.5;0.5;0.0;0.0;0.0;0.0;-0.195312;0.039551;0.984375;-1.19;2.45;1.26;202.0;-0.275199;-0.069508;5.75;6.5;4.25;4.5;0.75;0.25;0.0;0.25;0.0;0.0;0.0;0.0;0.0;0.0;0.0;0.0;-0.227051;-0.007812;0.981445;-0.77;-0.28;0.77;211.0;-0.334425;-0.052186
0.51;5.5;5.25;3.0;4.25;0.5;1.25;0.0;0.5;0.25;0.5;0.75;0.25;0.25;0.25;0.0;0.25;-0.197266;0.036621;0.987305;-1.19;2.52;1.26;216.0;-0.262314;-0.072635;5.75;6.5;4.0;4.75;0.75;0.25;0.0;0.25;0.0;0.25;0.0;0.0;0.0;0.0;0.0;0.0;-0.232422;-0.00293;0.987793;-0.63;-0.49;0.84;213.0;-0.328295;-0.054613
0.52;5.75;5.25;3.0;4.5;0.5;1.5;0.25;0.5;0.0;0.5;0.75;0.5;0.25;0.25;0.0;0.25;-0.202637;0.035645;0.992188;-1.19;2.45;1.26;227.0;-0.259419;-0.076728;5.75;6.25;4.0;4.75;0.75;0.25;0.0;0.25;0.0;0.5;0.25;0.0;0.0;0.0;0.0;0.25;-0.227539;-0.005371;0.983887;-0.63;-0.35;0.77;217.0;-0.311157;-0.054399
0.53;5.75;5.25;3.0;4.25;0.5;1.75;0.0;0.5;0.0;0.5;0.5;0.25;0.25;0.0;0.0;0.25;-0.202148;0.034668;0.984863;-1.12;2.52;1.33;216.0;-0.279984;-0.081829;5.75;6.5;4.25;4.75;0.75;0.25;0.0;0.0;0.0;0.5;0.5;0.25;0.0;0.0;0.0;0.0;-0.227051;-0.003906;0.98584;-0.7;-0.42;0.7;222.0;-0.308642;-0.050354
0.54;5.75;5.5;3.25;4.0;0.5;1.75;0.0;0.5;0.0;0.5;0.5;0.25;0.0;0.0;0.0;0.5;-0.19873;0.035645;0.98291;-1.12;2.38;1.26;218.0;-0.281487;-0.076843;6.0;6.75;4.25;5.0;0.75;0.0;0.0;0.0;0.0;0.5;0.25;0.25;0.0;0.0;0.0;0.0;-0.21875;-0.009766;0.988281;-0.7;-0.42;0.91;224.0;-0.317862;-0.048544
0.55;5.25;5.0;2.5;4.5;0.5;1.25;0.0;0.5;0.0;0.5;0.5;0.5;0.25;0.0;0.0;0.0;-0.197266;0.033691;0.980957;-1.26;2.59;1.19;203.0;-0.277408;-0.0879;5.75;6.75;4.0;5.0;0.75;0.25;0.0;0.25;0.0;0.5;0.25;0.0;0.0;0.0;0.0;0.0;-0.232422;-0.003906;0.986816;-0.63;-0.42;0.7;223.0;-0.31665;-0.056977
0.56;6.0;5.25;2.75;4.25;0.5;1.25;0.0;0.5;0.0;0.5;0.5;0.25;0.25;0.25;0.0;0.0;-0.19873;0.033691;0.983398;-1.19;2.45;1.26;212.0;-0.281931;-0.073522;5.75;6.75;4.0;4.5;0.75;0.5;0.0;0.25;0.0;0.5;0.25;0.0;0.0;0.0;0.0;0.0;-0.22998;-0.008789;0.984863;-0.7;-0.42;0.77;220.0;-0.315455;-0.055592
0.57;5.75;5.5;2.5;4.5;0.75;1.25;0.0;0.5;0.0;0.5;0.75;0.25;0.5;0.25;0.0;0.0;-0.199219;0.039062;0.982422;-1.12;2.45;1.19;219.0;-0.270692;-0.082483;5.5;6.75;4.5;4.5;1.0;0.75;0.0;0.5;0.0;0.5;0.5;0.5;0.0;0.0;0.0;0.0;-0.228516;-0.006348;0.984863;-0.7;-0.28;0.91;239.0;-0.289366;-0.06551
0.58;5.75;5.25;2.75;4.5;0.75;1.25;0.0;0.5;0.0;0.0;0.5;0.5;0.5;0.0;0.0;0.0;-0.20166;0.039551;0.98584;-1.12;2.59;1.26;212.0;-0.287058;-0.087304;5.5;6.5;4.25;4.5;0.75;0.75;0.0;0.5;0.0;0.5;0.0;0.25;0.0;0.0;0.0;0.0;-0.229492;-0.003418;0.990234;-0.56;-0.21;0.63;224.0;-0.306635;-0.064197
0.59;5.75;5.25;2.75;4.5;0.75;1.5;0.0;0.5;0.25;0.25;0.5;0.75;0.5;0.0;0.0;0.25;-0.196289;0.037598;0.984863;-1.26;2.59;1.12;224.0;-0.263729;-0.086432;6.0;6.5;4.25;4.75;0.75;0.5;0.0;0.5;0.0;0.5;0.0;0.0;0.0;0.0;0.0;0.0;-0.233398;-0.007812;0.992676;-0.7;-0.21;0.84;227.0;-0.315631;-0.057608
0.6;5.5;5.5;2.75;4.25;0.5;1.5;0.0;0.5;0.25;0.25;0.5;0.75;0.5;0.5;0.0;0.25;-0.200195;0.03418;0.986816;-1.05;2.52;1.19;223.0;-0.253116;-0.084735;6.0;6.25;4.25;4.5;0.75;0.5;0.0;0.5;0.0;0.5;0.25;0.0;0.0;0.0;0.0;0.0;-0.229004;-0.006836;0.982422;-0.7;-0.35;0.77;225.0;-0.309223;-0.055344
0.61;5.5;5.25;2.25;4.25;0.5;1.5;0.0;0.25;0.0;0.25;0.25;0.75;0.5;0.5;0.0;0.0;-0.201172;0.03418;0.985352;-1.05;2.38;1.26;205.0;-0.271965;-0.086509;6.0;6.25;4.25;4.5;0.75;0.5;0.0;0.25;0.0;0.5;0.25;0.5;0.0;0.0;0.0;0.0;-0.224609;-0.005859;0.986816;-0.63;-0.28;0.7;226.0;-0.302711;-0.055301
0.62;5.75;5.25;2.75;4.25;0.5;1.5;0.0;0.5;0.0;0.25;0.0;0.5;0.25;0.0;0.0;0.25;-0.196289;0.039062;0.982422;-1.19;2.45;1.26;207.0;-0.293697;-0.085026;6.0;6.25;4.25;4.5;0.75;0.5;0.0;0.0;0.0;0.5;0.25;0.25;0.0;0.0;0.25;0.0;-0.226074;-0.006348;0.987793;-0.77;-0.42;0.84;222.0;-0.305099;-0.047725
0.63;5.5;5.0;2.75;4.5;0.5;1.5;0.25;0.5;0.0;0.25;0.0;0.5;0.25;0.0;0.0;0.25;-0.199707;0.032715;0.985352;-1.26;2.66;1.19;208.0;-0.284871;-0.08261;5.5;6.5;3.5;4.5;1.0;0.5;0.0;0.25;0.25;0.5;0.25;0.25;0.0;0.0;0.0;0.0;-0.226562;-0.008789;0.984375;-0.7;-0.49;0.91;219.0;-0.298896;-0.056481
0.64;5.5;5.0;3.0;4.5;0.75;2.0;0.25;0.5;0.0;0.5;0.25;0.5;0.5;0.0;0.0;0.25;-0.199707;0.039551;0.986328;-1.19;2.52;1.19;225.0;-0.264925;-0.085426;6.0;6.0;3.75;4.5;0.75;0.5;0.0;0.25;0.25;0.5;0.5;0.0;0.0;0.0;0.0;0.0;-0.228516;-0.005371;0.986328;-0.77;-0.42;0.7;219.0;-0.300353;-0.048473
0.65;5.75;5.25;2.75;4.5;0.5;1.5;0.0;0.5;0.0;0.5;0.5;0.5;0.25;0.25;0.0;0.0;-0.205078;0.041992;0.989258;-1.26;2.59;1.26;217.0;-0.273724;-0.082015;6.0;6.25;4.0;4.5;0.75;0.5;0.0;0.5;0.0;0.5;0.25;0.25;0.0;0.0;0.0;0.0;-0.233887;-0.00293;0.985352;-0.63;-0.42;0.77;224.0;-0.304144;-0.059573
0.66;5.25;5.0;2.5;4.25;0.5;1.25;0.0;0.5;0.25;0.5;0.25;0.5;0.5;0.0;0.0;0.0;-0.201172;0.036621;0.98584;-1.26;2.59;1.26;203.0;-0.270969;-0.084213;6.0;6.5;4.0;5.0;0.75;0.5;0.0;0.25;0.0;0.5;0.0;0.5;0.0;0.0;0.0;0.0;-0.227051;-0.005371;0.987793;-0.7;-0.42;0.7;228.0;-0.309395;-0.061036
0.67;5.25;5.25;2.75;4.25;0.5;1.25;0.0;0.5;0.0;0.5;0.25;0.25;0.5;0.0;0.0;0.0;-0.197266;0.03418;0.984863;-1.19;2.38;1.26;203.0;-0.285927;-0.085658;5.75;6.5;4.0;4.75;0.75;0.5;0.0;0.5;0.0;0.5;0.25;0.25;0.0;0.0;0.0;0.0;-0.227051;-0.006348;0.983398;-0.63;-0.42;0.7;227.0;-0.303969;-0.064152
0.68;5.5;5.25;2.75;4.25;0.5;1.5;0.0;0.5;0.0;0.75;0.5;0.25;0.5;0.25;0.0;0.0;-0.204102;0.039062;0.987305;-1.33;2.66;1.19;214.0;-0.267734;-0.081959;5.5;6.5;4.25;4.5;0.75;0.5;0.0;0.25;0.0;0.25;0.5;0.0;0.0;0.0;0.0;0.0;-0.22998;-0.003418;0.97998;-0.77;-0.42;0.7;218.0;-0.313062;-0.056577
0.69;5.75;5.0;2.75;4.25;0.5;1.25;0.0;0.5;0.0;0.5;0.5;0.25;0.0;0.25;0.0;0.25;-0.19873;0.035645;0.983887;-1.33;2.45;1.19;207.0;-0.279641;-0.072374;5.5;6.25;4.25;4.5;0.75;0.5;0.0;0.25;0.0;0.25;0.25;0.5;0.0;0.0;0.0;0.0;-0.228516;-0.007324;0.987305;-0.77;-0.42;0.77;219.0;-0.306436;-0.060149
0.7;5.25;5.0;2.75;4.25;0.5;1.25;0.0;0.5;0.0;0.5;0.5;0.0;0.0;0.5;0.0;0.25;-0.197754;0.034668;0.989746;-1.33;2.59;1.12;202.0;-0.275884;-0.071536;5.5;6.25;4.0;4.5;1.0;0.5;0.0;0.0;0.0;0.5;0.0;0.5;0.0;0.0;0.0;0.0;-0.231445;-0.003418;0.983887;-0.7;-0.42;0.77;215.0;-0.309437;-0.053157
0.71;5.0;4.5;2.75;4.5;0.5;1.25;0.0;0.5;0.0;0.75;0.5;0.25;0.25;0.25;0.0;0.0;-0.202148;0.037109;0.983398;-1.4;2.52;1.12;201.0;-0.265876;-0.079464;5.5;6.25;4.0;4.5;0.75;0.5;0.0;0.0;0.0;0.25;0.25;0.5;0.0;0.0;0.0;0.0;-0.228027;-0.004883;0.984375;-0.7;-0.49;0.7;213.0;-0.311733;-0.056523
0.72;5.0;4.75;3.0;4.25;0.75;1.5;0.25;0.5;0.0;1.0;0.5;0.5;0.25;0.0;0.0;0.0;-0.202148;0.033203;0.986816;-1.26;2.59;1.19;215.0;-0.253729;-0.075151;5.75;6.0;4.0;4.5;0.5;0.5;0.0;0.25;0.25;0.0;0.25;0.5;0.0;0.0;0.0;0.0;-0.232422;-0.006836;0.980469;-0.7;-0.56;0.77;215.0;-0.307243;-0.057154
0.73;5.25;5.0;2.75;4.0;0.75;1.5;0.0;0.5;0.25;0.5;0.75;0.5;0.5;0.25;0.0;0.0;-0.196777;0.037598;0.990234;-1.26;2.52;1.26;215.0;-0.250371;-0.079325;5.75;6.5;4.0;4.5;0.5;0.5;0.0;0.25;0.0;0.5;0.25;0.5;0.0;0.0;0.0;0.0;-0.231445;-0.004395;0.981934;-0.7;-0.56;0.77;221.0;-0.305168;-0.061121
0.74;5.5;5.25;2.5;4.25;0.5;1.5;0.0;0.5;0.0;0.25;0.5;0.5;0.25;0.0;0.0;0.25;-0.205078;0.032715;0.98584;-1.26;2.52;1.26;207.0;-0.280744;-0.090118;5.75;6.75;4.25;4.5;0.75;0.5;0.0;0.25;0.0;0.5;0.25;0.25;0.0;0.0;0.0;0.0;-0.22998;-0.009277;0.981934;-0.84;-0.49;0.7;225.0;-0.309267;-0.056522
0.75;5.0;5.0;2.5;4.25;0.5;1.5;0.0;0.5;0.0;0.0;0.25;0.5;0.25;0.0;0.0;0.0;-0.196289;0.032227;0.987305;-1.26;2.52;1.19;194.0;-0.293067;-0.094287;5.75;6.5;4.0;4.5;0.75;0.5;0.0;0.25;0.25;0.0;0.0;0.25;0.0;0.0;0.0;0.0;-0.234375;-0.001953;0.98584;-0.77;-0.56;0.84;217.0;-0.318914;-0.054591
0.76;5.0;4.75;3.0;4.25;0.75;1.5;0.0;0.5;0.0;0.0;0.5;0.5;0.25;0.0;0.0;0.0;-0.196289;0.032715;0.983887;-1.19;2.59;1.12;202.0;-0.282825;-0.087206;6.0;6.5;4.25;4.75;0.75;0.5;0.0;0.25;0.0;0.25;0.25;0.5;0.0;0.0;0.0;0.0;-0.235352;-0.00293;0.983887;-0.84;-0.56;0.7;228.0;-0.309258;-0.05943
0.77;5.5;4.75;2.75;4.25;0.5;1.5;0.0;0.5;0.0;0.5;0.75;0.5;0.25;0.0;0.0;0.0;-0.19873;0.038086;0.98584;-1.19;2.73;1.12;208.0;-0.269887;-0.083586;6.0;6.5;4.0;4.75;0.75;0.75;0.0;0.5;0.0;0.5;0.25;0.5;0.0;0.0;0.0;0.0;-0.228027;-0.008301;0.986816;-0.77;-0.49;0.77;234.0;-0.298065;-0.067009
0.78;5.25;4.75;1.75;4.0;0.5;1.75;0.0;0.5;0.0;0.5;1.0;1.0;0.5;0.25;0.0;0.25;-0.200684;0.035156;0.98877;-1.19;2.73;1.19;208.0;-0.235779;-0.102642;5.5;6.25;4.5;5.0;0.75;0.75;0.25;0.25;0.0;0.5;0.0;0.5;0.0;0.0;0.0;0.0;-0.226074;-0.006348;0.983887;-0.84;-0.49;0.84;232.0;-0.298012;-0.057955
0.79;4.75;4.75;2.75;4.0;0.75;1.75;0.0;0.5;0.0;0.5;0.75;0.5;0.25;0.25;0.0;0.25;-0.205078;0.037109;0.984375;-1.19;2.66;1.19;207.0;-0.251687;-0.087915;5.5;6.25;4.25;4.75;0.75;0.75;0.0;0.25;0.0;0.25;0.5;0.5;0.0;0.0;0.0;0.0;-0.225098;-0.000977;0.984863;-0.84;-0.42;0.77;226.0;-0.298897;-0.064906
0.8;4.75;4.75;2.5;4.0;0.5;1.75;0.0;0.5;0.0;0.5;0.5;0.25;0.0;0.0;0.0;0.25;-0.199219;0.036621;0.982422;-1.12;2.45;1.12;193.0;-0.275882;-0.088082;6.0;6.75;4.25;4.75;1.25;1.0;0.0;0.25;0.25;0.25;0.25;0.5;0.0;0.0;0.0;0.0;-0.229004;-0.003906;0.984375;-0.77;-0.49;0.77;243.0;-0.296217;-0.05812
0.81;5.25;4.75;2.5;4.0;0.5;1.75;0.0;0.5;0.0;0.5;0.5;0.5;0.5;0.25;0.0;0.25;-0.201172;0.032715;0.983887;-1.12;2.66;1.12;206.0;-0.258008;-0.090697;5.5;7.0;4.25;4.75;0.75;0.75;0.0;0.5;0.0;0.5;0.0;0.75;0.0;0.0;0.0;0.0;-0.233398;-0.013184;0.983887;-0.77;-0.35;0.7;236.0;-0.297841;-0.072457
0.82;5.25;4.75;2.5;4.0;0.75;1.25;0.0;0.5;0.0;0.5;0.75;0.5;0.25;0.25;0.0;0.0;-0.197266;0.037598;0.983887;-1.12;2.52;1.19;203.0;-0.261256;-0.079631;5.5;6.25;4.25;4.5;0.75;0.75;0.0;0.5;0.0;0.5;0.25;0.5;0.0;0.0;0.0;0.0;-0.224609;-0.010254;0.98584;-0.77;-0.42;0.7;227.0;-0.29452;-0.066256
0.83;4.75;4.75;2.5;4.0;0.5;1.25;0.0;0.5;0.25;0.5;0.75;0.25;0.25;0.0;0.0;0.25;-0.204102;0.040527;0.988281;-1.26;2.66;1.19;196.0;-0.260202;-0.081984;5.5;6.25;4.0;4.75;1.0;1.0;0.0;0.25;0.0;0.5;0.5;0.5;0.0;0.0;0.0;0.0;-0.227539;-0.001465;0.985352;-0.77;-0.42;0.77;231.0;-0.290247;-0.066151
0.84;5.0;4.75;2.0;4.0;0.5;1.5;0.0;0.5;0.0;0.75;0.75;0.5;0.25;0.0;0.0;0.25;-0.201172;0.033203;0.98877;-1.12;2.52;1.26;197.0;-0.256478;-0.092801;5.5;6.25;4.0;4.25;1.0;0.75;0.0;0.25;0.0;0.25;0.25;0.5;0.0;0.0;0.0;0.0;-0.228027;-0.003906;0.989746;-0.77;-0.49;0.77;219.0;-0.303298;-0.061028
0.85;5.25;4.75;2.5;4.0;0.5;1.5;0.0;0.5;0.0;1.0;0.75;0.5;0.5;0.0;0.0;0.25;-0.193359;0.039551;0.988281;-1.26;2.52;1.19;209.0;-0.248643;-0.087805;6.0;6.5;4.25;4.75;1.25;0.5;0.25;0.5;0.0;0.25;0.25;0.75;0.0;0.25;0.0;0.0;-0.234863;-0.007324;0.991699;-0.7;-0.42;0.7;244.0;-0.284821;-0.057808
0.86;5.0;4.75;2.75;4.0;0.75;1.25;0.25;0.5;0.0;0.5;0.5;0.5;0.25;0.25;0.0;0.25;-0.200195;0.030273;0.982422;-1.05;2.52;1.26;205.0;-0.255774;-0.075237;5.75;6.5;4.0;5.0;1.0;0.75;0.25;0.25;0.0;0.25;0.0;0.75;0.0;0.25;0.0;0.0;-0.227539;-0.010742;0.986816;-0.77;-0.56;0.7;236.0;-0.293358;-0.06087
0.87;5.0;4.5;2.75;4.0;0.75;1.5;0.25;0.5;0.0;0.25;0.5;0.5;0.0;0.0;0.0;0.0;-0.197266;0.034668;0.98291;-1.12;2.52;1.19;198.0;-0.273456;-0.075524;5.5;6.75;4.5;4.75;1.0;0.5;0.0;0.25;0.0;0.5;0.0;0.5;0.0;0.0;0.0;0.0;-0.231445;-0.013184;0.981934;-0.7;-0.42;0.84;231.0;-0.305704;-0.05904
0.88;5.25;4.5;2.5;4.0;0.75;1.5;0.0;0.5;0.0;0.5;0.75;0.5;0.25;0.0;0.0;0.0;-0.197754;0.034668;0.989258;-1.12;2.52;1.19;201.0;-0.264818;-0.083609;6.0;6.5;4.5;4.75;1.25;0.75;0.0;0.5;0.0;0.5;0.25;0.25;0.0;0.0;0.0;0.0;-0.230957;-0.002441;0.992188;-0.77;-0.42;0.84;242.0;-0.298853;-0.058756
0.89;5.0;4.5;2.75;3.75;0.5;1.75;0.0;0.5;0.0;0.5;1.0;0.5;0.5;0.5;0.0;0.25;-0.193848;0.040527;0.984863;-1.12;2.52;1.19;209.0;-0.237109;-0.08645;5.5;6.75;4.5;4.75;0.75;0.25;0.0;0.5;0.0;0.5;0.0;0.5;0.0;0.0;0.0;0.0;-0.229004;-0.010254;0.986816;-0.7;-0.42;0.7;229.0;-0.304896;-0.063088
0.9;5.0;4.5;3.25;3.75;0.5;2.0;0.0;0.5;0.0;0.5;0.5;0.5;0.5;0.5;0.0;0.25;-0.19873;0.039062;0.993164;-1.05;2.66;1.12;211.0;-0.247282;-0.083733;5.5;6.25;4.25;4.75;0.75;0.25;0.0;0.25;0.0;0.25;0.0;0.5;0.0;0.0;0.0;0.0;-0.229004;-0.003906;0.988281;-0.7;-0.42;0.63;216.0;-0.313879;-0.058996
0.91;5.25;4.5;2.5;4.0;0.75;1.75;0.0;0.5;0.0;0.5;0.5;0.5;0.25;0.5;0.0;0.0;-0.20459;0.034668;0.985352;-1.05;2.45;1.12;205.0;-0.256296;-0.080558;5.75;6.5;4.25;5.0;0.75;0.5;0.0;0.25;0.0;0.25;0.25;0.75;0.0;0.25;0.0;0.0;-0.231934;-0.006836;0.987305;-0.7;-0.35;0.7;233.0;-0.296629;-0.063387
0.92;4.75;4.5;2.25;4.0;0.75;1.5;0.0;0.5;0.25;0.5;0.5;0.5;0.0;0.5;0.0;0.0;-0.200195;0.033691;0.987305;-1.05;2.45;1.19;197.0;-0.250466;-0.075623;6.0;6.75;4.25;5.0;0.75;0.25;0.0;0.25;0.0;0.5;0.5;0.75;0.0;0.25;0.0;0.0;-0.23584;-0.001465;0.989746;-0.63;-0.42;0.91;239.0;-0.28968;-0.059671
0.93;5.0;4.5;2.0;4.25;1.0;1.5;0.0;0.5;0.0;0.5;0.5;0.25;0.25;0.5;0.0;0.0;-0.196777;0.035645;0.987305;-1.26;2.59;1.33;198.0;-0.260016;-0.082194;5.5;6.5;3.25;4.75;0.75;0.0;0.0;0.5;0.0;0.5;0.25;0.5;0.0;0.0;0.0;0.0;-0.232422;-0.009277;0.98291;-0.77;-0.42;0.84;214.0;-0.301987;-0.069312
0.94;5.25;4.5;2.0;4.25;1.0;1.25;0.0;0.5;0.0;1.0;0.5;0.25;0.5;0.5;0.0;0.0;-0.196289;0.031738;0.991699;-1.19;2.45;1.12;205.0;-0.247168;-0.077968;5.5;6.25;3.25;4.5;0.75;0.5;0.0;0.25;0.0;0.5;0.0;0.5;0.0;0.0;0.0;0.0;-0.229004;-0.007812;0.984375;-0.7;-0.35;0.7;209.0;-0.308318;-0.06541
0.95;5.25;4.0;2.0;4.0;0.5;1.25;0.0;0.5;0.0;0.5;0.5;0.5;0.5;0.5;0.0;0.25;-0.203125;0.03418;0.98291;-1.12;2.45;1.26;192.0;-0.248506;-0.085547;5.75;6.5;3.75;5.0;0.75;0.25;0.0;0.25;0.0;0.5;0.25;0.5;0.0;0.0;0.0;0.0;-0.229004;-0.006836;0.984375;-0.7;-0.42;0.7;223.0;-0.304909;-0.062785
0.96;5.25;4.5;2.25;4.0;0.5;1.5;0.0;0.5;0.0;0.5;0.5;0.75;0.25;0.0;0.0;0.0;-0.20166;0.038086;0.985352;-1.12;2.52;1.19;196.0;-0.266751;-0.089921;6.0;7.25;4.25;4.75;0.75;0.5;0.0;0.5;0.25;0.25;0.25;0.5;0.0;0.0;0.0;0.0;-0.228516;-0.006348;0.984375;-0.7;-0.49;0.63;241.0;-0.300762;-0.062877
0.97;5.0;4.75;2.75;4.0;0.5;1.5;0.0;0.5;0.25;0.0;0.25;0.25;0.0;0.25;0.0;0.0;-0.199707;0.034668;0.98584;-1.33;2.52;1.26;192.0;-0.286799;-0.074513;5.75;7.0;4.25;4.5;0.75;0.5;0.0;0.5;0.0;0.25;0.0;0.5;0.0;0.25;0.0;0.0;-0.231445;-0.004883;0.983887;-0.49;-0.35;0.7;231.0;-0.305455;-0.063725
0.98;5.0;4.5;2.25;3.5;0.25;1.25;0.0;0.5;0.25;0.0;0.25;0.25;0.25;0.25;0.0;0.25;-0.20459;0.039062;0.987305;-1.33;2.52;1.26;178.0;-0.280367;-0.079042;5.5;6.25;4.0;4.5;0.75;0.75;0.0;0.5;0.0;0.25;0.0;0.5;0.0;0.0;0.0;0.0;-0.23291;-0.011719;0.987793;-0.7;-0.35;0.63;220.0;-0.306314;-0.06893
0.99;4.75;4.5;2.0;3.75;0.5;1.25;0.0;0.5;0.0;0.25;0.5;0.25;0.25;0.25;0.0;0.0;-0.200195;0.036621;0.985352;-1.26;2.66;1.26;179.0;-0.27663;-0.086878;5.5;6.25;4.0;4.5;0.75;0.5;0.25;0.5;0.25;0.0;0.0;0.75;0.0;0.0;0.0;0.25;-0.234375;-0.007324;0.981934;-0.56;-0.42;0.77;225.0;-0.291096;-0.062478
1.0;5.0;4.75;2.75;4.0;0.5;1.25;0.0;0.5;0.0;0.25;0.5;0.25;0.25;0.0;0.0;0.0;-0.202637;0.037598;0.981934;-1.12;2.45;1.33;191.0;-0.28646;-0.082789;6.0;6.25;4.0;4.5;1.0;0.5;0.0;0.5;0.0;0.25;0.25;0.5;0.0;0.0;0.0;0.25;-0.229492;-0.007324;0.980957;-0.7;-0.49;0.84;228.0;-0.298782;-0.063416
1.01;4.75;4.5;2.75;3.75;0.5;1.5;0.0;0.5;0.0;0.0;0.5;0.25;0.25;0.0;0.0;0.0;-0.205078;0.037598;0.989258;-1.19;2.45;1.19;185.0;-0.28844;-0.086816;6.0;6.25;4.0;5.0;1.25;0.5;0.0;0.5;0.0;0.5;0.25;0.25;0.0;0.0;0.0;0.0;-0.226074;-0.003906;0.990234;-0.56;-0.49;0.7;234.0;-0.299958;-0.060521
1.02;5.25;4.5;3.0;3.25;0.75;1.25;0.0;0.5;0.0;0.5;0.5;0.0;0.25;0.25;0.0;0.25;-0.203125;0.033203;0.98877;-1.26;2.66;1.19;192.0;-0.272463;-0.064175;5.75;6.25;4.25;5.0;1.0;0.5;0.0;0.5;0.0;0.5;0.5;0.0;0.0;0.0;0.0;0.0;-0.226074;-0.009277;0.986816;-0.63;-0.49;0.77;232.0;-0.300285;-0.060045
1.03;4.75;4.75;2.75;4.0;0.5;1.25;0.0;0.5;0.0;0.5;0.5;0.25;0.5;0.25;0.0;0.0;-0.200195;0.036621;0.979004;-1.19;2.59;1.19;195.0;-0.266999;-0.084589;5.75;6.25;4.25;5.0;0.75;0.5;0.0;0.5;0.0;0.75;0.5;0.25;0.0;0.0;0.0;0.0;-0.227539;-0.008301;0.981934;-0.7;-0.35;0.84;234.0;-0.291425;-0.062514
1.04;4.75;4.5;2.75;4.0;0.5;1.25;0.0;0.5;0.0;0.5;0.75;0.5;0.25;0.25;0.0;0.0;-0.200195;0.038086;0.983398;-1.26;2.38;1.26;196.0;-0.257955;-0.082858;5.75;6.5;3.75;5.0;1.0;0.5;0.0;0.5;0.0;0.5;0.5;0.25;0.0;0.0;0.0;0.0;-0.218262;-0.007324;0.987793;-0.63;-0.42;0.77;232.0;-0.296799;-0.066759
1.05;5.0;4.5;2.25;4.25;0.5;1.5;0.0;0.5;0.0;0.5;1.0;0.75;0.0;0.25;0.0;0.0;-0.197266;0.04248;0.987793;-1.19;2.59;1.19;201.0;-0.251413;-0.08828;6.0;6.5;4.75;5.5;1.5;1.0;0.0;0.5;0.0;0.5;0.5;0.25;0.0;0.0;0.0;0.0;-0.232422;-0.006836;0.984863;-0.77;-0.49;0.77;259.0;-0.290258;-0.063542
1.06;5.0;4.5;2.5;4.0;0.5;1.5;0.0;0.5;0.0;0.5;1.25;0.75;0.0;0.0;0.0;0.0;-0.202148;0.030762;0.97998;-1.19;2.52;1.26;202.0;-0.251903;-0.087236;5.75;6.25;4.5;4.75;1.0;0.5;0.0;0.5;0.5;0.5;0.5;0.25;0.0;0.25;0.0;0.0;-0.225098;-0.005371;0.984375;-0.63;-0.49;0.7;242.0;-0.275497;-0.048945
1.07;4.5;4.75;2.25;4.0;0.5;1.5;0.0;0.5;0.0;0.5;0.5;0.5;0.5;0.0;0.0;0.25;-0.201172;0.041504;0.987793;-1.19;2.52;1.19;192.0;-0.26072;-0.100828;5.75;6.25;4.25;4.5;0.75;0.5;0.0;0.5;0.0;0.5;0.5;0.5;0.0;0.0;0.0;0.0;-0.231934;-0.010742;0.985352;-0.7;-0.42;0.7;229.0;-0.291755;-0.062726
1.08;4.75;4.75;2.25;4.0;0.5;1.75;0.0;0.5;0.0;0.5;0.25;0.25;0.25;0.5;0.0;0.25;-0.200684;0.038086;0.988281;-1.05;2.59;1.26;194.0;-0.263786;-0.088563;6.0;6.0;4.0;5.0;0.75;0.75;0.0;0.5;0.0;0.5;0.5;0.5;0.0;0.0;0.0;0.0;-0.226562;-0.007324;0.988281;-0.7;-0.42;0.77;235.0;-0.290478;-0.067417
1.09;4.75;4.5;2.25;4.0;0.25;1.25;0.0;0.5;0.25;0.75;0.5;0.25;0.0;0.25;0.0;0.0;-0.201172;0.039062;0.981934;-1.26;2.45;1.19;187.0;-0.261738;-0.074709;5.5;6.25;4.0;5.0;0.75;0.75;0.0;0.25;0.0;0.75;0.25;0.5;0.0;0.0;0.0;0.0;-0.227051;-0.009277;0.97998;-0.7;-0.56;0.77;228.0;-0.293417;-0.065169
1.1;5.25;4.5;2.25;4.0;0.25;1.25;0.0;0.5;0.25;0.75;0.25;0.5;0.0;0.0;0.0;0.0;-0.197754;0.039062;0.984863;-1.26;2.38;1.26;190.0;-0.272363;-0.075015;5.5;6.5;4.0;4.75;1.0;0.75;0.0;0.25;0.0;0.5;0.25;0.25;0.0;0.0;0.0;0.0;-0.226074;-0.009277;0.983887;-0.7;-0.35;0.7;226.0;-0.303758;-0.061825
1.11;5.75;4.5;2.75;4.0;0.5;1.5;0.25;0.5;0.0;0.5;0.5;0.5;0.25;0.0;0.0;0.25;-0.20166;0.040527;0.984375;-1.19;2.45;1.26;209.0;-0.26577;-0.074421;5.5;6.5;3.75;4.5;1.0;0.25;0.0;0.25;0.0;0.25;0.0;0.25;0.0;0.0;0.0;0.0;-0.231934;-0.003906;0.98291;-0.7;-0.42;0.7;211.0;-0.320131;-0.057541
1.12;5.25;4.5;2.5;4.0;0.5;1.5;0.25;0.5;0.0;0.25;0.75;0.5;0.25;0.0;0.0;0.25;-0.19873;0.035156;0.990723;-1.19;2.38;1.19;201.0;-0.262671;-0.082937;5.75;6.5;4.0;4.5;0.75;0.25;0.0;0.25;0.0;0.25;0.25;0.25;0.0;0.0;0.0;0.0;-0.229492;-0.005371;0.983398;-0.7;-0.42;0.7;216.0;-0.316606;-0.05601
1.13;5.25;4.75;2.5;4.0;0.5;1.5;0.0;0.5;0.0;0.25;0.5;0.25;0.25;0.0;0.0;0.25;-0.196289;0.032715;0.986816;-1.19;2.38;1.19;195.0;-0.282298;-0.086617;5.5;6.5;4.25;4.5;0.75;0.5;0.0;0.25;0.0;0.25;0.25;0.5;0.0;0.0;0.0;0.0;-0.22998;-0.004883;0.989746;-0.7;-0.56;0.77;221.0;-0.307487;-0.061159
1.14;5.75;4.5;2.5;4.0;0.5;1.5;0.0;0.5;0.0;0.5;0.5;0.0;0.5;0.0;0.0;0.25;-0.198242;0.036621;0.980469;-1.19;2.38;1.33;200.0;-0.278955;-0.080571;5.75;6.25;4.25;4.75;0.75;0.75;0.0;0.5;0.0;0.5;0.0;0.5;0.0;0.25;0.0;0.0;-0.227539;-0.008789;0.98584;-0.7;-0.35;0.77;232.0;-0.294976;-0.063614
1.15;5.25;4.75;2.75;4.0;0.5;1.5;0.0;0.5;0.0;0.5;0.75;0.0;0.5;0.0;0.0;0.0;-0.201172;0.030273;0.98877;-1.33;2.52;1.26;201.0;-0.275251;-0.082748;5.75;6.25;4.0;5.0;0.75;1.0;0.0;0.5;0.0;0.25;0.25;0.25;0.0;0.25;0.0;0.0;-0.224609;-0.004395;0.983398;-0.63;-0.35;0.63;232.0;-0.299057;-0.068726
1.16;4.25;4.5;2.75;3.75;0.5;1.5;0.0;0.75;0.0;0.5;0.5;0.25;0.5;0.25;0.0;0.25;-0.205078;0.035156;0.986328;-1.19;2.59;1.26;193.0;-0.251652;-0.096044;6.0;6.5;4.0;4.5;0.75;0.5;0.0;0.5;0.0;0.25;0.25;0.5;0.0;0.0;0.0;0.0;-0.231934;-0.005371;0.98584;-0.7;-0.49;0.7;227.0;-0.305436;-0.064374
1.17;4.75;4.25;2.0;3.75;0.5;1.25;0.25;0.5;0.0;0.5;0.0;0.75;0.0;0.25;0.0;0.25;-0.201172;0.029297;0.98877;-1.19;2.52;1.26;182.0;-0.262257;-0.079894;5.5;6.5;5.25;4.5;0.75;0.25;0.0;0.5;0.0;0.5;0.5;0.25;0.0;0.0;0.0;0.0;-0.231934;-0.008789;0.991211;-0.77;-0.49;0.77;234.0;-0.297243;-0.054139
1.18;5.25;4.25;2.5;4.0;0.5;1.25;0.25;0.5;0.0;0.75;0.25;0.5;0.0;0.0;0.0;0.25;-0.197266;0.033203;0.984375;-1.26;2.52;1.19;195.0;-0.266567;-0.071329;5.25;6.25;4.5;4.5;0.75;0.25;0.0;0.25;0.0;0.25;0.5;0.25;0.0;0.0;0.0;0.0;-0.232422;-0.006348;0.980957;-0.63;-0.35;0.7;216.0;-0.306529;-0.055781
1.19;4.75;4.5;2.5;4.0;0.5;1.5;0.0;0.5;0.0;0.5;0.0;0.5;0.25;0.0;0.0;0.5;-0.197754;0.038574;0.983887;-1.26;2.45;1.26;189.0;-0.273562;-0.092144;5.5;6.25;4.5;4.5;0.75;0.25;0.0;0.5;0.0;0.25;0.5;0.5;0.0;0.0;0.0;0.0;-0.227051;-0.011719;0.985352;-0.7;-0.49;0.63;225.0;-0.297458;-0.06182
1.2;5.0;4.75;2.25;4.0;0.5;1.25;0.0;0.25;0.25;0.5;0.25;0.25;0.25;0.0;0.0;0.25;-0.203613;0.032715;0.989258;-1.33;2.52;1.19;187.0;-0.278983;-0.075283;5.5;6.25;3.75;4.5;0.75;0.25;0.0;0.5;0.0;0.25;0.5;0.0;0.0;0.0;0.0;0.0;-0.232422;-0.005371;0.979004;-0.77;-0.42;0.77;212.0;-0.310139;-0.061955
1.21;5.0;4.75;2.5;4.25;0.5;1.25;0.0;0.5;0.0;0.5;0.5;0.25;0.5;0.25;0.0;0.25;-0.199219;0.032715;0.98291;-1.19;2.38;1.19;199.0;-0.264961;-0.087723;5.5;6.25;3.75;4.75;0.75;0.5;0.0;0.5;0.0;0.25;0.25;0.0;0.0;0.0;0.0;0.0;-0.234863;-0.001465;0.981445;-0.7;-0.35;0.7;215.0;-0.314021;-0.065699
1.22;5.25;4.5;2.75;4.0;0.5;1.75;0.0;0.5;0.0;0.5;0.5;0.5;0.5;0.25;0.0;0.0;-0.197266;0.035156;0.984863;-1.19;2.52;1.26;205.0;-0.260235;-0.086334;5.75;6.25;4.25;4.75;0.75;0.5;0.0;0.5;0.5;0.5;0.0;0.25;0.0;0.25;0.0;0.25;-0.228027;-0.005371;0.97998;-0.77;-0.42;0.7;234.0;-0.284087;-0.05168
1.23;4.75;4.5;2.0;4.0;0.5;1.5;0.0;0.25;0.0;0.5;0.5;0.25;0.25;0.25;0.0;0.25;-0.198242;0.038574;0.982422;-1.12;2.38;1.19;184.0;-0.26908;-0.085101;5.5;6.25;3.0;4.75;0.5;0.75;0.0;0.5;0.0;0.25;0.0;0.0;0.0;0.25;0.0;0.0;-0.23291;-0.008789;0.981934;-0.7;-0.49;0.84;207.0;-0.315557;-0.072598
1.24;4.75;4.5;2.5;3.75;0.5;1.25;0.0;0.25;0.0;0.5;0.5;0.25;0.0;0.0;0.0;0.5;-0.196777;0.030762;0.986816;-1.26;2.66;1.19;181.0;-0.278148;-0.075944;6.0;6.5;3.5;4.75;0.5;0.75;0.0;0.0;0.0;0.25;0.0;0.0;0.0;0.25;0.0;0.0;-0.224121;-0.008789;0.983887;-0.7;-0.42;0.7;212.0;-0.327276;-0.055082
1.25;5.0;4.5;2.0;3.75;0.75;1.5;0.0;0.25;0.25;0.75;0.75;0.25;0.5;0.0;0.0;0.25;-0.200195;0.036621;0.988281;-1.19;2.45;1.26;194.0;-0.250523;-0.07856;5.75;6.25;4.0;4.5;0.75;1.0;0.0;0.0;0.25;0.5;0.0;0.25;0.0;0.25;0.0;0.0;-0.228516;-0.005859;0.982422;-0.7;-0.49;0.77;223.0;-0.300685;-0.04858
1.26;5.25;4.5;2.25;4.0;0.75;1.5;0.0;0.5;0.0;0.75;0.5;0.25;0.5;0.0;0.0;0.0;-0.20166;0.035156;0.984375;-1.26;2.31;1.19;198.0;-0.266076;-0.084898;6.0;6.25;4.25;4.5;0.75;0.5;0.0;0.25;0.0;0.25;0.25;0.25;0.0;0.25;0.0;0.0;-0.229492;-0.003418;0.986816;-0.77;-0.49;0.7;223.0;-0.307782;-0.051932
1.27;5.25;4.5;2.25;4.0;0.5;1.25;0.25;0.5;0.0;0.75;0.5;0.5;0.5;0.25;0.0;0.25;-0.20166;0.037598;0.983398;-1.19;2.45;1.26;203.0;-0.247186;-0.080153;6.0;6.25;4.0;4.5;0.75;0.5;0.0;0.25;0.0;0.25;0.0;0.5;0.0;0.0;0.0;0.0;-0.233398;-0.001465;0.987793;-0.7;-0.42;0.77;219.0;-0.314845;-0.057623
1.28;5.0;4.5;2.5;4.0;0.5;1.5;0.0;0.5;0.0;0.75;0.5;0.5;0.5;0.25;0.0;0.25;-0.20459;0.036133;0.987305;-1.19;2.31;1.12;202.0;-0.250073;-0.088181;5.5;6.25;4.0;4.5;0.75;0.5;0.0;0.25;0.0;0.5;0.0;0.5;0.0;0.0;0.0;0.0;-0.227539;-0.007324;0.987793;-0.84;-0.49;0.84;216.0;-0.306799;-0.059931
1.29;5.25;4.5;2.75;4.0;0.75;0.75;0.25;0.25;0.0;0.75;0.75;0.25;0.5;0.25;0.0;0.0;-0.200684;0.035156;0.985352;-1.4;2.45;1.19;200.0;-0.256188;-0.060249;5.5;6.25;4.0;4.5;0.75;0.75;0.0;0.25;0.0;0.25;0.25;0.5;0.0;0.25;0.0;0.0;-0.229492;-0.00293;0.983887;-0.77;-0.49;0.7;221.0;-0.298811;-0.062171
1.3;5.25;4.25;2.75;4.0;0.5;0.75;0.0;0.25;0.25;0.5;0.5;0.25;0.5;0.25;0.0;0.25;-0.20166;0.03418;0.989258;-1.19;2.24;1.26;192.0;-0.262418;-0.063457;5.5;6.25;4.0;4.5;0.75;0.5;0.0;0.25;0.0;0.25;0.5;0.5;0.0;0.25;0.0;0.0;-0.229004;-0.007812;0.981934;-0.63;-0.49;0.63;221.0;-0.29477;-0.060378
1.31;5.25;4.5;2.25;4.0;0.5;1.25;0.0;0.25;0.0;0.5;0.5;0.5;0.5;0.25;0.0;0.25;-0.197266;0.039062;0.988281;-1.19;2.38;1.26;193.0;-0.263326;-0.082141;5.5;6.0;4.25;4.5;0.75;0.5;0.0;0.5;0.0;0.5;0.0;0.25;0.0;0.0;0.0;0.0;-0.226562;0.001953;0.984863;-0.84;-0.42;0.7;218.0;-0.306272;-0.059841
1.32;5.0;4.5;2.0;4.0;0.5;1.25;0.0;0.5;0.25;0.5;0.5;0.5;0.5;0.25;0.0;0.0;-0.194336;0.038086;0.981934;-1.19;2.38;1.26;193.0;-0.253063;-0.085297;6.0;6.0;4.25;4.5;0.75;0.5;0.0;0.5;0.25;0.25;0.0;0.5;0.0;0.0;0.0;0.0;-0.231445;-0.007324;0.98584;-0.77;-0.49;0.7;225.0;-0.301091;-0.055693
1.33;5.0;4.5;2.0;4.0;0.75;0.5;0.0;0.5;0.0;0.5;1.0;0.5;0.5;0.0;0.0;0.0;-0.196777;0.03418;0.986816;-1.26;2.38;1.26;188.0;-0.258174;-0.085127;5.75;6.25;4.25;4.5;0.75;0.75;0.0;0.25;0.25;0.25;0.25;0.5;0.0;0.0;0.0;0.0;-0.228516;-0.004883;0.984863;-0.7;-0.56;0.84;227.0;-0.298324;-0.056302
1.34;5.0;4.5;2.25;4.0;0.75;0.5;0.0;0.5;0.0;0.5;0.5;0.5;0.5;0.0;0.0;0.0;-0.204102;0.043457;0.98584;-1.12;2.38;1.19;186.0;-0.270727;-0.081943;5.5;6.25;4.25;4.5;0.75;0.75;0.0;0.25;0.0;0.5;0.0;0.5;0.0;0.25;0.0;0.0;-0.231445;-0.007812;0.982422;-0.77;-0.49;0.7;223.0;-0.298312;-0.05852
1.35;4.75;4.5;2.0;4.0;0.75;1.0;0.0;0.5;0.0;0.5;0.5;0.25;0.25;0.25;0.0;0.25;-0.195801;0.037598;0.984375;-1.19;2.52;1.19;185.0;-0.265446;-0.083827;5.5;6.25;4.5;4.5;0.75;0.5;0.0;0.25;0.0;0.5;0.0;0.25;0.0;0.0;0.0;0.0;-0.235352;-0.006836;0.985352;-0.7;-0.35;0.63;219.0;-0.311525;-0.053853
1.36;5.25;4.5;2.75;3.75;0.75;1.25;0.0;0.5;0.0;0.5;0.25;0.0;0.0;0.25;0.0;0.0;-0.198242;0.029785;0.988281;-1.12;2.38;1.19;189.0;-0.288094;-0.064017;5.5;6.25;3.5;4.5;0.75;0.5;0.0;0.25;0.0;0.25;0.0;0.25;0.0;0.0;0.0;0.0;-0.22998;-0.007324;0.983887;-0.77;-0.49;0.77;206.0;-0.320169;-0.062294
1.37;5.0;4.75;3.0;4.0;0.75;1.25;0.0;0.5;0.0;0.5;0.25;0.25;0.25;0.0;0.0;0.0;-0.198242;0.035645;0.984863;-1.12;2.45;1.19;197.0;-0.283993;-0.076534;5.75;6.0;3.25;4.5;0.75;0.75;0.0;0.5;0.0;0.0;0.0;0.25;0.0;0.25;0.0;0.0;-0.231445;-0.00293;0.990234;-0.7;-0.35;0.77;210.0;-0.313242;-0.068326
1.38;5.25;4.0;2.75;4.0;0.75;1.25;0.25;0.5;0.0;0.75;0.25;0.25;0.25;0.0;0.0;0.0;-0.202637;0.039551;0.98291;-1.26;2.38;1.26;196.0;-0.268552;-0.066184;5.5;6.25;3.75;4.5;0.75;0.75;0.0;0.5;0.0;0.5;0.5;0.25;0.0;0.0;0.0;0.0;-0.229492;-0.012695;0.98584;-0.7;-0.28;0.7;222.0;-0.295054;-0.067875
1.39;5.25;4.5;2.25;4.0;1.0;1.25;0.0;0.5;0.0;0.75;0.25;0.5;0.25;0.25;0.0;0.25;-0.199219;0.035645;0.983398;-1.26;2.38;1.26;200.0;-0.259671;-0.077989;5.75;6.25;4.5;4.5;0.75;0.75;0.0;0.5;0.25;0.5;0.25;0.25;0.0;0.0;0.0;0.0;-0.230469;-0.009766;0.98291;-0.77;-0.42;0.77;233.0;-0.293448;-0.056006
1.4;5.25;4.75;2.5;4.0;1.0;1.5;0.0;0.5;0.25;0.75;0.5;0.25;0.5;0.25;0.0;0.25;-0.202148;0.039062;0.980957;-1.19;2.45;1.19;212.0;-0.248559;-0.075721;6.0;6.25;4.0;4.5;0.75;1.0;0.0;0.25;0.0;0.5;0.0;0.5;0.0;0.0;0.0;0.0;-0.229492;-0.011719;0.984863;-0.63;-0.42;0.77;226.0;-0.305419;-0.061084
1.41;5.25;4.75;2.75;3.75;0.5;1.5;0.0;0.5;0.0;0.75;0.5;0.5;0.25;0.25;0.0;0.0;-0.199219;0.037598;0.985352;-1.12;2.38;1.26;203.0;-0.261197;-0.077715;5.75;6.25;4.0;4.5;0.75;1.0;0.0;0.5;0.0;0.25;0.25;0.5;0.0;0.0;0.0;0.0;-0.22998;-0.004883;0.989258;-0.77;-0.56;0.84;227.0;-0.300026;-0.069806
1.42;5.25;4.5;2.5;4.0;0.75;1.25;0.0;0.5;0.0;0.75;0.25;0.25;0.25;0.0;0.0;0.0;-0.202637;0.03418;0.981445;-0.98;2.45;1.26;194.0;-0.278071;-0.075943;5.5;6.0;3.75;4.5;0.75;0.75;0.0;0.5;0.25;0.25;0.5;0.25;0.0;0.25;0.0;0.0;-0.226074;-0.011719;0.983398;-0.63;-0.49;0.63;222.0;-0.285999;-0.061595
1.43;4.75;4.5;2.5;4.0;0.75;1.5;0.0;0.5;0.0;1.25;0.0;0.25;0.25;0.0;0.0;0.0;-0.19873;0.035645;0.986328;-1.05;2.38;1.33;194.0;-0.266916;-0.079053;5.5;5.75;3.75;4.5;0.75;0.75;0.0;0.5;0.25;0.25;0.25;0.0;0.0;0.0;0.0;0.0;-0.226074;-0.005859;0.985352;-0.7;-0.28;0.7;214.0;-0.302431;-0.059499
1.44;4.75;4.5;2.75;4.0;0.5;1.5;0.0;0.5;0.25;0.5;0.5;0.5;0.25;0.0;0.0;0.0;-0.202637;0.037109;0.995117;-1.19;2.45;1.26;197.0;-0.261326;-0.082013;5.5;5.75;3.75;4.5;0.75;0.75;0.0;0.5;0.0;0.5;0.0;0.5;0.0;0.0;0.0;0.0;-0.228516;-0.00293;0.984863;-0.63;-0.42;0.7;215.0;-0.298606;-0.067439
1.45;5.0;4.5;2.25;4.0;0.75;1.5;0.0;0.25;0.5;0.5;0.75;0.25;0.0;0.0;0.0;0.0;-0.202637;0.032227;0.981934;-1.05;2.45;1.33;195.0;-0.26193;-0.065197;5.5;6.0;3.75;4.5;0.75;1.0;0.0;0.5;0.0;0.5;0.0;0.5;0.0;0.0;0.25;0.0;-0.226074;-0.000977;0.986328;-0.7;-0.42;0.77;222.0;-0.290424;-0.07083
1.46;5.25;4.5;2.0;4.0;0.75;1.75;0.0;0.5;0.25;0.5;0.5;0.5;0.25;0.0;0.0;0.25;-0.197266;0.036133;0.987793;-1.12;2.45;1.33;201.0;-0.257593;-0.086062;5.75;6.0;4.0;4.5;0.75;0.75;0.0;0.5;0.0;0.5;0.25;0.0;0.0;0.0;0.0;0.0;-0.232422;-0.001953;0.98584;-0.7;-0.42;0.63;220.0;-0.305915;-0.060189
1.47;5.25;4.75;2.0;4.0;0.75;1.25;0.0;0.5;0.0;0.5;0.25;0.75;0.25;0.0;0.0;0.25;-0.197266;0.033691;0.98877;-1.05;2.45;1.33;195.0;-0.270059;-0.089921;5.5;5.75;4.0;4.5;0.75;0.5;0.0;0.5;0.0;0.5;0.5;0.25;0.0;0.25;0.0;0.25;-0.22998;-0.00293;0.988281;-0.7;-0.49;0.7;221.0;-0.284049;-0.061101
1.48;5.0;4.75;2.25;4.0;0.75;1.25;0.0;0.5;0.0;0.5;0.5;0.5;0.5;0.25;0.0;0.0;-0.198242;0.038086;0.978516;-1.19;2.38;1.26;198.0;-0.261056;-0.087486;5.75;6.0;4.5;4.5;0.75;0.5;0.0;0.5;0.0;0.5;0.25;0.25;0.0;0.25;0.0;0.0;-0.229004;-0.005859;0.982422;-0.63;-0.49;0.77;227.0;-0.295031;-0.054953
1.49;5.5;4.5;2.75;4.0;0.75;1.25;0.0;0.5;0.25;0.5;0.5;0.5;0.5;0.5;0.0;0.0;-0.19873;0.03418;0.984375;-1.12;2.52;1.19;210.0;-0.249193;-0.070378;5.5;5.75;4.25;4.5;0.75;0.75;0.0;0.5;0.0;0.25;0.25;0.25;0.0;0.25;0.0;0.0;-0.22998;-0.006348;0.978516;-0.63;-0.35;0.77;220.0;-0.297217;-0.061073
1.5;5.75;4.5;2.75;4.25;1.0;1.25;0.0;0.5;0.0;0.5;0.75;0.75;0.0;0.25;0.0;0.0;-0.200684;0.037598;0.989746;-1.19;2.38;1.26;214.0;-0.26034;-0.071504;5.5;5.75;2.5;4.5;0.75;0.5;0.0;0.25;0.0;0.5;0.25;0.5;0.0;0.0;0.0;0.0;-0.230469;-0.005859;0.985352;-0.7;-0.49;0.77;199.0;-0.301252;-0.069838
1.51;5.5;4.5;2.5;4.0;0.75;1.25;0.0;0.5;0.0;0.5;0.5;0.5;0.25;0.0;0.0;0.0;-0.203125;0.035645;0.98584;-1.19;2.45;1.26;199.0;-0.273782;-0.078562;5.0;5.75;3.0;4.5;0.75;0.5;0.0;0.5;0.0;0.5;0.25;0.0;0.0;0.0;0.0;0.0;-0.225586;-0.004395;0.983398;-0.63;-0.42;0.77;198.0;-0.30526;-0.070157
1.52;5.25;4.5;2.75;4.0;0.75;0.75;0.0;0.75;0.0;0.5;0.25;0.0;0.5;0.0;0.0;0.25;-0.196289;0.038086;0.989746;-1.12;2.45;1.12;194.0;-0.280083;-0.07886;5.5;6.0;3.25;4.25;0.75;0.5;0.0;0.5;0.0;0.5;0.0;0.0;0.0;0.25;0.0;0.0;-0.231934;-0.010742;0.98584;-0.77;-0.42;0.77;205.0;-0.307763;-0.060212
1.53;5.0;4.5;2.5;4.0;0.75;1.0;0.0;0.5;0.0;0.5;0.5;0.25;0.5;0.25;0.0;0.25;-0.20166;0.035645;0.990234;-1.12;2.45;1.26;194.0;-0.262666;-0.08081;5.25;5.75;3.25;4.25;0.5;0.75;0.0;0.5;0.0;0.25;0.0;0.25;0.0;0.25;0.0;0.0;-0.231445;-0.01123;0.986816;-0.7;-0.49;0.84;200.0;-0.30612;-0.069583
1.54;5.25;4.5;2.5;4.25;0.5;1.25;0.0;0.5;0.0;1.0;0.5;0.25;0.5;0.0;0.0;0.25;-0.205078;0.032227;0.987305;-1.19;2.31;1.33;202.0;-0.259652;-0.083599;5.25;5.75;3.25;4.25;0.5;1.0;0.0;0.5;0.0;0.25;0.25;0.5;0.0;0.25;0.0;0.0;-0.226074;-0.002441;0.981934;-0.7;-0.49;0.7;207.0;-0.292134;-0.075186
1.55;4.75;4.75;2.25;3.75;0.5;1.25;0.0;0.5;0.25;0.5;0.25;0.5;0.5;0.0;0.0;0.25;-0.202148;0.038574;0.98291;-1.19;2.59;1.19;190.0;-0.261548;-0.088236;5.25;5.75;3.5;4.5;0.75;0.5;0.0;0.5;0.0;0.25;0.5;0.25;0.0;0.0;0.0;0.0;-0.23291;-0.009766;0.981934;-0.77;-0.49;0.7;208.0;-0.299554;-0.068881
1.56;5.25;4.5;2.75;3.5;0.5;1.5;0.0;0.5;0.25;0.5;0.25;0.75;0.5;0.0;0.0;0.5;-0.199707;0.037109;0.980469;-1.19;2.45;1.19;202.0;-0.252194;-0.082752;5.5;5.75;3.0;4.5;0.5;0.5;0.0;0.5;0.25;0.5;0.25;0.25;0.0;0.25;0.0;0.0;-0.23584;-0.005859;0.981934;-0.77;-0.35;0.91;208.0;-0.28885;-0.062991
1.57;5.5;4.5;2.75;4.0;0.75;1.5;0.0;0.5;0.25;0.0;0.25;0.75;0.5;0.0;0.0;0.25;-0.193359;0.032715;0.987305;-1.26;2.38;1.26;205.0;-0.26838;-0.084247;5.5;5.75;3.5;4.25;0.75;0.5;0.0;0.5;0.25;0.5;0.25;0.25;0.0;0.25;0.0;0.0;-0.226562;-0.01123;0.98291;-0.7;-0.42;0.77;213.0;-0.286374;-0.055962
1.58;5.5;4.5;2.75;4.0;0.75;1.5;0.0;0.5;0.25;0.25;0.5;0.25;0.5;0.25;0.0;0.0;-0.197266;0.039551;0.98291;-1.05;2.45;1.26;206.0;-0.265312;-0.074085;5.5;6.0;4.0;4.5;0.75;0.75;0.0;0.5;0.0;0.5;0.25;0.25;0.0;0.25;0.0;0.0;-0.231445;-0.003418;0.981445;-0.63;-0.35;0.7;222.0;-0.292955;-0.062459
1.59;5.0;4.75;2.75;4.0;0.5;1.5;0.0;0.5;0.25;0.0;0.25;0.25;0.5;0.25;0.0;0.0;-0.19873;0.039062;0.984863;-1.19;2.45;1.26;196.0;-0.277524;-0.082385;5.25;6.0;3.5;4.25;0.75;0.5;0.0;0.25;0.0;0.5;0.5;0.5;0.0;0.0;0.0;0.0;-0.230469;-0.004883;0.989746;-0.7;-0.42;0.77;209.0;-0.293631;-0.063722
1.6;5.25;4.75;2.75;4.25;0.5;1.5;0.0;0.5;0.0;0.25;0.5;0.5;0.5;0.25;0.0;0.25;-0.197754;0.037109;0.984375;-1.05;2.38;1.33;206.0;-0.265475;-0.089687;5.75;5.75;3.25;4.25;0.75;0.5;0.0;0.25;0.0;0.75;0.5;0.5;0.0;0.25;0.0;0.0;-0.226562;-0.005371;0.985352;-0.7;-0.28;0.77;213.0;-0.282773;-0.05708
1.61;5.0;4.5;2.5;4.0;0.25;1.5;0.0;0.5;0.0;0.5;0.75;0.75;0.5;0.25;0.0;0.25;-0.201172;0.034668;0.986816;-1.12;2.24;1.33;202.0;-0.246266;-0.094648;5.5;5.75;3.25;4.25;0.75;0.25;0.0;0.0;0.25;0.5;0.25;0.5;0.0;0.25;0.0;0.0;-0.229492;-0.008301;0.983398;-0.77;-0.42;0.77;203.0;-0.291768;-0.046488
1.62;5.25;4.25;2.75;4.0;0.25;1.5;0.0;0.5;0.0;0.5;0.75;0.25;0.5;0.0;0.0;0.25;-0.200684;0.033203;0.983887;-1.12;2.59;1.19;198.0;-0.26421;-0.086859;5.5;6.25;4.0;4.25;0.75;0.25;0.0;0.0;0.25;0.0;0.0;0.5;0.0;0.0;0.0;0.25;-0.228027;-0.005371;0.98584;-0.7;-0.35;0.77;207.0;-0.314231;-0.049354
1.63;5.0;4.5;2.75;4.0;0.5;1.75;0.0;0.5;0.25;0.5;0.5;0.0;0.5;0.0;0.0;0.5;-0.20166;0.036621;0.986328;-1.19;2.59;1.26;202.0;-0.260947;-0.083636;5.5;5.75;4.25;4.0;0.75;0.25;0.0;0.25;0.0;0.0;0.0;0.25;0.0;0.0;0.0;0.0;-0.23291;-0.006348;0.986816;-0.7;-0.49;0.84;200.0;-0.325618;-0.049099
1.64;5.0;4.5;2.5;4.0;0.5;1.5;0.0;0.5;0.25;0.75;0.5;0.5;0.5;0.0;0.0;0.25;-0.196289;0.038086;0.980469;-1.19;2.45;1.33;203.0;-0.248979;-0.08539;5.5;5.5;4.25;4.25;1.0;0.25;0.0;0.25;0.0;0.25;0.25;0.0;0.0;0.0;0.0;0.0;-0.22998;-0.009277;0.988281;-0.7;-0.42;0.77;205.0;-0.315063;-0.045265
1.65;4.75;4.5;2.5;4.0;0.5;1.25;0.0;0.5;0.0;0.25;0.25;0.5;0.5;0.0;0.0;0.0;-0.19873;0.037109;0.987305;-1.19;2.45;1.26;186.0;-0.279082;-0.093015;5.5;5.75;4.25;4.25;1.0;0.0;0.0;0.25;0.0;0.5;0.25;0.25;0.0;0.0;0.0;0.0;-0.230957;-0.00293;0.986328;-0.7;-0.42;0.77;210.0;-0.305673;-0.045422
1.66;4.75;4.5;2.5;4.0;0.5;1.5;0.0;0.5;0.25;0.25;0.0;0.5;0.5;0.25;0.0;0.25;-0.197754;0.034668;0.989746;-1.12;2.31;1.33;193.0;-0.264254;-0.088036;5.25;5.75;4.0;4.25;0.75;0.25;0.0;0.25;0.0;0.5;0.25;0.5;0.0;0.0;0.0;0.0;-0.227051;-0.009766;0.986328;-0.7;-0.49;0.77;207.0;-0.299392;-0.055792
1.67;5.25;4.5;2.5;4.0;0.75;1.5;0.0;0.5;0.0;0.5;0.25;0.75;0.5;0.5;0.0;0.5;-0.199707;0.039551;0.988281;-1.26;2.38;1.19;207.0;-0.246174;-0.086813;5.25;5.75;4.0;4.5;0.75;0.5;0.0;0.0;0.0;0.75;0.5;0.5;0.0;0.0;0.0;0.0;-0.230957;-0.008789;0.984375;-0.7;-0.49;0.77;213.0;-0.290302;-0.054176
1.68;5.25;4.5;2.75;4.0;0.75;1.75;0.25;0.5;0.0;0.75;0.5;1.0;0.5;0.25;0.0;0.25;-0.207031;0.038574;0.983398;-1.19;2.52;1.19;220.0;-0.234057;-0.083691;5.5;5.5;3.25;4.5;0.75;0.25;0.0;0.25;0.0;0.25;0.5;0.75;0.0;0.0;0.0;0.0;-0.227051;-0.001953;0.983887;-0.63;-0.35;0.77;205.0;-0.294642;-0.065179
1.69;5.0;4.5;2.5;4.0;0.5;1.5;0.0;0.5;0.0;0.5;0.5;0.25;0.25;0.0;0.0;0.0;-0.201172;0.032227;0.984375;-1.05;2.38;1.26;192.0;-0.277031;-0.084813;5.25;5.75;3.5;4.25;0.75;0.25;0.0;0.25;0.0;0.25;0.5;0.5;0.0;0.0;0.0;0.0;-0.233887;-0.005371;0.986328;-0.77;-0.42;0.91;202.0;-0.30038;-0.061581
1.7;5.5;4.75;2.5;3.75;0.5;1.25;0.0;0.5;0.0;0.5;0.75;0.5;0.5;0.25;0.0;0.25;-0.200684;0.041992;0.98291;-1.12;2.52;1.26;204.0;-0.256228;-0.082566;5.25;5.75;4.0;4.25;0.75;0.25;0.0;0.25;0.25;0.25;0.25;0.5;0.0;0.0;0.0;0.0;-0.227539;-0.002441;0.985352;-0.77;-0.35;0.84;208.0;-0.297564;-0.052405
1.71;5.25;4.75;2.75;4.0;0.75;2.0;0.25;0.5;0.25;0.75;1.0;0.5;0.5;0.25;0.0;0.0;-0.203125;0.038574;0.97998;-1.05;2.52;1.26;226.0;-0.231369;-0.076696;5.0;5.5;4.0;4.0;0.75;0.5;0.0;0.25;0.25;0.5;0.0;0.5;0.0;0.25;0.0;0.0;-0.234375;-0.007812;0.988281;-0.63;-0.35;0.7;205.0;-0.286593;-0.049384
1.72;5.25;4.75;2.75;4.0;0.75;1.5;0.25;0.25;0.0;0.75;0.5;0.5;0.5;0.0;0.0;0.0;-0.196777;0.032715;0.983887;-1.12;2.45;1.19;208.0;-0.260507;-0.073273;5.25;5.75;3.75;4.25;0.75;0.5;0.0;0.25;0.0;0.25;0.0;0.25;0.0;0.0;0.0;0.0;-0.224609;-0.003906;0.987305;-0.63;-0.42;0.7;200.0;-0.316859;-0.058156
1.73;5.25;4.5;3.0;4.0;0.75;1.5;0.25;0.5;0.0;0.75;0.5;0.5;0.5;0.0;0.0;0.25;-0.201172;0.037598;0.985352;-1.05;2.45;1.19;213.0;-0.251341;-0.07701;5.25;5.75;3.75;4.25;0.75;0.5;0.0;0.25;0.0;0.0;0.25;0.25;0.0;0.0;0.0;0.0;-0.226074;-0.009766;0.984863;-0.63;-0.42;0.84;200.0;-0.316989;-0.0603
1.74;5.0;4.5;2.5;4.25;0.5;1.75;0.0;0.5;0.0;1.0;0.25;0.75;0.25;0.0;0.0;0.0;-0.199219;0.039551;0.990723;-1.4;2.66;1.19;204.0;-0.25796;-0.089984;5.25;5.75;3.75;4.25;0.75;0.5;0.0;0.25;0.0;0.25;0.25;0.5;0.0;0.0;0.0;0.0;-0.228516;-0.003906;0.980957;-0.63;-0.42;0.84;205.0;-0.304301;-0.061632
1.75;5.25;4.75;2.75;4.25;0.5;1.75;0.0;0.5;0.0;1.0;0.25;0.5;0.25;0.0;0.0;0.0;-0.197754;0.038086;0.986328;-1.26;2.31;1.26;209.0;-0.266711;-0.083922;5.25;5.75;3.75;4.25;1.0;0.5;0.0;0.0;0.0;0.5;0.5;0.5;0.0;0.0;0.0;0.0;-0.226074;-0.009277;0.983887;-0.7;-0.49;0.7;208.0;-0.294708;-0.053834
1.76;5.25;4.75;2.75;4.25;0.5;1.25;0.0;0.5;0.0;0.5;0.5;0.5;0.5;0.25;0.0;0.25;-0.200684;0.035645;0.98877;-1.26;2.38;1.26;206.0;-0.26101;-0.085709;5.5;5.75;3.75;4.25;0.75;0.5;0.0;0.25;0.0;0.5;0.5;0.25;0.0;0.0;0.0;0.0;-0.229492;-0.005859;0.984375;-0.7;-0.42;0.7;209.0;-0.29909;-0.056201
1.77;5.25;4.75;2.25;4.0;0.75;1.5;0.0;0.5;0.0;0.5;0.5;0.5;0.5;0.0;0.0;0.25;-0.203125;0.035645;0.98291;-1.33;2.52;1.19;202.0;-0.264054;-0.091432;5.25;5.75;3.75;4.25;0.75;0.5;0.0;0.25;0.0;0.25;0.25;0.25;0.0;0.25;0.0;0.0;-0.228516;-0.007812;0.987305;-0.63;-0.42;0.7;204.0;-0.303518;-0.056577
1.78;5.25;4.5;2.75;4.25;0.75;1.75;0.0;0.5;0.0;0.5;0.5;0.5;0.25;0.0;0.0;0.0;-0.20459;0.042969;0.990723;-1.33;2.45;1.19;207.0;-0.269434;-0.085093;5.25;5.75;4.0;4.25;0.75;0.5;0.0;0.25;0.0;0.0;0.0;0.5;0.0;0.25;0.0;0.0;-0.226562;-0.003418;0.98877;-0.63;-0.49;0.56;204.0;-0.309518;-0.058286
1.79;5.0;4.75;2.75;4.0;0.75;1.75;0.0;0.5;0.25;0.75;0.5;1.0;0.25;0.0;0.0;0.0;-0.202637;0.036133;0.983887;-1.19;2.52;1.19;214.0;-0.245372;-0.084461;5.5;5.75;3.25;4.25;0.75;0.75;0.0;0.5;0.25;0.0;0.25;0.0;0.0;0.0;0.0;0.0;-0.230957;-0.005859;0.991211;-0.7;-0.49;0.63;204.0;-0.309883;-0.062634
1.8;5.25;4.75;2.75;4.0;0.75;1.75;0.0;0.5;0.0;0.5;0.5;1.0;0.5;0.0;0.0;0.0;-0.205078;0.033691;0.98877;-1.26;2.45;1.26;213.0;-0.25572;-0.092542;5.25;5.75;3.5;4.25;0.75;0.5;0.0;0.5;0.0;0.25;0.0;0.0;0.0;0.25;0.0;0.0;-0.232422;-0.012695;0.978027;-0.7;-0.42;0.77;200.0;-0.311459;-0.060666
1.81;5.25;4.75;2.75;4.0;0.75;1.75;0.0;0.5;0.0;0.5;0.25;0.5;0.5;0.0;0.0;0.0;-0.206055;0.036133;0.991699;-1.26;2.52;1.26;206.0;-0.27223;-0.087509;5.25;5.5;3.5;4.25;0.75;0.5;0.0;0.5;0.0;0.5;0.0;0.0;0.0;0.5;0.0;0.0;-0.224121;-0.004883;0.981934;-0.77;-0.49;0.77;202.0;-0.296901;-0.055808
1.82;5.5;4.5;2.25;4.0;0.75;1.75;0.25;0.5;0.25;0.5;0.25;0.25;0.5;0.25;0.0;0.0;-0.199219;0.040039;0.984863;-1.26;2.45;1.33;207.0;-0.257996;-0.073102;5.0;5.5;3.5;4.25;0.75;0.5;0.0;0.5;0.0;0.25;0.5;0.25;0.0;0.0;0.0;0.0;-0.231445;-0.005859;0.988281;-0.7;-0.56;0.77;201.0;-0.297255;-0.068009
1.83;5.25;4.5;2.25;4.0;0.75;2.0;0.25;0.5;0.25;0.5;0.25;0.5;0.25;0.25;0.0;0.0;-0.198242;0.04248;0.985352;-1.26;2.66;1.19;207.0;-0.253742;-0.076427;5.5;5.75;4.0;4.25;1.0;0.75;0.0;0.5;0.25;0.0;0.25;0.0;0.0;0.0;0.0;0.0;-0.230469;-0.008789;0.986328;-0.63;-0.49;0.7;214.0;-0.306123;-0.055735
1.84;5.0;4.5;2.25;4.0;0.75;1.75;0.25;0.5;0.25;0.5;0.25;0.75;0.25;0.0;0.0;0.25;-0.199219;0.036133;0.985352;-1.4;2.52;1.26;204.0;-0.25039;-0.082647;5.5;5.75;3.75;4.25;0.75;0.5;0.0;0.25;0.5;0.25;0.0;0.0;0.0;0.0;0.0;0.0;-0.231934;-0.004883;0.982422;-0.63;-0.42;0.7;206.0;-0.307349;-0.043773
1.85;4.75;4.75;2.25;4.25;1.0;1.75;0.0;0.5;0.25;0.5;0.25;0.25;0.5;0.0;0.0;0.25;-0.197754;0.041504;0.987793;-1.33;2.45;1.19;203.0;-0.261738;-0.089977;5.25;5.75;3.25;4.25;0.75;0.5;0.0;0.25;0.25;0.25;0.25;0.25;0.0;0.0;0.0;0.0;-0.230957;-0.008301;0.978516;-0.63;-0.49;0.77;200.0;-0.303101;-0.057635
1.86;5.25;4.5;2.5;4.0;0.75;2.0;0.0;0.5;0.0;0.75;0.75;0.25;0.25;0.0;0.0;0.0;-0.197266;0.034668;0.98584;-1.26;2.38;1.26;206.0;-0.261823;-0.083994;5.25;6.0;3.25;4.25;1.0;0.75;0.0;0.5;0.0;0.25;0.25;0.25;0.0;0.25;0.0;0.25;-0.229004;-0.011719;0.986328;-0.77;-0.49;0.77;211.0;-0.292927;-0.069399
1.87;5.25;4.5;2.5;4.0;0.5;2.0;0.0;0.5;0.0;0.5;0.5;0.5;0.0;0.0;0.0;0.25;-0.199219;0.033203;0.987305;-1.4;2.38;1.19;201.0;-0.270047;-0.087403;5.25;5.75;3.75;4.5;1.0;1.0;0.0;0.5;0.0;0.5;0.0;0.25;0.0;0.0;0.0;0.0;-0.224121;-0.000977;0.988281;-0.77;-0.49;0.77;216.0;-0.299434;-0.067691
1.88;5.25;4.75;2.5;4.0;0.5;1.5;0.0;0.5;0.25;0.5;0.25;0.5;0.25;0.0;0.0;0.25;-0.196777;0.041992;0.98877;-1.19;2.45;1.33;200.0;-0.268203;-0.081607;5.25;5.5;4.0;4.25;0.75;1.0;0.0;0.5;0.0;0.5;0.0;0.5;0.0;0.0;0.0;0.0;-0.229004;-0.005371;0.987793;-0.7;-0.49;0.84;213.0;-0.294307;-0.067091
1.89;5.25;4.75;2.25;4.0;0.75;1.5;0.0;0.25;0.25;0.75;0.5;0.5;0.25;0.0;0.0;0.25;-0.20459;0.030273;0.986816;-1.05;2.45;1.26;202.0;-0.259006;-0.075336;5.5;5.5;3.75;4.25;0.75;1.0;0.0;0.5;0.0;0.5;0.0;0.25;0.0;0.25;0.0;0.0;-0.231934;-0.005859;0.987305;-0.63;-0.49;0.84;213.0;-0.295093;-0.062173
1.9;5.25;4.5;2.75;4.0;0.75;1.5;0.0;0.25;0.5;0.5;0.5;0.5;0.5;0.25;0.0;0.0;-0.197266;0.042969;0.98291;-1.19;2.45;1.19;208.0;-0.249174;-0.066836;5.25;5.75;4.0;4.25;0.75;0.75;0.0;0.25;0.0;0.5;0.0;0.25;0.0;0.0;0.0;0.0;-0.227051;-0.007324;0.98291;-0.7;-0.63;0.77;207.0;-0.307853;-0.057516
1.91;5.5;4.5;2.5;4.0;0.75;1.75;0.0;0.5;0.0;0.75;0.75;0.5;0.25;0.25;0.0;0.0;-0.195801;0.036133;0.982422;-1.19;2.31;1.26;211.0;-0.253058;-0.079593;5.25;5.75;4.0;4.5;0.75;0.75;0.0;0.25;0.0;0.5;0.25;0.25;0.0;0.0;0.0;0.0;-0.230469;-0.005859;0.981934;-0.63;-0.49;0.77;212.0;-0.301588;-0.060155
1.92;5.75;4.75;2.75;4.0;1.0;1.25;0.0;0.5;0.0;1.0;0.75;0.5;0.5;0.25;0.0;0.0;-0.199219;0.036621;0.986816;-1.12;2.45;1.26;220.0;-0.248031;-0.07235;5.5;5.5;3.75;4.0;0.75;0.5;0.0;0.25;0.0;0.5;0.25;0.25;0.0;0.0;0.0;0.0;-0.23291;-0.006836;0.984863;-0.7;-0.56;0.77;202.0;-0.304222;-0.052259
1.93;5.5;5.0;2.75;4.25;1.0;1.25;0.0;0.5;0.0;0.5;0.5;0.5;0.5;0.0;0.0;0.0;-0.196777;0.037598;0.983887;-1.33;2.45;1.19;213.0;-0.270765;-0.081947;5.0;5.75;3.75;4.25;0.75;0.75;0.0;0.25;0.0;0.5;0.25;0.25;0.0;0.0;0.0;0.0;-0.234375;-0.008301;0.986328;-0.77;-0.63;0.7;205.0;-0.301034;-0.061954
1.94;5.25;4.75;2.5;4.0;0.5;1.25;0.0;0.5;0.0;0.25;0.5;0.25;0.5;0.0;0.0;0.5;-0.201172;0.037598;0.986816;-1.19;2.38;1.33;196.0;-0.27525;-0.089517;5.0;5.75;4.0;4.25;0.75;1.0;0.0;0.25;0.0;0.25;0.5;0.5;0.0;0.5;0.0;0.0;-0.227539;-0.004883;0.98291;-0.7;-0.49;0.7;216.0;-0.280425;-0.062858
1.95;5.25;4.75;3.5;4.25;0.75;1.25;0.0;0.5;0.0;0.25;0.5;0.25;0.5;0.25;0.0;0.25;-0.195312;0.035156;0.98877;-1.19;2.45;1.26;212.0;-0.270553;-0.076924;5.25;5.75;4.0;4.25;0.75;0.75;0.0;0.5;0.25;0.5;0.5;0.75;0.0;0.25;0.0;0.0;-0.227051;-0.010254;0.98877;-0.7;-0.42;0.77;225.0;-0.267124;-0.062571
1.96;5.25;4.75;3.25;4.25;0.75;1.25;0.0;0.5;0.0;0.5;0.25;0.5;0.5;0.25;0.0;0.5;-0.196777;0.035645;0.983887;-1.33;2.45;1.12;213.0;-0.261345;-0.080773;5.25;5.75;4.0;4.0;1.0;0.75;0.0;0.5;0.25;0.5;0.5;0.25;0.0;0.0;0.0;0.0;-0.224121;-0.01123;0.981445;-0.77;-0.35;0.7;218.0;-0.281857;-0.056281
1.97;5.25;4.75;2.75;4.0;0.5;1.5;0.0;0.5;0.0;0.5;0.5;0.25;0.25;0.0;0.0;0.25;-0.196289;0.033203;0.987305;-1.26;2.45;1.19;200.0;-0.275866;-0.082582;5.25;5.75;4.25;4.25;1.0;1.0;0.0;0.5;0.0;0.75;0.25;0.0;0.0;0.0;0.0;0.0;-0.225586;-0.003418;0.98877;-0.63;-0.49;0.84;221.0;-0.292826;-0.058881
1.98;5.25;4.5;3.0;4.0;0.75;1.75;0.0;0.5;0.25;0.5;0.75;0.5;0.25;0.25;0.0;0.0;-0.198242;0.037598;0.981934;-1.12;2.52;1.26;214.0;-0.25005;-0.074292;5.5;6.0;3.75;4.25;1.0;0.75;0.0;0.5;0.0;0.25;0.5;0.0;0.0;0.25;0.0;0.0;-0.229004;-0.001465;0.983398;-0.7;-0.49;0.84;217.0;-0.297108;-0.060316
1.99;5.25;4.5;2.75;4.0;0.75;1.5;0.0;0.5;0.25;0.5;0.5;0.25;0.25;0.25;0.0;0.25;-0.200684;0.031738;0.979004;-1.19;2.52;1.26;205.0;-0.258277;-0.072288;5.25;5.75;3.25;4.25;1.0;0.5;0.0;0.25;0.0;0.25;0.5;0.0;0.0;0.0;0.0;0.0;-0.229492;-0.006836;0.984375;-0.7;-0.49;0.77;200.0;-0.309107;-0.058937
2.0;5.0;4.5;2.75;4.0;0.5;1.5;0.0;0.5;0.0;0.5;0.5;0.25;0.0;0.25;0.0;0.25;-0.20459;0.03418;0.983887;-1.05;2.52;1.26;195.0;-0.270471;-0.077533;5.5;5.75;3.5;4.25;1.0;0.5;0.0;0.25;0.0;0.5;0.25;0.25;0.0;0.0;0.0;0.0;-0.230957;-0.004883;0.986328;-0.7;-0.42;0.77;207.0;-0.303472;-0.055878
2.01;5.25;4.75;2.75;4.25;0.5;1.5;0.0;0.5;0.0;0.25;0.75;0.5;0.25;0.5;0.0;0.25;-0.202148;0.037598;0.983398;-1.12;2.45;1.26;209.0;-0.257655;-0.083936;5.5;5.75;3.75;4.25;1.0;0.75;0.0;0.25;0.0;0.25;0.25;0.0;0.0;0.25;0.0;0.0;-0.230957;-0.002441;0.982422;-0.7;-0.49;0.7;209.0;-0.306628;-0.053102
2.02;5.0;4.25;2.5;4.0;0.5;1.25;0.0;0.5;0.0;0.25;1.0;0.5;0.25;0.0;0.0;0.25;-0.20166;0.042969;0.98584;-1.19;2.52;1.26;193.0;-0.260826;-0.088216;5.25;5.75;3.75;4.25;1.0;0.5;0.0;0.5;0.0;0.25;0.5;0.0;0.0;0.25;0.0;0.25;-0.231445;-0.009277;0.983398;-0.84;-0.35;0.77;211.0;-0.292545;-0.06015
2.03;5.0;4.5;2.75;4.0;0.5;1.25;0.0;0.5;0.0;0.5;0.75;0.5;0.5;0.25;0.0;0.25;-0.197754;0.036133;0.979004;-1.19;2.45;1.26;202.0;-0.251609;-0.08578;5.25;5.75;3.75;4.25;1.0;0.5;0.0;0.5;0.0;0.25;0.5;0.25;0.0;0.25;0.0;0.0;-0.234863;-0.005859;0.983398;-0.63;-0.42;0.7;213.0;-0.290685;-0.061336
2.04;5.25;4.75;2.25;4.0;0.5;1.5;0.0;0.5;0.25;0.25;0.75;0.5;0.5;0.0;0.0;0.25;-0.196777;0.037598;0.989746;-1.26;2.38;1.26;202.0;-0.258209;-0.090033;5.25;5.75;3.25;4.25;1.0;0.75;0.0;0.25;0.0;0.5;0.0;0.0;0.0;0.25;0.0;0.0;-0.228027;-0.008789;0.987305;-0.7;-0.49;0.77;202.0;-0.306405;-0.056484
2.05;5.25;4.75;3.25;4.0;0.5;1.5;0.0;0.5;0.0;0.0;0.5;0.75;0.5;0.0;0.0;0.25;-0.193359;0.039062;0.990234;-1.26;2.45;1.19;207.0;-0.271876;-0.090319;5.25;5.75;3.25;4.25;1.0;0.75;0.0;0.25;0.0;0.5;0.0;0.0;0.0;0.0;0.0;0.0;-0.227051;-0.010254;0.985352;-0.77;-0.42;0.7;200.0;-0.313436;-0.058774
2.06;5.25;4.75;3.5;4.0;0.5;1.75;0.25;0.5;0.0;0.25;0.5;0.5;0.25;0.0;0.0;0.25;-0.200684;0.033203;0.985352;-1.12;2.45;1.26;214.0;-0.26851;-0.077368;5.25;5.75;3.5;4.5;0.75;0.75;0.0;0.25;0.25;0.5;0.0;0.25;0.0;0.0;0.0;0.0;-0.233398;-0.012695;0.98877;-0.63;-0.42;0.77;208.0;-0.300516;-0.058365
2.07;5.5;4.75;3.25;4.0;0.25;1.75;0.0;0.5;0.0;0.5;0.5;0.5;0.0;0.0;0.0;0.25;-0.206543;0.036621;0.985352;-1.12;2.45;1.33;208.0;-0.27604;-0.079032;5.25;5.75;3.25;4.25;1.0;0.75;0.0;0.5;0.0;0.5;0.0;0.0;0.0;0.25;0.0;0.0;-0.228027;-0.006836;0.98291;-0.63;-0.35;0.63;205.0;-0.30142;-0.062168
2.08;5.25;4.75;2.75;4.0;0.25;2.0;0.0;0.5;0.25;0.5;0.5;0.25;0.5;0.0;0.0;0.25;-0.202148;0.03418;0.984863;-1.19;2.59;1.26;207.0;-0.262763;-0.087383;5.5;5.75;3.25;4.0;0.75;1.0;0.0;0.5;0.0;0.75;0.25;0.25;0.0;0.25;0.0;0.0;-0.230469;-0.007324;0.987793;-0.63;-0.49;0.91;212.0;-0.285216;-0.064119
2.09;5.75;4.75;2.75;4.0;0.5;2.0;0.0;0.5;0.0;0.5;0.75;0.0;0.25;0.5;0.0;0.0;-0.202637;0.038574;0.981445;-1.19;2.52;1.19;212.0;-0.266749;-0.074583;5.25;5.75;3.5;4.25;0.75;0.75;0.0;0.5;0.0;0.5;0.5;0.5;0.0;0.0;0.25;0.0;-0.233887;-0.006348;0.986816;-0.7;-0.49;0.7;215.0;-0.278386;-0.070645
2.1;5.0;4.75;2.5;4.25;0.75;2.0;0.25;0.5;0.0;0.5;0.25;0.25;0.0;0.25;0.0;0.0;-0.199707;0.038574;0.983887;-1.26;2.52;1.19;205.0;-0.271273;-0.078036;5.0;5.5;3.25;4.25;0.75;0.75;0.0;0.5;0.0;0.5;0.5;0.25;0.0;0.25;0.0;0.0;-0.22998;-0.005371;0.989746;-0.63;-0.42;0.77;205.0;-0.282913;-0.068583
2.11;4.75;4.75;2.5;4.25;0.5;2.0;0.0;0.5;0.0;0.25;0.5;0.5;0.25;0.0;0.0;0.25;-0.19873;0.035645;0.989258;-1.19;2.45;1.26;200.0;-0.270343;-0.100118;5.25;5.5;3.25;4.25;0.75;0.5;0.0;0.5;0.0;0.5;0.25;0.25;0.0;0.25;0.0;0.0;-0.229004;-0.007324;0.981934;-0.56;-0.49;0.7;203.0;-0.29193;-0.063446
2.12;5.25;4.75;2.75;4.25;0.5;2.0;0.0;0.5;0.25;0.0;0.75;0.25;0.5;0.0;0.0;0.0;-0.19873;0.035156;0.981934;-1.33;2.38;1.19;209.0;-0.270995;-0.089667;5.5;5.75;3.75;4.25;0.75;0.5;0.0;0.5;0.25;0.25;0.25;0.25;0.0;0.0;0.0;0.0;-0.231445;-0.006836;0.989746;-0.7;-0.42;0.77;211.0;-0.298525;-0.057718
2.13;5.25;4.75;3.0;4.25;0.75;2.0;0.0;0.5;0.25;0.25;0.5;0.25;0.25;0.0;0.0;0.25;-0.200195;0.036621;0.98291;-1.26;2.59;1.19;213.0;-0.269506;-0.081568;5.25;5.75;3.0;4.25;0.75;0.5;0.0;0.5;0.0;0.5;0.25;0.0;0.0;0.0;0.0;0.25;-0.227051;-0.010742;0.984863;-0.7;-0.49;0.77;199.0;-0.302473;-0.067607
2.14;5.25;4.75;2.75;4.25;0.5;1.75;0.0;0.5;0.0;0.5;0.75;0.5;0.25;0.0;0.0;0.5;-0.190918;0.03418;0.987793;-1.19;2.38;1.19;211.0;-0.259541;-0.090696;5.25;5.75;3.25;4.25;0.75;0.5;0.0;0.5;0.0;0.5;0.25;0.25;0.0;0.25;0.25;0.0;-0.230469;-0.004395;0.986328;-0.56;-0.42;0.84;207.0;-0.285053;-0.064707
2.15;5.25;4.75;3.0;4.25;0.5;2.0;0.0;0.5;0.0;0.25;1.0;0.5;0.5;0.0;0.0;0.25;-0.197754;0.037598;0.985352;-1.19;2.38;1.12;217.0;-0.258131;-0.09477;5.25;5.75;3.75;4.25;0.75;0.5;0.0;0.25;0.25;0.25;0.25;0.0;0.0;0.0;0.0;0.0;-0.227051;-0.002441;0.983398;-0.7;-0.49;0.77;203.0;-0.308253;-0.051102
2.16;4.75;4.75;2.5;4.25;0.5;2.0;0.0;0.5;0.0;0.0;0.5;0.5;0.5;0.0;0.0;0.0;-0.205078;0.036133;0.992188;-1.12;2.45;1.26;199.0;-0.276014;-0.104372;4.5;5.75;3.25;4.25;0.75;0.5;0.0;0.25;0.25;0.25;0.25;0.0;0.0;0.0;0.0;0.0;-0.225098;-0.012207;0.983398;-0.7;-0.42;0.91;191.0;-0.305854;-0.060826
2.17;5.25;4.75;2.25;4.0;0.5;1.75;0.0;0.5;0.0;0.5;0.5;0.5;0.5;0.0;0.0;0.25;-0.199219;0.040039;0.988281;-1.19;2.45;1.26;202.0;-0.264402;-0.095571;5.25;5.75;3.25;4.25;0.75;0.5;0.0;0.25;0.0;0.5;0.25;0.0;0.0;0.0;0.0;0.0;-0.228027;-0.005371;0.98291;-0.63;-0.42;0.7;197.0;-0.311316;-0.058295
2.18;5.5;4.75;2.5;4.0;0.25;2.0;0.25;0.5;0.0;0.5;0.5;0.75;0.5;0.25;0.0;0.0;-0.196289;0.037109;0.97998;-1.26;2.59;1.19;213.0;-0.252756;-0.087964;5.5;5.75;3.25;4.25;1.0;0.5;0.0;0.25;0.0;0.5;0.5;0.25;0.0;0.0;0.0;0.0;-0.224609;-0.010254;0.979004;-0.56;-0.49;0.7;207.0;-0.297811;-0.058366
2.19;5.25;4.75;2.75;4.25;0.25;1.5;0.25;0.5;0.0;0.5;0.25;1.0;0.25;0.0;0.0;0.25;-0.203613;0.037109;0.98584;-1.19;2.52;1.26;208.0;-0.26077;-0.087607;5.25;5.75;3.25;4.25;1.0;1.0;0.0;0.25;0.0;0.5;0.5;0.25;0.0;0.0;0.0;0.0;-0.231445;-0.007324;0.979004;-0.56;-0.49;0.77;209.0;-0.293156;-0.065356
2.2;5.25;4.75;2.5;4.25;0.5;1.5;0.0;0.5;0.0;0.5;0.5;1.0;0.25;0.0;0.0;0.25;-0.199707;0.038086;0.978027;-1.12;2.45;1.26;207.0;-0.259185;-0.093863;5.5;5.75;3.25;4.25;1.25;1.0;0.0;0.25;0.0;0.5;0.25;0.0;0.0;0.0;0.0;0.0;-0.23291;-0.004883;0.980469;-0.7;-0.49;0.77;209.0;-0.304116;-0.058635
2.21;5.5;4.75;2.75;4.25;0.5;1.75;0.0;0.75;0.25;0.5;0.5;1.0;0.5;0.0;0.0;0.25;-0.201172;0.033203;0.987793;-1.19;2.52;1.26;223.0;-0.244998;-0.094604;5.5;5.75;3.5;4.25;0.75;1.0;0.0;0.5;0.0;0.25;0.25;0.0;0.0;0.0;0.0;0.0;-0.229004;-0.011719;0.981934;-0.63;-0.35;0.7;208.0;-0.309308;-0.066685
2.22;5.5;4.75;3.0;4.25;0.5;2.0;0.0;0.5;0.0;0.75;0.5;0.25;0.5;0.0;0.0;0.25;-0.192871;0.036621;0.983887;-1.05;2.45;1.19;217.0;-0.264671;-0.086363;5.25;5.75;3.5;4.25;0.75;0.5;0.0;0.5;0.0;0.25;0.5;0.0;0.0;0.25;0.0;0.0;-0.230469;-0.005859;0.98877;-0.77;-0.49;0.56;205.0;-0.29891;-0.061956
2.23;4.75;4.5;2.75;4.0;0.25;1.5;0.0;0.5;0.0;0.5;0.25;0.25;0.25;0.25;0.0;0.5;-0.193848;0.038086;0.987305;-1.19;2.31;1.26;191.0;-0.268241;-0.08672;5.25;5.5;3.5;4.25;0.75;0.75;0.0;0.5;0.0;0.25;0.5;0.25;0.0;0.0;0.0;0.0;-0.226562;-0.013184;0.984863;-0.63;-0.42;0.63;206.0;-0.296723;-0.068451
2.24;4.75;4.5;2.5;4.0;0.5;1.25;0.0;0.5;0.0;0.5;0.25;0.5;0.0;0.25;0.0;0.25;-0.202637;0.035156;0.981934;-1.19;2.66;1.19;188.0;-0.270594;-0.081868;5.5;5.5;3.75;4.25;0.75;0.5;0.0;0.5;0.25;0.5;0.0;0.5;0.0;0.0;0.25;0.0;-0.230957;-0.002441;0.986816;-0.84;-0.42;0.7;214.0;-0.283531;-0.057608
2.25;5.25;4.75;3.0;4.25;0.5;1.25;0.0;0.5;0.0;0.5;0.5;0.5;0.5;0.25;0.0;0.25;-0.199219;0.035156;0.984863;-1.05;2.45;1.26;209.0;-0.261064;-0.08357;5.5;6.0;4.0;4.25;0.75;0.5;0.0;0.5;0.0;0.5;0.0;0.25;0.0;0.0;0.0;0.0;-0.229492;-0.000977;0.98584;-0.7;-0.42;0.7;213.0;-0.306983;-0.059685
2.26;5.5;4.5;2.75;4.25;0.75;1.25;0.0;0.5;0.0;0.5;0.5;0.5;0.5;0.25;0.0;0.25;-0.199219;0.036621;0.98877;-1.26;2.52;1.19;209.0;-0.259425;-0.080931;5.25;5.75;4.0;4.25;1.0;0.5;0.0;0.5;0.0;0.5;0.0;0.25;0.0;0.0;0.0;0.0;-0.228027;-0.005371;0.981934;-0.84;-0.49;0.7;211.0;-0.302639;-0.059072
2.27;5.0;4.75;2.75;4.25;0.5;1.25;0.0;0.5;0.0;0.5;0.5;0.5;0.5;0.0;0.0;0.25;-0.197754;0.037109;0.983398;-1.26;2.52;1.19;202.0;-0.265851;-0.090533;5.25;5.75;3.75;4.25;0.75;0.25;0.0;0.5;0.0;0.25;0.25;0.25;0.0;0.25;0.0;0.0;-0.22998;0.000488;0.981445;-1.12;-0.7;0.7;205.0;-0.300418;-0.059635
2.28;5.25;4.75;2.75;4.25;0.75;1.25;0.0;0.5;0.0;0.25;0.5;0.5;0.5;0.25;0.0;0.0;-0.202148;0.040527;0.98291;-1.19;2.52;1.19;205.0;-0.268943;-0.084257;5.5;5.75;3.5;4.25;0.75;0.5;0.0;0.5;0.0;0.5;0.25;0.0;0.0;0.25;0.0;0.0;-0.227051;-0.003906;0.978516;-1.33;-0.77;0.77;207.0;-0.299976;-0.05794
2.29;5.25;4.75;2.75;4.0;0.5;2.0;0.0;0.5;0.0;0.25;0.5;0.5;0.5;0.25;0.0;0.0;-0.200684;0.035645;0.988281;-1.19;2.52;1.19;208.0;-0.26626;-0.091098;5.5;5.75;3.5;4.25;0.75;0.5;0.0;0.5;0.25;0.25;0.25;0.0;0.0;0.25;0.0;0.0;-0.227051;-0.006348;0.984863;-1.61;-0.7;0.56;208.0;-0.298149;-0.054552
2.3;5.25;4.5;2.75;4.25;0.25;1.75;0.0;0.5;0.0;0.5;0.75;0.5;0.25;0.25;0.0;0.0;-0.203613;0.038086;0.986328;-1.26;2.59;1.12;206.0;-0.260722;-0.086532;5.25;5.5;3.75;4.25;0.75;0.5;0.0;0.5;0.0;0.25;0.25;0.25;0.0;0.25;0.0;0.0;-0.233398;-0.009766;0.989258;-1.61;-0.56;0.56;206.0;-0.297433;-0.061126
2.31;5.25;4.5;3.0;4.25;0.5;1.5;0.0;0.5;0.0;0.5;0.5;0.5;0.5;0.0;0.0;0.0;-0.196777;0.032715;0.986816;-1.12;2.45;1.19;206.0;-0.26831;-0.086094;5.25;5.5;3.75;4.25;1.0;0.5;0.0;0.5;0.0;0.5;0.5;0.25;0.0;0.0;0.0;0.0;-0.227539;-0.009766;0.984863;-1.26;-0.98;0.56;211.0;-0.289948;-0.06109
2.32;5.25;4.5;2.75;4.0;0.5;1.5;0.0;0.5;0.0;0.5;0.5;0.25;0.5;0.0;0.0;0.0;-0.202637;0.039062;0.987305;-1.19;2.66;1.12;199.0;-0.273906;-0.08405;5.5;5.5;3.75;4.25;1.25;0.75;0.0;0.5;0.25;0.25;0.5;0.25;0.0;0.0;0.0;0.0;-0.230957;-0.009277;0.984375;-1.54;-0.84;0.49;219.0;-0.286012;-0.057025
2.33;5.25;4.5;2.75;4.25;0.5;1.75;0.0;0.5;0.0;0.5;0.75;0.25;0.5;0.25;0.0;0.25;-0.195312;0.039062;0.990723;-1.12;2.45;1.19;209.0;-0.256708;-0.087276;5.25;5.5;3.75;4.25;1.25;0.5;0.0;0.5;0.25;0.25;0.5;0.25;0.0;0.0;0.0;0.0;-0.225586;-0.009277;0.98291;-1.47;-0.63;0.63;214.0;-0.286269;-0.056351
2.34;5.25;4.0;2.75;4.0;0.75;1.25;0.0;0.5;0.0;0.5;0.5;0.5;0.5;0.25;0.0;0.25;-0.193848;0.033691;0.984863;-1.26;2.52;1.12;200.0;-0.254061;-0.079579;5.25;5.75;4.0;4.0;1.25;0.5;0.0;0.25;0.25;0.5;0.5;0.0;0.0;0.0;0.0;0.0;-0.230957;-0.008789;0.990234;-1.33;-0.7;0.56;213.0;-0.291508;-0.044153
2.35;5.25;4.5;2.5;4.0;0.75;0.75;0.0;0.5;0.0;0.5;0.25;0.25;0.5;0.0;0.0;0.5;-0.200684;0.03125;0.995605;-1.26;2.66;0.98;191.0;-0.274785;-0.079682;5.25;5.75;4.0;4.0;1.0;0.25;0.0;0.25;0.0;0.5;0.25;0.0;0.0;0.25;0.0;0.0;-0.23291;-0.008301;0.98584;-1.33;-0.56;0.56;204.0;-0.302615;-0.044369
2.36;5.25;4.75;2.75;4.0;0.75;1.0;0.0;0.25;0.0;0.5;0.5;0.5;0.25;0.25;0.0;0.5;-0.200195;0.034668;0.983887;-1.19;2.52;1.12;200.0;-0.265065;-0.072119;5.25;5.5;3.75;4.25;1.25;0.5;0.0;0.5;0.0;0.5;0.25;0.0;0.0;0.0;0.0;0.0;-0.231445;-0.004395;0.98584;-1.05;-0.49;0.7;209.0;-0.299666;-0.056272
2.37;5.25;4.5;2.75;4.0;0.75;1.25;0.25;0.5;0.0;0.75;0.5;0.25;0.25;0.25;0.0;0.5;-0.199707;0.037109;0.98584;-1.05;2.45;1.19;207.0;-0.251826;-0.069476;5.25;5.5;3.75;4.0;1.0;0.75;0.0;0.5;0.25;0.5;0.25;0.25;0.0;0.0;0.0;0.0;-0.229004;-0.007812;0.981445;-1.05;-0.56;0.7;211.0;-0.286463;-0.05627
2.38;5.25;4.5;2.5;4.0;0.5;1.25;0.0;0.5;0.0;0.75;0.25;0.25;0.25;0.0;0.0;0.25;-0.195801;0.037109;0.983398;-1.12;2.45;1.12;193.0;-0.275923;-0.079269;5.0;5.5;3.75;4.0;0.75;0.5;0.0;0.5;0.0;0.75;0.5;0.5;0.0;0.25;0.0;0.0;-0.227051;-0.01123;0.985352;-1.19;-0.42;0.63;210.0;-0.272408;-0.061573
2.39;5.25;4.25;2.5;4.25;0.5;1.5;0.0;0.5;0.0;0.75;0.5;0.5;0.25;0.0;0.0;0.25;-0.202637;0.03418;0.984863;-1.26;2.38;1.19;201.0;-0.261227;-0.085621;5.25;5.5;3.75;4.0;0.75;0.5;0.0;0.25;0.0;0.5;0.5;0.5;0.0;0.25;0.0;0.0;-0.227539;-0.004883;0.984863;-1.19;-0.56;0.7;207.0;-0.284182;-0.055511
2.4;5.0;4.25;3.0;4.0;0.5;1.5;0.0;0.0;0.0;0.5;0.5;0.5;0.5;0.0;0.0;0.5;-0.200195;0.038574;0.988281;-1.26;2.38;1.19;195.0;-0.265888;-0.077809;5.25;5.5;4.25;4.25;1.0;0.5;0.0;0.25;0.0;0.5;0.0;0.5;0.0;0.25;0.0;0.0;-0.22998;-0.004883;0.986328;-1.12;-0.28;0.56;212.0;-0.293407;-0.051282
2.41;5.0;4.5;2.75;4.0;0.5;1.25;0.0;0.0;0.0;0.5;0.5;0.25;0.5;0.0;0.0;0.0;-0.201172;0.035645;0.981445;-1.4;2.38;1.19;187.0;-0.283621;-0.072525;5.5;5.5;4.0;4.25;1.25;0.5;0.0;0.5;0.25;0.5;0.0;0.5;0.0;0.25;0.0;0.0;-0.230957;-0.008301;0.983398;-1.05;-0.28;0.7;221.0;-0.281122;-0.050857
2.42;5.25;4.5;2.5;3.75;0.75;1.25;0.0;0.5;0.0;0.5;0.5;0.25;0.5;0.0;0.0;0.0;-0.195801;0.036133;0.981934;-1.33;2.45;1.05;194.0;-0.273476;-0.080198;5.25;5.5;4.0;4.25;1.25;0.5;0.25;0.5;0.25;0.5;0.25;0.25;0.0;0.25;0.0;0.0;-0.230469;-0.009277;0.989258;-1.05;-0.49;0.56;222.0;-0.274005;-0.045991
2.43;5.5;4.5;2.5;4.0;0.75;1.25;0.0;0.5;0.25;0.25;0.5;0.5;0.25;0.0;0.0;0.25;-0.198242;0.038574;0.981934;-1.47;2.24;1.19;201.0;-0.268024;-0.076449;5.25;5.5;4.0;4.25;1.25;0.5;0.25;0.5;0.0;0.75;0.0;0.25;0.0;0.0;0.0;0.0;-0.228516;-0.010742;0.982422;-0.98;-0.56;0.56;217.0;-0.287376;-0.050446
2.44;5.25;4.5;2.75;4.0;0.75;1.5;0.0;0.25;0.25;0.0;0.5;0.5;0.0;0.25;0.0;0.25;-0.200684;0.040527;0.988281;-1.47;2.31;1.12;198.0;-0.273221;-0.068741;5.25;5.5;4.25;4.25;1.25;0.5;0.0;0.5;0.0;0.75;0.0;0.0;0.0;0.0;0.0;0.0;-0.224609;-0.010742;0.988281;-1.12;-0.42;0.56;214.0;-0.298725;-0.050787
2.45;5.5;4.5;2.75;3.75;1.0;1.5;0.0;0.0;0.25;0.5;0.25;0.25;0.25;0.0;0.0;0.0;-0.194336;0.033691;0.980957;-1.75;2.31;1.12;195.0;-0.283324;-0.055448;5.25;5.5;4.5;4.25;1.0;1.0;0.0;0.5;0.0;0.75;0.25;0.25;0.0;0.25;0.0;0.25;-0.229492;-0.009766;0.984375;-1.05;-0.42;0.56;227.0;-0.276344;-0.058103
2.46;5.25;4.0;2.5;3.5;0.75;1.25;0.0;0.0;0.0;0.25;0.25;0.25;0.5;0.0;0.0;0.25;-0.202148;0.034668;0.98584;-1.82;2.38;1.05;176.0;-0.28937;-0.066916;5.25;5.5;3.25;4.25;1.0;0.5;0.0;0.5;0.0;0.5;0.25;0.25;0.0;0.25;0.0;0.0;-0.228027;-0.009277;0.984863;-1.26;-0.35;0.49;205.0;-0.289892;-0.06192
2.47;5.25;4.25;2.75;3.75;0.75;1.25;0.0;0.0;0.0;0.25;0.25;0.25;0.5;0.5;0.0;0.5;-0.199707;0.036133;0.987793;-2.1;2.31;0.98;189.0;-0.271616;-0.06458;5.25;5.5;3.25;4.25;1.25;0.25;0.0;0.5;0.0;0.5;0.5;0.0;0.0;0.0;0.0;0.0;-0.224609;-0.008789;0.984863;-1.19;-0.42;0.49;203.0;-0.296141;-0.057979
2.48;5.25;4.25;2.75;4.0;0.75;1.25;0.0;0.25;0.25;0.5;0.25;0.25;0.25;0.25;0.0;0.5;-0.193359;0.03418;0.987793;-2.17;2.38;0.98;196.0;-0.264251;-0.064076;5.25;5.5;3.75;4.25;1.25;0.5;0.0;0.5;0.25;0.25;0.5;0.0;0.0;0.0;0.0;0.0;-0.225098;-0.010742;0.983398;-0.98;-0.42;0.7;212.0;-0.291923;-0.053621
2.49;5.0;4.5;2.5;4.0;1.0;1.25;0.0;0.0;0.0;0.25;0.5;0.25;0.0;0.25;0.0;0.25;-0.199219;0.036133;0.989746;-2.24;2.31;0.98;186.0;-0.284376;-0.06353;5.5;5.5;4.0;4.25;1.25;0.25;0.0;0.25;0.25;0.25;0.5;0.25;0.0;0.0;0.0;0.0;-0.228516;-0.009277;0.978516;-1.12;-0.35;0.7;213.0;-0.29336;-0.044761
2.5;5.5;4.5;2.75;4.0;0.75;1.25;0.0;0.0;0.0;0.5;0.25;0.25;0.25;0.25;0.0;0.0;-0.202637;0.035156;0.987793;-2.31;2.1;0.91;192.0;-0.288492;-0.059149;5.25;5.5;3.25;4.25;1.25;0.5;0.0;0.25;0.25;0.25;0.5;0.0;0.0;0.0;0.0;0.0;-0.22998;-0.008301;0.985352;-0.98;-0.49;0.7;203.0;-0.297378;-0.051423
2.51;5.75;4.5;3.0;3.75;0.75;1.25;0.0;0.25;0.25;0.25;0.25;0.25;0.0;0.25;0.0;0.25;-0.198242;0.035156;0.979004;-2.38;2.1;0.91;197.0;-0.283348;-0.052936;5.25;5.5;3.25;4.25;1.5;0.5;0.0;0.5;0.0;0.5;0.75;0.0;0.0;0.0;0.0;0.0;-0.224609;-0.006836;0.984375;-0.98;-0.42;0.7;211.0;-0.286475;-0.059752
2.52;5.0;4.0;3.25;3.5;0.75;1.25;0.0;0.5;0.5;0.5;0.0;0.5;0.0;0.0;0.0;0.25;-0.198242;0.034668;0.986328;-2.17;2.03;0.84;193.0;-0.263229;-0.05648;5.25;5.5;3.25;4.25;1.5;0.25;0.0;0.5;0.0;0.5;0.25;0.25;0.0;0.0;0.0;0.0;-0.230469;-0.002441;0.980957;-0.84;-0.28;0.7;206.0;-0.294202;-0.058636
2.53;5.0;4.5;2.25;3.5;0.5;1.25;0.0;0.25;0.25;0.5;0.25;0.5;0.0;0.0;0.0;0.5;-0.200684;0.033691;0.981445;-1.96;2.17;0.91;182.0;-0.27119;-0.070423;5.0;5.5;3.5;4.25;1.25;0.0;0.0;0.5;0.0;0.5;0.0;0.0;0.0;0.0;0.0;0.0;-0.227539;-0.01416;0.988281;-0.56;-0.28;0.7;196.0;-0.30901;-0.053938
2.54;5.5;4.5;2.0;3.5;0.5;1.25;0.0;0.0;0.0;0.25;0.25;0.25;0.0;0.25;0.0;0.25;-0.196289;0.030762;0.985352;-1.75;2.38;0.98;173.0;-0.299749;-0.061547;5.0;5.5;4.0;4.25;1.25;0.25;0.0;0.5;0.0;0.25;0.0;0.25;0.0;0.0;0.0;0.0;-0.231445;-0.010254;0.98584;-0.35;-0.28;0.77;204.0;-0.306279;-0.057259
2.55;5.75;4.5;2.75;3.5;0.75;1.0;0.0;0.25;0.25;0.0;0.25;0.25;0.0;0.5;0.0;0.0;-0.199219;0.028809;0.984863;-1.61;2.45;0.98;188.0;-0.288943;-0.047019;5.0;5.5;3.75;4.25;1.5;0.5;0.0;0.5;0.25;0.25;0.25;0.25;0.0;0.0;0.0;0.0;-0.223633;-0.006348;0.979004;-0.14;0.0;0.77;212.0;-0.288843;-0.056129
2.56;5.25;4.5;2.75;3.5;1.0;1.25;0.0;0.25;0.25;0.0;0.5;0.25;0.25;0.5;0.0;0.0;-0.201172;0.032227;0.98291;-1.4;2.38;1.19;193.0;-0.271105;-0.057493;5.25;5.5;3.5;3.75;1.25;0.5;0.0;0.5;0.0;0.5;0.5;0.5;0.0;0.0;0.0;0.0;-0.228516;-0.001953;0.98584;0.07;0.07;0.84;208.0;-0.282533;-0.060229
2.57;5.5;4.75;3.0;4.0;1.0;1.25;0.0;0.0;0.25;0.5;0.75;0.25;0.25;0.25;0.0;0.25;-0.203613;0.031738;0.990723;-1.19;2.38;1.26;208.0;-0.263935;-0.054987;5.25;5.5;3.25;3.25;1.0;0.5;0.0;0.5;0.0;0.5;0.5;0.25;0.0;0.0;0.0;0.0;-0.230469;-0.010254;0.981934;-0.07;0.21;0.77;196.0;-0.290709;-0.056616
2.58;5.25;4.5;2.75;4.0;0.75;1.25;0.0;0.25;0.25;0.25;0.5;0.5;0.25;0.0;0.0;0.25;-0.19873;0.040039;0.98584;-1.12;2.38;1.19;197.0;-0.27087;-0.070976;4.75;5.5;3.75;3.5;1.0;0.5;0.0;0.25;0.0;0.5;0.5;0.25;0.0;0.0;0.0;0.0;-0.229492;-0.007324;0.982422;-0.14;0.14;0.77;195.0;-0.292234;-0.053004
2.59;5.25;4.25;2.75;4.0;1.0;1.25;0.0;0.25;0.0;0.5;0.5;0.5;0.0;0.5;0.0;0.5;-0.198242;0.037109;0.986816;-1.05;2.31;1.33;200.0;-0.25645;-0.064654;4.75;5.5;3.75;3.75;1.0;0.5;0.0;0.25;0.0;0.75;0.5;0.5;0.0;0.0;0.0;0.0;-0.22998;-0.007812;0.987305;-0.14;0.21;0.84;202.0;-0.279937;-0.056654
2.6;5.5;4.5;2.75;3.75;1.0;1.25;0.0;0.25;0.0;0.5;0.5;0.5;0.0;0.25;0.0;0.25;-0.199219;0.036133;0.984375;-0.84;2.52;1.4;199.0;-0.269924;-0.062462;5.25;5.25;3.5;3.75;1.0;0.5;0.0;0.5;0.0;0.5;0.25;0.5;0.0;0.0;0.0;0.0;-0.230469;-0.004883;0.986816;-0.21;0.21;0.77;201.0;-0.289142;-0.059976
2.61;5.25;4.5;2.75;3.5;1.0;1.25;0.0;0.5;0.25;0.5;0.25;0.5;0.0;0.25;0.0;0.0;-0.197754;0.036621;0.983398;-0.84;2.38;1.26;197.0;-0.26558;-0.060908;5.25;5.25;3.5;3.75;1.25;0.25;0.0;0.5;0.0;0.5;0.0;0.0;0.0;0.0;0.0;0.0;-0.233398;-0.011719;0.984863;-0.28;0.21;0.77;194.0;-0.307537;-0.049121
2.62;5.25;4.25;2.75;3.75;0.75;1.5;0.0;0.5;0.25;0.5;0.5;0.25;0.0;0.5;0.0;0.5;-0.199219;0.038086;0.983887;-0.98;2.38;1.26;202.0;-0.250171;-0.064644;5.0;5.25;3.75;3.5;1.5;0.25;0.0;0.5;0.0;1.0;0.0;0.0;0.0;0.0;0.0;0.0;-0.228516;-0.007324;0.982422;-0.35;0.21;0.77;199.0;-0.290704;-0.042911
2.63;5.25;4.5;3.25;3.75;1.0;1.5;0.0;0.5;0.0;0.5;0.5;0.25;0.25;0.25;0.0;0.25;-0.202148;0.037109;0.98291;-1.12;2.45;1.26;207.0;-0.263915;-0.069849;4.75;5.25;3.75;3.5;1.5;0.5;0.0;0.5;0.0;1.0;0.0;0.25;0.0;0.0;0.0;0.0;-0.230957;-0.00293;0.981445;-0.49;0.14;0.77;201.0;-0.281681;-0.050563
2.64;5.5;4.75;3.5;3.75;1.0;1.5;0.0;0.5;0.0;0.5;0.75;0.25;0.25;0.25;0.0;0.0;-0.19873;0.03418;0.983887;-1.19;2.45;1.33;216.0;-0.265134;-0.066044;5.0;5.25;3.25;3.5;1.25;0.5;0.0;0.5;0.25;1.0;0.25;0.5;0.0;0.0;0.0;0.0;-0.23291;-0.006836;0.98291;-0.56;-0.07;0.84;204.0;-0.265767;-0.05249
2.65;5.5;4.5;2.75;4.0;0.75;1.5;0.0;0.5;0.0;1.0;0.75;0.25;0.5;0.25;0.0;0.25;-0.196777;0.034668;0.98291;-1.19;2.24;1.26;214.0;-0.246583;-0.076224;5.0;5.25;3.25;3.5;1.0;0.5;0.0;0.5;0.25;0.75;0.25;0.5;0.0;0.0;0.0;0.0;-0.227539;-0.005859;0.986328;-0.56;0.07;0.91;199.0;-0.273584;-0.055316
2.66;5.75;4.5;3.5;4.0;1.0;1.5;0.0;0.25;0.25;0.5;0.75;0.0;0.25;0.5;0.0;0.5;-0.201172;0.03418;0.982422;-1.19;2.45;1.26;220.0;-0.254408;-0.053361;5.0;5.0;3.25;3.5;1.0;0.5;0.0;0.5;0.25;0.75;0.25;0.25;0.0;0.0;0.0;0.25;-0.228516;-0.006348;0.98877;-0.56;0.0;0.77;196.0;-0.273951;-0.05281
2.67;5.5;4.5;3.5;4.25;1.0;1.5;0.0;0.0;0.25;0.5;0.5;0.25;0.25;0.5;0.0;0.25;-0.197754;0.037109;0.984863;-1.19;2.38;1.19;215.0;-0.260776;-0.05219;4.75;5.25;3.25;3.5;1.0;0.5;0.0;0.5;0.25;1.0;0.5;0.5;0.0;0.0;0.0;0.0;-0.232422;-0.009766;0.983398;-0.42;0.0;0.77;202.0;-0.26006;-0.056557
2.68;5.5;4.5;3.0;4.0;1.25;1.25;0.0;0.25;0.0;0.75;0.5;0.5;0.25;0.25;0.0;0.0;-0.198242;0.039551;0.984375;-1.05;2.45;1.26;210.0;-0.262145;-0.061943;4.75;5.25;3.25;4.0;1.0;0.5;0.0;0.5;0.25;1.0;0.25;0.25;0.0;0.0;0.0;0.0;-0.231445;-0.001953;0.983398;-0.35;-0.07;0.7;202.0;-0.272125;-0.057178
2.69;5.75;4.5;3.0;4.0;1.25;1.25;0.0;0.25;0.25;0.25;0.5;0.25;0.5;0.0;0.0;0.0;-0.198242;0.036621;0.984375;-0.91;2.31;1.33;208.0;-0.275444;-0.061408;4.75;5.25;3.75;4.0;0.75;0.5;0.0;0.5;0.0;0.75;0.25;0.25;0.0;0.0;0.0;0.0;-0.229004;-0.007324;0.984375;-0.42;-0.07;0.7;199.0;-0.287883;-0.06135
2.7;5.5;4.5;3.0;4.0;1.25;1.25;0.0;0.5;0.0;0.25;0.5;0.25;0.25;0.0;0.0;0.0;-0.197754;0.033691;0.986816;-0.91;2.45;1.33;204.0;-0.28162;-0.070019;4.5;5.25;3.25;3.5;0.75;0.5;0.0;0.5;0.0;0.75;0.5;0.25;0.0;0.0;0.0;0.25;-0.23291;-0.008789;0.975586;-0.42;-0.07;0.7;190.0;-0.276326;-0.065542
2.71;5.75;4.5;3.25;4.0;1.0;1.25;0.0;0.5;0.0;0.25;0.5;0.5;0.25;0.5;0.0;0.0;-0.199219;0.036621;0.985352;-1.12;2.52;1.26;213.0;-0.26633;-0.065684;5.25;5.25;3.25;3.5;0.75;0.5;0.0;0.5;0.0;1.0;0.5;0.25;0.0;0.0;0.0;0.0;-0.227539;-0.008789;0.983398;-0.63;-0.21;0.63;198.0;-0.278689;-0.056185
2.72;5.75;4.75;3.25;4.0;0.75;1.25;0.0;0.0;0.0;0.25;0.75;0.25;0.25;0.5;0.0;0.25;-0.205078;0.034668;0.98584;-1.19;2.59;1.19;207.0;-0.274177;-0.056679;5.25;5.25;3.5;3.5;0.75;0.5;0.0;0.5;0.25;1.0;0.5;0.25;0.0;0.0;0.0;0.0;-0.231934;-0.007812;0.982422;-0.56;-0.35;0.63;204.0;-0.270669;-0.049512
2.73;5.5;4.5;2.75;3.5;1.0;1.0;0.0;0.25;0.25;0.5;0.5;0.25;0.5;0.25;0.0;0.5;-0.200195;0.036621;0.982422;-1.19;2.59;1.12;200.0;-0.256374;-0.059481;4.5;5.0;3.25;3.5;0.75;0.5;0.0;0.5;0.25;1.0;0.5;0.5;0.0;0.0;0.0;0.0;-0.229492;-0.010254;0.97998;-0.49;-0.28;0.56;195.0;-0.258362;-0.058906
2.74;5.25;4.5;2.75;3.75;1.0;1.0;0.0;0.25;0.25;0.5;0.5;0.5;0.25;0.25;0.0;0.25;-0.197754;0.033203;0.986816;-1.26;2.59;1.19;199.0;-0.25751;-0.060806;4.5;5.0;3.25;3.75;0.75;0.5;0.0;0.5;0.25;0.5;0.5;0.5;0.0;0.0;0.0;0.0;-0.226562;-0.006348;0.980469;-0.28;-0.28;0.63;192.0;-0.271081;-0.064108
2.75;5.25;4.5;2.75;4.0;1.0;1.25;0.0;0.25;0.25;0.5;0.75;0.25;0.0;0.5;0.0;0.0;-0.204102;0.035156;0.986816;-1.19;2.59;1.12;203.0;-0.257989;-0.055504;4.75;5.25;3.25;4.0;1.0;0.5;0.0;0.5;0.25;0.5;0.5;0.75;0.0;0.0;0.0;0.0;-0.231934;-0.013672;0.980469;-0.28;-0.28;0.77;204.0;-0.266849;-0.066323
2.76;5.5;4.5;3.0;4.0;1.0;1.5;0.0;0.5;0.0;0.5;0.5;0.0;0.0;0.25;0.0;0.0;-0.201172;0.037109;0.981934;-1.26;2.38;1.12;204.0;-0.279453;-0.063684;5.0;5.25;3.25;3.5;1.0;1.0;0.0;0.5;0.25;1.0;0.5;0.75;0.0;0.0;0.0;0.0;-0.230469;-0.009766;0.979004;-0.28;-0.14;0.7;211.0;-0.253767;-0.062528
2.77;5.5;4.75;3.25;4.0;1.0;1.5;0.0;0.5;0.0;0.5;0.0;0.25;0.0;0.25;0.0;0.0;-0.203125;0.031738;0.98877;-1.33;2.52;1.19;206.0;-0.286688;-0.064338;4.75;5.0;2.75;3.5;1.0;0.5;0.0;0.5;0.25;0.5;0.5;0.75;0.0;0.0;0.0;0.25;-0.227539;-0.004883;0.984375;-0.42;-0.14;0.77;193.0;-0.260661;-0.066828
2.78;5.5;4.5;2.75;4.0;0.75;1.25;0.0;0.5;0.0;0.75;0.25;0.5;0.0;0.5;0.0;0.0;-0.195801;0.032715;0.986816;-1.26;2.38;1.12;203.0;-0.264711;-0.06567;4.75;5.0;3.0;3.25;1.0;0.25;0.0;0.5;0.0;0.5;0.5;0.75;0.0;0.0;0.0;0.0;-0.233398;-0.008789;0.982422;-0.42;0.07;0.7;187.0;-0.274264;-0.06364
2.79;5.75;4.5;2.75;4.0;1.0;1.25;0.0;0.25;0.0;0.75;0.25;0.25;0.0;0.25;0.0;0.0;-0.199707;0.038086;0.984375;-1.54;2.45;1.12;200.0;-0.28129;-0.055959;5.0;5.0;2.75;3.5;0.75;0.5;0.0;0.75;0.0;0.75;0.5;0.5;0.0;0.0;0.0;0.0;-0.230957;-0.007324;0.984863;-0.35;-0.21;0.77;192.0;-0.271477;-0.071433
2.8;5.75;4.75;3.5;4.0;1.25;1.25;0.0;0.25;0.0;1.0;0.25;0.25;0.25;0.0;0.0;0.0;-0.203125;0.032715;0.984375;-1.54;2.31;1.12;215.0;-0.27658;-0.055053;4.75;4.75;3.0;3.5;0.75;0.5;0.0;0.5;0.25;1.0;0.25;0.5;0.0;0.0;0.25;0.25;-0.228516;-0.01123;0.982422;-0.14;-0.28;0.91;194.0;-0.252013;-0.05887
2.81;5.75;4.75;3.25;4.25;1.25;1.25;0.25;0.25;0.25;0.75;0.5;0.5;0.25;0.25;0.0;0.25;-0.197266;0.035645;0.98877;-1.54;2.24;1.19;227.0;-0.249853;-0.053506;4.75;4.75;3.25;3.5;0.75;0.25;0.0;0.5;0.0;0.75;0.25;0.75;0.0;0.0;0.25;0.25;-0.232422;-0.007812;0.987793;-0.14;-0.35;0.91;191.0;-0.261782;-0.063853
2.82;5.75;4.75;3.25;4.0;1.25;1.25;0.0;0.25;0.0;0.25;0.5;0.5;0.25;0.5;0.0;0.25;-0.200684;0.035645;0.986328;-1.89;2.38;1.05;215.0;-0.266619;-0.061357;4.25;4.75;3.0;3.25;0.75;0.25;0.0;0.5;0.0;0.5;0.5;0.75;0.0;0.0;0.0;0.0;-0.233398;-0.007324;0.986328;-0.0;-0.63;0.84;177.0;-0.271235;-0.068802
2.83;5.75;4.75;3.5;4.0;1.25;1.25;0.0;0.25;0.0;0.0;0.75;0.25;0.25;0.5;0.0;0.5;-0.195801;0.033691;0.989746;-1.75;2.17;1.12;217.0;-0.268414;-0.060404;4.25;4.75;3.0;3.25;0.75;0.5;0.0;0.5;0.0;0.5;0.25;0.75;0.0;0.0;0.0;0.0;-0.231934;-0.005371;0.978516;-0.14;-0.63;0.77;177.0;-0.276277;-0.07103
2.84;5.75;4.75;3.5;4.0;1.25;1.25;0.0;0.25;0.0;0.25;0.75;0.25;0.0;0.5;0.0;0.25;-0.200684;0.034668;0.98584;-1.4;2.17;1.12;216.0;-0.270491;-0.053864;4.75;4.75;2.75;3.5;0.75;0.5;0.0;0.5;0.0;0.5;0.25;0.75;0.0;0.0;0.0;0.25;-0.227539;-0.007812;0.981445;-0.21;-0.63;0.84;183.0;-0.275525;-0.072374
2.85;5.75;4.5;3.5;4.0;1.25;1.25;0.0;0.0;0.0;0.5;1.0;0.25;0.25;0.25;0.0;0.25;-0.199219;0.031738;0.984375;-1.19;2.17;1.26;215.0;-0.26418;-0.052574;4.25;5.0;3.25;3.5;0.75;0.5;0.0;0.5;0.0;0.5;0.5;0.25;0.25;0.0;0.0;0.0;-0.230469;-0.001465;0.982422;-0.28;-0.56;0.91;184.0;-0.279259;-0.070917
2.86;6.0;4.5;3.5;3.75;1.0;1.25;0.0;0.0;0.25;0.5;1.0;0.5;0.5;0.0;0.0;0.25;-0.196777;0.040039;0.985352;-1.12;2.24;1.26;218.0;-0.256727;-0.054158;4.25;4.75;3.25;2.75;0.75;0.5;0.0;0.5;0.0;0.5;0.5;0.25;0.0;0.0;0.0;0.0;-0.225586;-0.004883;0.981445;-0.35;-0.49;0.77;172.0;-0.282408;-0.058514
2.87;6.0;4.75;3.75;4.0;1.25;1.25;0.0;0.5;0.25;0.25;1.0;0.25;0.25;0.0;0.0;0.25;-0.197754;0.036133;0.984863;-0.91;2.24;1.4;228.0;-0.263592;-0.059606;4.25;5.0;3.0;2.75;1.0;0.5;0.0;0.5;0.0;0.75;0.5;0.5;0.0;0.25;0.0;0.0;-0.229004;-0.005371;0.983398;-0.49;-0.35;0.77;181.0;-0.261131;-0.059192
2.88;5.25;4.75;3.5;4.0;1.0;1.25;0.0;0.5;0.25;0.0;0.5;0.25;0.0;0.25;0.0;0.0;-0.199707;0.031738;0.986328;-1.12;2.38;1.4;207.0;-0.279117;-0.061162;4.0;4.5;2.5;3.0;0.75;0.5;0.0;0.5;0.25;1.0;0.25;0.5;0.0;0.0;0.0;0.25;-0.231445;-0.007812;0.986328;-0.49;-0.56;0.77;172.0;-0.251568;-0.063717
2.89;5.25;4.5;2.75;4.0;0.5;1.5;0.0;0.25;0.0;0.5;0.5;0.5;0.25;0.0;0.0;0.0;-0.201172;0.038086;0.990234;-1.05;2.31;1.4;196.0;-0.277113;-0.077339;4.25;4.75;2.5;3.25;0.75;0.75;0.0;0.75;0.0;1.0;0.0;0.5;0.0;0.0;0.0;0.0;-0.231934;-0.003418;0.986328;-0.56;-0.56;0.84;178.0;-0.269232;-0.077456
2.9;5.25;4.75;2.75;4.0;0.5;1.5;0.0;0.25;0.25;0.25;0.25;0.5;0.0;0.0;0.0;0.25;-0.195312;0.040039;0.986328;-0.98;2.24;1.33;195.0;-0.283395;-0.071736;4.25;4.75;2.75;2.75;0.75;0.75;0.0;0.5;0.0;1.25;0.25;0.75;0.0;0.0;0.25;0.0;-0.230469;-0.008301;0.98584;-0.56;-0.42;0.7;182.0;-0.245059;-0.06665
2.91;5.5;4.5;3.25;4.0;0.5;1.25;0.0;0.5;0.0;0.0;0.25;0.5;0.25;0.0;0.0;0.25;-0.19873;0.033203;0.97998;-0.98;2.31;1.33;198.0;-0.289727;-0.078296;4.75;4.5;2.75;3.0;1.0;0.5;0.0;0.5;0.25;0.75;0.5;0.75;0.0;0.0;0.0;0.0;-0.230957;-0.007324;0.977051;-0.42;-0.35;0.84;185.0;-0.254139;-0.056944
2.92;5.5;4.75;3.5;4.0;0.75;1.25;0.0;0.25;0.0;0.5;0.5;0.25;0.25;0.25;0.0;0.5;-0.201172;0.035156;0.987793;-1.05;2.31;1.26;210.0;-0.270758;-0.063993;5.0;4.5;3.25;3.25;1.0;0.5;0.0;0.5;0.25;0.75;0.25;0.75;0.0;0.25;0.0;0.0;-0.227051;-0.004395;0.980469;-0.56;-0.42;0.7;195.0;-0.255897;-0.05018
2.93;5.75;5.0;3.5;4.0;0.75;1.25;0.0;0.25;0.0;0.25;0.25;0.0;0.0;0.5;0.0;0.25;-0.199707;0.034668;0.986816;-1.12;2.45;1.33;206.0;-0.29271;-0.053544;4.25;4.5;3.25;3.0;0.75;0.5;0.0;0.5;0.0;1.0;0.25;0.5;0.0;0.0;0.0;0.25;-0.23584;-0.008789;0.987793;-0.42;-0.35;0.7;179.0;-0.262673;-0.060538
2.94;5.75;4.75;3.5;4.25;0.75;1.5;0.0;0.0;0.0;0.25;0.5;0.0;0.0;0.25;0.0;0.0;-0.196777;0.031738;0.98584;-1.05;2.45;1.33;204.0;-0.299086;-0.052754;4.25;4.75;2.5;3.0;1.0;0.25;0.0;0.5;0.0;0.5;0.5;0.5;0.0;0.0;0.0;0.0;-0.23584;-0.006836;0.981934;-0.35;-0.28;0.84;170.0;-0.275841;-0.0661
2.95;5.75;5.0;3.75;4.25;1.0;1.75;0.0;0.25;0.25;0.5;0.5;0.5;0.0;0.0;0.0;0.25;-0.19873;0.032715;0.986328;-1.05;2.38;1.4;227.0;-0.270577;-0.061599;4.25;4.75;3.25;3.0;0.75;0.25;0.0;0.5;0.25;0.75;0.5;0.75;0.0;0.0;0.0;0.0;-0.233887;-0.000977;0.986816;-0.35;-0.21;0.77;183.0;-0.25562;-0.057098
2.96;6.0;5.25;3.5;4.25;1.0;1.75;0.0;0.25;0.25;0.5;0.5;0.25;0.0;0.25;0.0;0.25;-0.195312;0.033691;0.983398;-1.05;2.17;1.26;228.0;-0.272586;-0.057964;4.5;4.5;3.25;2.75;0.75;0.25;0.0;0.5;0.0;0.75;0.5;0.75;0.0;0.0;0.25;0.25;-0.228516;-0.008789;0.984863;-0.42;-0.28;0.77;181.0;-0.250611;-0.058918
2.97;6.0;5.25;3.25;4.25;1.0;1.75;0.0;0.5;0.0;0.5;0.5;0.25;0.25;0.5;0.0;0.25;-0.200195;0.032715;0.984375;-1.05;2.31;1.4;230.0;-0.265976;-0.070451;4.25;4.5;2.5;3.0;0.75;0.25;0.0;0.5;0.0;0.75;0.0;0.5;0.0;0.0;0.0;0.25;-0.23291;-0.005371;0.980957;-0.49;-0.28;0.7;164.0;-0.278654;-0.065312
2.98;6.0;5.5;3.5;4.25;0.75;1.75;0.0;0.25;0.25;0.75;0.0;0.25;0.25;0.25;0.0;0.5;-0.201172;0.033691;0.990723;-0.98;2.52;1.33;229.0;-0.273319;-0.062701;4.25;4.5;2.5;2.75;0.75;0.5;0.0;0.5;0.0;0.75;0.25;0.5;0.0;0.0;0.0;0.25;-0.23291;-0.008301;0.983887;-0.35;-0.14;0.77;166.0;-0.269364;-0.066738
2.99;6.0;5.25;3.5;4.25;0.75;1.75;0.0;0.25;0.0;0.5;0.0;0.0;0.5;0.25;0.0;0.25;-0.197266;0.035645;0.980469;-1.05;2.38;1.33;220.0;-0.289609;-0.067309;4.0;4.5;2.5;2.75;0.75;0.5;0.0;0.5;0.0;1.25;0.5;0.5;0.0;0.0;0.25;0.25;-0.231934;-0.007324;0.983887;-0.42;-0.07;0.7;173.0;-0.237307;-0.066446
3.0;6.0;5.25;3.0;4.5;1.0;1.75;0.0;0.5;0.0;0.5;0.5;0.25;0.0;0.25;0.0;0.0;-0.200684;0.039062;0.983887;-0.98;2.31;1.4;225.0;-0.279443;-0.071322;3.75;4.5;2.25;3.0;0.75;0.5;0.0;0.5;0.0;0.75;0.5;0.75;0.0;0.0;0.25;0.25;-0.233887;-0.000488;0.981445;-0.35;-0.14;0.63;169.0;-0.242383;-0.080568
3.01;6.0;5.25;3.25;4.25;0.75;2.0;0.0;0.25;0.0;0.5;0.25;0.5;0.5;0.0;0.0;0.25;-0.198242;0.030762;0.989746;-1.05;2.45;1.4;225.0;-0.278266;-0.078902;4.0;4.5;2.5;2.25;1.0;0.5;0.0;0.5;0.25;0.5;0.25;0.75;0.0;0.0;0.0;0.25;-0.23291;-0.006836;0.980469;-0.35;-0.14;0.84;164.0;-0.255463;-0.061527
3.02;6.0;5.5;3.5;4.5;0.75;2.0;0.0;0.25;0.0;0.25;0.25;0.5;0.5;0.0;0.0;0.25;-0.19873;0.036133;0.984375;-1.05;2.17;1.4;230.0;-0.284863;-0.080905;4.0;4.5;2.5;2.25;1.0;0.5;0.0;0.5;0.25;0.75;0.25;0.75;0.0;0.0;0.0;0.25;-0.224121;-0.008789;0.983398;-0.35;-0.07;0.77;167.0;-0.248394;-0.059739
3.03;6.0;5.25;3.75;4.5;0.75;1.5;0.0;0.25;0.0;0.25;0.5;0.25;0.25;0.25;0.0;0.0;-0.195801;0.031738;0.988281;-1.12;2.24;1.26;224.0;-0.287781;-0.065012;4.0;4.5;2.5;2.25;1.0;0.5;0.0;0.5;0.0;0.75;0.5;0.5;0.0;0.0;0.25;0.25;-0.233398;-0.008789;0.983887;-0.35;-0.35;0.7;166.0;-0.24777;-0.063464
3.04;6.0;5.5;3.75;4.5;1.0;1.5;0.0;0.5;0.0;0.5;0.5;0.0;0.25;0.25;0.0;0.0;-0.196777;0.036133;0.987793;-0.98;2.03;1.26;232.0;-0.282818;-0.065739;4.0;4.5;2.5;2.25;1.0;0.25;0.0;0.5;0.0;0.75;0.5;0.75;0.0;0.0;0.0;0.25;-0.233887;-0.003418;0.979492;-0.35;-0.07;0.77;164.0;-0.252146;-0.063428
3.05;6.0;5.25;3.5;4.5;1.0;1.5;0.0;0.5;0.0;0.75;0.5;0.0;0.25;0.0;0.0;0.0;-0.19873;0.03418;0.981934;-0.91;2.03;1.26;228.0;-0.282272;-0.067282;4.0;4.0;2.5;2.0;0.75;0.0;0.0;0.5;0.25;1.25;0.5;0.25;0.0;0.0;0.0;0.25;-0.227539;-0.007324;0.98584;-0.21;0.0;0.84;155.0;-0.240188;-0.039015
3.06;6.75;5.75;4.25;4.75;1.0;2.0;0.25;0.5;0.0;1.0;0.0;0.5;0.5;0.25;0.0;0.25;-0.200195;0.040039;0.98584;-0.63;1.89;1.33;265.0;-0.264012;-0.065312;4.0;4.0;2.25;2.0;0.75;0.0;0.0;0.5;0.0;0.75;0.5;0.25;0.0;0.0;0.0;0.5;-0.234863;-0.007324;0.984375;-0.07;0.21;0.7;146.0;-0.260461;-0.053394
3.07;6.75;5.75;4.0;5.0;1.0;2.25;0.25;0.5;0.0;0.75;0.25;0.5;0.25;0.25;0.0;0.25;-0.200195;0.037109;0.98877;-0.56;2.1;1.4;266.0;-0.266528;-0.068885;3.75;4.25;2.5;2.0;0.75;0.25;0.0;0.5;0.25;0.5;0.5;0.5;0.0;0.0;0.25;0.5;-0.231445;-0.009766;0.988281;0.07;0.14;0.7;156.0;-0.238894;-0.058233
3.08;7.0;5.75;3.75;5.0;1.25;1.5;0.25;0.5;0.0;0.75;0.25;0.5;0.0;0.0;0.0;0.0;-0.200195;0.035156;0.987793;-0.63;2.1;1.47;255.0;-0.281421;-0.059198;3.75;4.25;2.5;1.75;0.75;0.5;0.0;0.5;0.25;0.5;0.5;0.5;0.0;0.25;0.25;0.5;-0.230957;-0.006836;0.983887;0.14;0.21;0.63;158.0;-0.22871;-0.056053
3.09;6.75;5.75;3.75;5.0;1.25;1.5;0.25;0.0;0.0;0.5;0.5;0.25;0.25;0.0;0.0;0.0;-0.195801;0.032715;0.987305;-0.56;2.03;1.4;246.0;-0.289132;-0.054092;2.75;4.25;1.5;2.0;0.75;0.25;0.0;0.5;0.0;0.75;0.5;0.0;0.0;0.0;0.25;0.25;-0.234375;-0.005371;0.986816;0.28;0.21;0.63;130.0;-0.249876;-0.076183
3.1;7.25;6.0;4.0;5.0;1.25;1.75;0.0;0.25;0.0;0.75;0.5;0.25;0.25;0.5;0.0;0.25;-0.192383;0.037598;0.983887;-0.77;1.96;1.47;265.0;-0.273749;-0.057824;2.75;3.5;1.0;1.5;0.75;0.0;0.0;0.5;0.0;0.75;0.5;0.0;0.0;0.25;0.25;0.5;-0.229004;0.009766;0.984375;0.35;0.49;0.56;114.0;-0.222381;-0.066027
3.11;7.0;6.0;4.0;5.0;1.0;1.5;0.0;0.5;0.0;0.25;0.5;0.25;0.5;0.25;0.0;0.25;-0.198242;0.039551;0.981934;-0.91;1.96;1.47;256.0;-0.282958;-0.070162;2.5;4.0;1.25;1.5;0.5;0.0;0.0;0.5;0.0;0.25;0.25;0.25;0.0;0.5;0.5;0.25;-0.227051;-0.009277;0.987305;0.35;0.91;0.42;114.0;-0.230649;-0.075351
3.12;7.0;6.25;4.25;5.25;0.75;1.5;0.0;0.25;0.0;0.0;0.25;0.5;0.25;0.0;0.0;0.25;-0.20459;0.03418;0.98584;-0.98;1.89;1.47;251.0;-0.30333;-0.069572;2.5;2.75;1.5;1.5;0.5;0.0;0.0;0.5;0.0;0.5;0.5;0.5;0.0;0.5;0.25;0.25;-0.23584;-0.004883;0.986328;0.35;0.77;0.28;111.0;-0.198219;-0.065495
3.13;7.0;6.25;4.0;5.5;1.0;2.0;0.0;0.25;0.0;0.25;0.25;0.25;0.25;0.0;0.0;0.0;-0.200684;0.033691;0.989258;-1.19;2.03;1.33;257.0;-0.301899;-0.070777;2.5;2.0;1.25;1.0;0.5;0.25;0.0;0.5;0.0;0.5;0.5;0.5;0.0;0.5;0.0;0.5;-0.236328;0.006348;0.980957;0.35;0.56;0.35;99.0;-0.184529;-0.062912
3.14;7.0;6.5;4.25;5.5;1.0;2.75;0.0;0.5;0.25;0.5;0.25;0.25;0.0;0.25;0.0;0.25;-0.197266;0.031738;0.98584;-1.19;1.89;1.47;280.0;-0.279662;-0.071142;2.0;2.5;1.25;1.0;0.5;0.0;0.0;0.25;0.25;0.25;0.25;0.5;0.0;0.5;0.25;0.5;-0.229492;-0.002441;0.988281;0.91;0.35;0.42;93.0;-0.183075;-0.0499
3.15;7.25;6.75;4.0;5.5;1.0;2.5;0.0;0.25;0.0;0.5;0.0;0.5;0.0;0.25;0.0;0.25;-0.197266;0.029785;0.989258;-1.19;1.89;1.54;273.0;-0.292494;-0.071271;1.5;2.5;1.0;1.0;0.75;0.0;0.0;0.25;0.25;0.25;0.25;0.25;0.0;0.25;0.25;0.75;-0.231934;-0.004395;0.98291;1.4;0.14;0.49;85.0;-0.183453;-0.061788
3.16;7.25;6.75;4.5;6.0;1.25;3.0;0.0;0.25;0.0;0.5;0.25;0.5;0.25;0.25;0.0;0.25;-0.196777;0.039551;0.988281;-1.26;1.96;1.54;295.0;-0.28081;-0.076384;1.75;2.25;1.0;1.0;0.25;0.0;0.0;0.5;0.25;0.0;0.25;0.5;0.0;0.0;0.5;0.75;-0.237793;0.007812;0.980469;1.4;0.07;0.49;84.0;-0.177809;-0.091806
3.17;7.25;6.75;4.25;6.0;1.25;2.75;0.25;0.5;0.0;0.5;0.5;0.25;0.5;0.25;0.0;0.25;-0.195801;0.032715;0.990723;-1.26;1.96;1.61;299.0;-0.271561;-0.077231;2.25;1.5;1.25;1.25;0.0;0.25;0.0;0.5;0.0;0.25;0.0;0.25;0.0;0.0;0.25;0.75;-0.215332;0.009766;0.992188;1.33;0.21;0.42;80.0;-0.224825;-0.085359
3.18;7.25;6.75;4.75;6.0;1.25;2.5;0.25;0.5;0.0;0.5;0.25;0.25;0.5;0.0;0.0;0.25;-0.194336;0.03418;0.987305;-1.47;2.31;1.47;297.0;-0.28097;-0.074091;2.0;1.5;1.25;1.0;0.25;0.0;0.0;0.5;0.0;0.25;0.5;0.25;0.0;0.0;0.25;1.0;-0.225098;-0.001465;0.983887;1.33;0.14;0.42;81.0;-0.181043;-0.081721
3.19;7.25;6.75;5.0;6.0;1.25;2.75;0.25;0.5;0.0;0.5;0.5;0.5;0.5;0.25;0.0;0.25;-0.196289;0.038086;0.987793;-1.4;2.1;1.47;309.0;-0.26765;-0.074806;1.25;1.75;1.5;0.5;0.25;0.0;0.0;0.5;0.0;0.0;0.25;0.5;0.0;0.25;0.5;1.0;-0.232422;-0.004883;0.976074;0.84;0.14;0.49;75.0;-0.141977;-0.090363
3.2;7.5;6.75;4.75;6.0;1.25;3.0;0.25;0.5;0.0;0.5;0.5;0.25;0.5;0.25;0.0;0.25;-0.197266;0.033203;0.988281;-1.33;2.38;1.54;308.0;-0.271509;-0.074625;1.75;1.25;1.75;0.5;0.0;0.0;0.0;0.25;0.0;0.25;0.0;0.5;0.0;0.25;0.75;1.0;-0.235352;-0.002441;0.972656;0.21;0.0;0.63;75.0;-0.13575;-0.052489
3.21;7.5;6.75;4.75;6.0;1.25;2.25;0.0;0.5;0.0;0.5;0.5;0.25;0.25;0.25;0.0;0.0;-0.194336;0.036133;0.983887;-1.4;2.38;1.47;294.0;-0.284372;-0.069717;0.75;1.75;1.75;0.5;0.0;0.25;0.0;0.25;0.25;0.25;0.0;0.0;0.0;0.25;0.75;1.0;-0.234375;-0.003906;0.974609;-0.0;0.0;0.42;70.0;-0.124062;-0.05822
3.22;7.25;6.75;4.5;6.0;1.25;2.25;0.0;0.5;0.0;0.5;0.75;0.25;0.0;0.5;0.0;0.0;-0.199707;0.042969;0.98291;-1.33;2.38;1.54;292.0;-0.277821;-0.068602;0.5;1.75;1.0;0.5;0.25;0.0;0.0;0.5;0.0;0.5;0.25;0.25;0.0;0.25;0.75;1.0;-0.240723;-0.002441;0.98584;-0.35;0.0;0.63;68.0;-0.071514;-0.106313
3.23;7.25;6.5;4.5;6.0;1.25;2.25;0.25;0.5;0.0;0.5;0.5;0.0;0.25;0.25;0.0;0.0;-0.195801;0.041016;0.990234;-1.33;2.31;1.54;288.0;-0.28232;-0.066221;0.5;1.5;0.75;1.0;0.5;0.0;0.0;0.5;0.0;0.25;0.0;0.25;0.0;0.25;0.5;1.0;-0.231934;-0.006836;0.98584;-0.35;-0.21;0.7;64.0;-0.112511;-0.121836
3.24;7.25;6.75;4.25;6.0;1.25;2.25;0.0;0.5;0.0;0.75;0.5;0.5;0.25;0.0;0.0;0.25;-0.195312;0.031738;0.986816;-1.47;2.59;1.54;291.0;-0.277258;-0.077449;0.75;1.75;1.0;0.5;0.25;0.0;0.0;0.0;0.0;0.25;0.25;0.25;0.0;0.25;0.75;1.0;-0.238281;-0.005859;0.984863;-0.07;-0.28;0.84;61.0;-0.103325;-0.072034
3.25;7.0;6.5;4.0;6.0;1.0;2.25;0.0;0.5;0.25;0.5;0.75;0.5;0.5;0.25;0.0;0.25;-0.19873;0.038086;0.987305;-1.4;2.45;1.54;288.0;-0.263426;-0.07978;1.0;1.75;0.75;0.25;0.25;0.0;0.0;0.25;0.0;0.5;0.0;0.5;0.0;0.0;0.5;1.0;-0.231445;-0.00293;0.982422;0.21;-0.56;1.12;60.0;-0.119654;-0.093548
3.26;7.0;6.5;4.25;6.0;1.0;2.25;0.0;0.5;0.25;0.5;0.25;0.5;0.0;0.25;0.0;0.25;-0.192383;0.033691;0.987305;-1.4;2.59;1.47;282.0;-0.277868;-0.072238;1.25;1.75;0.75;0.5;0.25;0.0;0.0;0.5;0.0;0.5;0.25;0.0;0.0;0.0;0.25;1.0;-0.231934;-0.005371;0.984375;0.14;-0.7;1.33;63.0;-0.163098;-0.093445
3.27;7.0;6.5;4.0;6.0;1.0;2.75;0.0;0.5;0.0;0.5;0.0;0.25;0.0;0.0;0.0;0.5;-0.193359;0.035645;0.985352;-1.4;2.66;1.4;276.0;-0.292134;-0.081634;1.25;1.75;1.0;0.5;0.0;0.0;0.0;0.25;0.0;0.25;0.25;0.0;0.0;0.0;0.25;1.0;-0.233398;0.000488;0.980469;0.07;-0.84;1.12;57.0;-0.195132;-0.080549
3.28;7.0;6.5;4.0;6.0;1.25;2.5;0.0;0.5;0.0;0.25;0.25;0.5;0.25;0.25;0.0;0.25;-0.197754;0.034668;0.988281;-1.19;2.52;1.4;281.0;-0.282405;-0.081889;1.25;1.75;1.0;1.0;0.0;0.0;0.0;0.5;0.0;0.25;0.25;0.0;0.0;0.0;0.5;1.0;-0.233398;-0.001465;0.978516;-0.21;-0.84;1.05;68.0;-0.171338;-0.107029
3.29;7.0;6.5;4.25;6.0;1.0;2.5;0.0;0.5;0.0;0.0;0.25;0.5;0.0;0.25;0.0;0.0;-0.203613;0.037109;0.980957;-1.26;2.73;1.33;276.0;-0.294374;-0.079069;1.75;2.0;1.25;1.0;0.0;0.25;0.0;0.5;0.0;0.25;0.25;0.0;0.0;0.0;0.75;1.0;-0.23291;-0.001953;0.980957;-0.49;-1.05;1.05;83.0;-0.176299;-0.094374
3.3;7.0;6.5;4.0;5.5;1.25;2.75;0.0;0.5;0.0;0.5;0.5;0.5;0.0;0.0;0.0;0.25;-0.199219;0.032227;0.984375;-1.12;2.59;1.26;279.0;-0.280429;-0.079177;2.25;2.5;1.5;0.75;0.25;0.0;0.0;0.5;0.0;0.25;0.25;0.5;0.0;0.0;0.5;1.0;-0.232422;-0.000977;0.981934;-0.77;-0.84;0.91;94.0;-0.192424;-0.080651
3.31;7.0;6.5;4.0;5.5;1.25;2.0;0.0;0.5;0.0;0.0;0.25;0.5;0.25;0.0;0.0;0.0;-0.195801;0.037598;0.985352;-1.05;2.73;1.26;266.0;-0.29756;-0.077734;0.75;2.5;1.75;1.0;0.25;0.0;0.0;0.5;0.0;0.25;0.25;0.5;0.25;0.0;0.5;1.0;-0.228516;-0.002441;0.989258;-1.4;-1.12;0.84;87.0;-0.15457;-0.119514
3.32;7.0;6.5;4.5;5.5;1.25;2.0;0.25;0.5;0.5;0.0;0.5;0.25;0.25;0.0;0.0;0.0;-0.195801;0.036133;0.983887;-1.26;2.87;1.33;280.0;-0.280332;-0.061633;0.75;2.75;1.75;1.25;0.5;0.25;0.0;0.5;0.0;0.25;0.5;0.5;0.25;0.0;0.75;0.75;-0.231934;-0.003906;0.986328;-1.54;-1.26;0.63;100.0;-0.146388;-0.119007
3.33;6.5;6.25;4.0;5.5;1.25;2.0;0.0;0.5;0.25;0.0;0.5;0.25;0.25;0.25;0.0;0.25;-0.196289;0.034668;0.98291;-1.26;2.66;1.12;265.0;-0.280017;-0.073979;1.25;3.5;1.75;1.25;0.75;0.0;0.0;0.5;0.0;0.5;0.5;0.5;0.0;0.0;0.5;0.5;-0.233887;0.000977;0.982422;-1.61;-1.26;0.56;108.0;-0.188413;-0.092235
3.34;7.0;6.25;3.75;5.5;1.25;2.25;0.0;0.5;0.0;0.25;0.25;0.25;0.5;0.25;0.0;0.25;-0.199219;0.033203;0.984375;-1.26;2.73;1.26;269.0;-0.283688;-0.079315;1.75;3.0;1.5;1.25;0.5;0.0;0.0;0.5;0.0;0.25;0.5;0.25;0.25;0.0;0.5;0.75;-0.230469;-0.000977;0.982422;-1.96;-1.33;0.56;102.0;-0.194288;-0.096947
3.35;7.0;6.25;4.0;6.0;1.25;2.5;0.0;0.5;0.25;0.5;0.5;0.25;0.5;0.25;0.0;0.25;-0.195801;0.03418;0.987305;-1.26;2.94;1.19;286.0;-0.268196;-0.077465;1.75;3.0;1.5;1.5;0.75;0.0;0.0;0.5;0.0;0.25;0.5;0.25;0.25;0.25;0.5;0.5;-0.234375;-0.001953;0.981934;-2.17;-1.26;0.63;108.0;-0.190274;-0.088734
3.36;7.0;6.0;4.25;5.5;1.25;2.5;0.25;0.5;0.25;0.25;0.25;0.25;0.5;0.25;0.0;0.25;-0.193359;0.037598;0.98584;-1.12;3.01;1.12;281.0;-0.270909;-0.06954;1.5;3.0;1.75;1.5;0.75;0.0;0.0;0.5;0.0;0.5;0.5;0.0;0.25;0.25;0.5;0.5;-0.231934;-0.003418;0.984375;-2.03;-1.12;0.49;108.0;-0.186805;-0.08085
3.37;6.75;6.0;3.75;5.25;0.75;2.25;0.0;0.5;0.0;0.5;0.25;0.5;0.5;0.0;0.0;0.25;-0.19873;0.031738;0.986816;-1.33;2.94;1.05;259.0;-0.280394;-0.084276;1.75;3.5;1.75;1.5;0.25;0.25;0.0;0.5;0.25;0.75;0.5;0.25;0.25;0.25;0.5;0.5;-0.230469;-0.000977;0.978516;-1.75;-1.05;0.49;119.0;-0.173462;-0.08263
3.38;6.75;6.0;3.75;4.75;0.75;2.0;0.0;0.5;0.0;0.75;0.5;0.25;0.25;0.25;0.0;0.25;-0.200195;0.036621;0.97998;-1.26;3.01;0.98;254.0;-0.274721;-0.07159;2.5;3.5;1.75;1.75;0.25;0.25;0.0;0.5;0.0;0.25;0.25;0.25;0.25;0.5;0.75;0.5;-0.23291;-0.004883;0.981934;-2.03;-1.47;0.63;123.0;-0.202517;-0.084037
3.39;6.25;6.0;3.75;5.0;0.75;2.0;0.25;0.5;0.0;0.5;0.25;0.0;0.25;0.5;0.0;0.5;-0.198242;0.041016;0.983398;-1.26;2.94;0.91;252.0;-0.273298;-0.070138;2.25;3.5;1.75;1.75;0.5;0.25;0.0;0.5;0.0;0.25;0.0;0.5;0.0;0.5;0.5;0.75;-0.230957;0.0;0.981934;-1.61;-0.98;0.7;120.0;-0.209785;-0.084565
3.4;6.0;6.0;3.75;4.75;0.75;2.25;0.25;0.5;0.25;0.5;0.0;0.25;0.25;0.5;0.0;0.5;-0.202637;0.03418;0.986816;-1.33;2.66;0.98;252.0;-0.264575;-0.069914;2.5;4.25;1.75;1.5;0.75;0.25;0.0;0.5;0.0;0.5;0.25;0.5;0.25;0.5;0.75;0.75;-0.230469;-0.004883;0.986328;-1.47;-0.98;0.77;138.0;-0.188055;-0.08317
3.41;6.0;5.75;3.25;4.75;1.0;2.25;0.25;0.5;0.25;0.5;0.5;0.5;0.25;0.5;0.0;0.5;-0.202637;0.034668;0.986328;-1.19;2.66;1.05;255.0;-0.248215;-0.074019;2.75;4.25;1.75;1.75;0.25;0.25;0.0;0.5;0.0;0.5;0.25;0.75;0.25;0.25;0.25;0.75;-0.233887;-0.007324;0.980469;-1.54;-0.98;0.77;134.0;-0.219202;-0.095535
3.42;6.0;5.75;3.75;4.5;0.75;2.0;0.25;0.5;0.0;0.5;0.25;0.5;0.0;0.25;0.0;0.5;-0.200684;0.028809;0.989746;-1.12;2.66;0.91;243.0;-0.270052;-0.071112;2.75;4.25;1.75;2.0;0.25;0.5;0.0;0.5;0.25;0.5;0.25;0.25;0.25;0.0;0.0;0.75;-0.236328;-0.007812;0.987793;-1.33;-0.91;0.77;132.0;-0.244824;-0.089943
3.43;6.0;5.5;3.75;4.5;0.75;1.75;0.0;0.5;0.0;0.5;0.25;0.5;0.0;0.25;0.0;0.5;-0.195312;0.033203;0.983398;-0.98;2.59;0.98;235.0;-0.275187;-0.072779;2.75;4.25;1.75;2.0;0.75;0.25;0.0;0.5;0.0;0.25;0.5;0.25;0.25;0.5;0.25;0.75;-0.235352;-0.006348;0.987793;-1.19;-0.77;0.7;138.0;-0.223254;-0.084448
3.44;6.25;5.5;2.75;5.0;0.75;2.0;0.25;0.75;0.25;0.75;0.5;0.75;0.25;0.5;0.0;0.25;-0.199219;0.040039;0.98584;-0.84;2.66;1.05;254.0;-0.241315;-0.079692;3.75;4.5;1.75;2.0;0.25;0.25;0.0;0.5;0.0;0.5;0.5;0.5;0.0;0.5;0.25;0.75;-0.22998;-0.002441;0.981934;-1.19;-0.77;0.7;148.0;-0.231655;-0.074146
3.45;6.25;5.75;3.5;5.0;0.75;2.5;0.25;0.75;0.5;0.75;0.5;0.25;0.5;0.5;0.0;0.25;-0.195801;0.033691;0.980469;-0.84;2.66;1.12;269.0;-0.241227;-0.074155;3.5;4.25;2.0;2.0;0.25;0.25;0.0;0.5;0.0;0.5;0.5;0.5;0.0;0.25;0.25;0.5;-0.234375;-0.004395;0.98291;-0.98;-0.63;0.84;143.0;-0.240689;-0.074251
3.46;6.25;5.5;3.5;4.75;0.75;2.25;0.25;0.5;0.25;1.0;0.5;0.5;0.25;0.25;0.0;0.25;-0.199707;0.030762;0.987305;-0.77;2.66;1.19;257.0;-0.248571;-0.069468;3.25;4.25;1.75;1.0;0.5;0.25;0.0;0.5;0.25;0.25;0.5;0.75;0.25;0.0;0.25;0.5;-0.22998;-0.003906;0.982422;-1.12;-0.63;0.77;133.0;-0.22433;-0.074873
3.47;6.0;5.25;3.5;5.0;0.75;2.25;0.0;0.5;0.0;0.25;0.75;0.75;0.5;0.0;0.0;0.5;-0.20166;0.037598;0.990723;-0.7;2.8;1.26;247.0;-0.260636;-0.093361;2.5;3.75;1.75;1.0;0.75;0.5;0.0;0.5;0.0;0.5;0.5;0.5;0.0;0.25;0.25;0.75;-0.231934;0.000488;0.985352;-1.12;-0.42;0.84;125.0;-0.205796;-0.077169
3.48;5.5;5.5;3.5;4.5;1.0;2.25;0.0;0.5;0.25;0.25;0.75;0.75;0.5;0.25;0.0;0.5;-0.200684;0.033691;0.98877;-0.7;2.8;1.12;247.0;-0.245713;-0.087012;3.5;3.5;1.75;1.25;0.25;0.25;0.0;0.5;0.0;0.5;0.75;0.75;0.0;0.25;0.25;0.5;-0.230469;-0.001953;0.981445;-0.84;-0.35;0.91;131.0;-0.212221;-0.069195
3.49;5.75;5.25;3.75;4.25;1.0;2.5;0.25;0.75;0.0;0.5;0.75;0.5;0.5;0.5;0.0;0.25;-0.202148;0.034668;0.987305;-0.84;2.94;1.12;254.0;-0.240579;-0.08059;4.0;3.5;1.75;1.5;0.5;0.25;0.0;0.5;0.25;0.0;0.25;0.75;0.25;0.25;0.25;0.5;-0.233887;-0.003906;0.986816;-0.56;-0.28;0.98;136.0;-0.233975;-0.06467
3.5;5.75;5.0;3.5;4.25;0.5;2.25;0.0;0.5;0.25;0.75;0.75;0.5;0.5;0.25;0.0;0.0;-0.203125;0.040527;0.987793;-0.63;3.01;1.12;237.0;-0.247621;-0.077809;3.5;3.5;1.75;2.0;0.75;0.25;0.0;0.5;0.0;0.25;0.25;0.5;0.25;0.25;0.25;0.5;-0.230957;-0.002441;0.983887;-0.7;-0.14;0.84;136.0;-0.238407;-0.075411
3.51;5.25;4.75;2.75;4.25;0.75;2.25;0.0;1.25;0.5;0.5;1.0;0.5;0.5;0.0;0.0;0.25;-0.196777;0.035156;0.98584;-0.84;2.87;1.05;238.0;-0.22686;-0.099105;3.25;4.25;1.75;1.0;0.75;0.25;0.0;0.5;0.0;0.5;0.5;0.75;0.0;0.25;0.5;0.5;-0.229004;-0.000488;0.984375;-0.56;-0.07;0.84;137.0;-0.210519;-0.068519
3.52;5.25;4.75;2.5;4.25;0.75;2.0;0.0;0.5;0.5;0.25;0.75;0.5;0.5;0.0;0.0;0.25;-0.198242;0.036621;0.986816;-1.12;2.87;0.98;218.0;-0.24761;-0.08691;3.75;3.5;1.75;1.0;0.5;0.25;0.0;0.5;0.0;0.25;0.5;0.75;0.0;0.0;0.25;0.5;-0.231934;-0.001465;0.98584;-0.7;-0.07;0.77;127.0;-0.238991;-0.065618
3.53;5.25;4.5;2.75;4.25;0.75;2.0;0.25;0.5;0.25;0.25;0.75;0.75;0.25;0.25;0.0;0.25;-0.197754;0.036621;0.990723;-1.12;2.87;1.05;221.0;-0.240807;-0.080379;2.75;4.25;2.0;1.0;0.75;0.5;0.0;0.5;0.0;0.25;0.25;0.25;0.0;0.0;0.5;0.5;-0.23877;0.000488;0.982422;-0.77;0.0;0.7;126.0;-0.245703;-0.072729
3.54;5.25;4.75;3.0;4.25;0.75;2.0;0.0;0.5;0.0;0.5;0.5;0.25;0.25;0.5;0.0;0.25;-0.20166;0.036621;0.990234;-1.05;2.66;1.05;216.0;-0.258868;-0.080214;2.5;3.75;1.75;1.5;0.75;0.25;0.0;0.5;0.25;0.25;0.25;0.25;0.0;0.5;0.25;0.25;-0.23584;-0.002441;0.984863;-0.77;-0.14;0.77;123.0;-0.225842;-0.059508
3.55;5.0;4.5;2.75;4.0;0.75;2.0;0.0;0.5;0.0;0.75;0.5;0.25;0.25;0.25;0.0;0.5;-0.205078;0.03418;0.991211;-1.12;2.87;1.05;209.0;-0.252093;-0.083994;3.25;4.0;1.75;1.5;0.75;0.25;0.0;0.5;0.0;0.25;0.0;0.25;0.0;0.5;0.0;0.25;-0.236328;-0.004883;0.982422;-0.84;-0.28;0.91;124.0;-0.271836;-0.058206
3.56;5.0;4.75;2.75;4.5;0.75;2.0;0.0;0.5;0.25;0.75;0.75;0.5;0.5;0.0;0.0;0.5;-0.199219;0.034668;0.991211;-0.91;2.38;1.12;224.0;-0.239578;-0.091412;3.5;4.25;1.5;1.5;0.75;0.5;0.0;0.5;0.0;0.25;0.0;0.5;0.25;0.5;0.25;0.5;-0.236328;-0.007324;0.980469;-0.98;-0.35;0.84;137.0;-0.241595;-0.076462
3.57;5.25;5.0;3.75;4.25;0.75;2.25;0.0;0.5;0.25;0.75;0.5;1.0;0.5;0.25;0.0;0.5;-0.196289;0.034668;0.987793;-1.05;2.66;1.12;243.0;-0.232829;-0.084635;3.75;2.75;1.25;1.5;0.5;0.5;0.0;0.75;0.0;0.5;0.5;0.75;0.25;0.5;0.25;0.5;-0.227539;-0.003906;0.983398;-1.12;-0.35;0.77;134.0;-0.190539;-0.081503
3.58;5.25;4.5;3.5;4.25;1.0;1.5;0.25;0.5;0.0;0.75;0.0;1.0;0.5;0.25;0.0;0.5;-0.20166;0.041016;0.994141;-1.12;2.52;1.12;227.0;-0.241847;-0.076309;2.75;3.0;1.25;1.5;0.5;0.5;0.0;0.75;0.0;0.5;0.5;0.5;0.25;0.5;0.25;0.25;-0.23584;-0.003418;0.983887;-1.19;-0.35;0.84;123.0;-0.191457;-0.091015
3.59;5.25;4.5;3.0;4.25;0.5;2.0;0.25;0.5;0.25;1.0;0.25;1.0;0.5;0.25;0.0;0.5;-0.200684;0.035156;0.991211;-0.98;2.59;1.12;229.0;-0.225534;-0.081661;2.75;3.0;1.5;2.0;0.5;0.5;0.0;0.75;0.25;0.5;0.5;0.75;0.25;0.25;0.5;0.5;-0.237793;-0.007812;0.986816;-1.12;-0.42;0.77;138.0;-0.172704;-0.093855
3.6;5.25;4.5;2.75;4.0;0.5;1.25;0.25;0.5;0.25;1.0;0.5;0.75;0.5;0.25;0.0;0.5;-0.203125;0.038086;0.984375;-1.19;2.52;1.26;217.0;-0.226722;-0.073426;3.25;4.25;1.75;2.0;0.75;0.25;0.0;0.75;0.0;0.25;0.5;0.75;0.0;0.5;0.5;0.5;-0.233887;-0.002441;0.982422;-1.26;-0.49;0.7;151.0;-0.21012;-0.085302
3.61;5.5;4.75;3.25;4.25;0.5;1.5;0.25;0.5;0.5;1.0;0.5;0.75;0.5;0.25;0.0;0.5;-0.200684;0.038086;0.985352;-1.19;2.45;1.26;234.0;-0.224746;-0.068167;3.25;4.25;2.0;2.0;0.75;0.25;0.0;0.5;0.0;0.5;0.25;0.75;0.0;0.5;0.75;0.75;-0.231934;-0.006348;0.983398;-1.19;-0.7;0.77;153.0;-0.200973;-0.074461
3.62;5.25;4.75;3.5;4.25;0.75;2.0;0.25;0.5;0.25;0.5;0.5;1.0;0.5;0.25;0.25;0.5;-0.199707;0.034668;0.986328;-1.19;2.59;1.12;239.0;-0.225376;-0.080496;2.75;3.0;1.75;1.5;0.75;0.5;0.0;0.5;0.0;0.75;0.5;0.75;0.25;0.5;0.25;0.5;-0.230957;-0.003906;0.984863;-1.12;-0.56;0.84;134.0;-0.17763;-0.076455
3.63;5.25;4.5;3.5;4.25;1.25;2.75;0.0;0.75;0.0;0.5;0.5;1.25;0.25;0.25;0.0;0.5;-0.192871;0.035156;0.989746;-1.26;2.59;1.12;244.0;-0.23185;-0.095098;3.5;4.25;1.75;1.5;0.75;0.5;0.0;0.75;0.25;0.5;0.25;0.75;0.25;0.75;0.25;0.5;-0.226562;-0.005371;0.983398;-0.98;-0.7;0.77;155.0;-0.197332;-0.072695
3.64;5.0;4.75;3.5;4.0;0.75;2.0;0.0;0.75;0.25;0.5;0.75;0.5;0.0;0.25;0.0;0.25;-0.199219;0.037109;0.98877;-1.26;2.59;1.26;224.0;-0.245901;-0.07838;4.0;4.25;2.0;2.0;0.75;0.5;0.0;0.75;0.0;0.5;0.25;0.75;0.25;0.75;0.25;0.5;-0.230957;-0.003906;0.980957;-1.05;-0.77;0.84;164.0;-0.215354;-0.075917
3.65;5.25;4.5;2.75;4.25;0.5;2.0;0.0;0.75;0.0;0.75;0.25;0.0;0.25;0.0;0.25;0.25;-0.197754;0.033203;0.985352;-1.26;2.59;1.26;209.0;-0.264833;-0.088616;3.25;4.25;2.5;2.0;0.75;0.5;0.0;0.5;0.0;0.75;0.25;0.75;0.25;0.5;0.25;0.5;-0.238281;-0.003418;0.989258;-0.84;-0.63;0.77;159.0;-0.213902;-0.072984
3.66;5.25;4.25;3.25;4.25;0.5;2.0;0.0;0.75;0.0;0.75;0.25;0.25;0.5;0.25;0.25;0.5;-0.195312;0.038574;0.980469;-1.05;2.66;1.33;219.0;-0.244645;-0.088309;2.5;4.25;2.5;2.0;0.75;0.5;0.0;0.5;0.25;0.75;0.5;0.75;0.25;0.5;0.25;0.5;-0.231934;-0.009277;0.985352;-0.91;-0.63;0.77;157.0;-0.189737;-0.075236
3.67;5.25;4.25;2.75;4.0;0.75;2.0;0.0;0.75;0.0;0.75;0.5;0.5;0.5;0.5;0.0;0.5;-0.195312;0.038086;0.983887;-0.98;2.52;1.33;219.0;-0.233467;-0.089452;3.75;4.0;2.25;1.5;0.75;0.5;0.0;0.5;0.0;0.75;0.5;0.75;0.25;0.5;0.0;0.75;-0.23291;-0.001465;0.97998;-0.77;-0.49;0.7;155.0;-0.211963;-0.066399
3.68;5.25;4.5;3.0;4.0;1.0;2.25;0.0;0.75;0.0;1.0;0.5;0.5;0.5;0.25;0.0;0.5;-0.196289;0.038086;0.980469;-1.05;2.73;1.26;229.0;-0.234025;-0.089188;3.5;3.5;1.75;1.25;0.75;0.5;0.0;0.5;0.0;0.5;0.5;0.75;0.25;0.5;0.25;0.75;-0.23291;-0.003906;0.978027;-0.7;-0.42;0.7;141.0;-0.196419;-0.071637
3.69;5.25;4.5;3.0;4.0;0.75;1.25;0.25;1.0;0.0;1.0;0.75;0.5;0.25;0.5;0.0;0.25;-0.201172;0.034668;0.984863;-1.05;2.45;1.19;224.0;-0.226911;-0.075664;3.75;4.25;1.75;1.75;0.75;0.5;0.0;0.5;0.0;0.75;0.5;0.75;0.25;0.5;0.25;0.75;-0.227051;-0.005859;0.980469;-0.77;-0.56;0.77;157.0;-0.204669;-0.07555
3.7;5.5;4.75;3.0;4.0;1.0;2.0;0.25;0.75;0.25;0.75;1.0;0.5;0.5;0.25;0.0;0.25;-0.196289;0.034668;0.985352;-1.33;2.52;1.12;238.0;-0.226029;-0.077458;3.5;4.25;1.75;2.5;0.75;0.5;0.0;0.5;0.25;0.25;0.5;0.25;0.0;0.25;0.25;0.75;-0.230957;-0.009277;0.983398;-0.77;-0.49;0.77;152.0;-0.236501;-0.07449
3.71;4.75;4.75;3.5;4.0;0.75;2.25;0.25;0.75;0.25;0.5;0.5;0.5;0.5;0.25;0.0;0.5;-0.200684;0.029785;0.986328;-1.19;2.52;1.26;230.0;-0.232767;-0.085065;3.25;4.25;1.75;2.0;0.75;0.5;0.0;0.5;0.25;0.5;0.5;0.25;0.0;0.25;0.25;0.75;-0.236328;-0.007812;0.987793;-0.7;-0.35;0.91;147.0;-0.224355;-0.070071
3.72;5.25;4.5;3.0;4.0;1.5;2.25;0.0;0.75;0.0;0.5;0.5;0.5;0.5;0.5;0.0;0.5;-0.194336;0.032715;0.987793;-1.12;2.66;1.19;231.0;-0.235966;-0.086812;3.25;4.0;1.75;1.75;0.75;0.5;0.0;0.5;0.0;0.5;0.5;0.5;0.0;0.0;0.25;0.75;-0.231445;-0.003906;0.980957;-0.7;-0.35;0.77;140.0;-0.232029;-0.080568
3.73;4.75;4.5;2.75;4.0;1.25;2.0;0.0;0.75;0.0;1.0;0.5;1.0;0.5;0.5;0.0;0.5;-0.203125;0.036133;0.98291;-1.05;2.52;1.12;228.0;-0.21496;-0.093713;2.75;3.75;1.75;2.0;0.75;0.5;0.0;0.5;0.25;0.75;0.5;0.5;0.25;0.0;0.5;0.5;-0.231445;-0.002441;0.982422;-0.77;-0.35;0.84;144.0;-0.195586;-0.081581
3.74;5.0;4.25;2.75;4.0;1.25;1.5;0.25;1.0;0.0;0.75;0.5;0.5;0.5;0.25;0.0;0.5;-0.197266;0.032227;0.987793;-1.05;2.94;1.19;221.0;-0.228306;-0.085904;3.5;4.25;1.75;2.0;0.75;0.75;0.0;0.5;0.25;0.75;0.5;0.75;0.25;0.25;0.0;0.25;-0.237305;-0.004395;0.990723;-0.77;-0.28;0.84;156.0;-0.219537;-0.07644
3.75;4.75;4.5;2.5;4.0;0.75;1.5;0.0;0.75;0.0;0.5;0.5;0.25;0.5;0.25;0.0;0.5;-0.197266;0.036133;0.984375;-1.05;2.8;1.19;202.0;-0.250121;-0.09457;2.5;4.0;1.75;1.5;0.75;0.25;0.0;0.5;0.25;0.75;0.5;0.75;0.25;0.25;0.0;0.5;-0.230469;-0.010742;0.98291;-0.84;-0.42;0.77;136.0;-0.198295;-0.077467
3.76;4.75;4.25;3.0;4.0;0.75;2.0;0.0;0.5;0.0;0.75;0.5;0.25;0.5;0.5;0.25;0.25;-0.198242;0.034668;0.990234;-1.19;2.73;1.19;212.0;-0.234926;-0.083015;4.0;3.5;2.0;1.5;0.75;0.0;0.0;0.5;0.25;0.25;0.5;0.75;0.0;0.0;0.0;0.5;-0.229004;-0.006836;0.979492;-0.84;-0.49;0.7;137.0;-0.244154;-0.05176
3.77;4.75;4.25;3.0;4.0;1.0;2.0;0.25;0.5;0.25;0.5;0.75;0.5;0.5;0.5;0.5;0.5;-0.19873;0.034668;0.986816;-1.05;2.59;1.12;227.0;-0.20767;-0.077107;3.75;3.5;2.0;1.75;0.75;0.5;0.0;0.5;0.25;0.25;0.75;0.75;0.0;0.5;0.0;0.25;-0.22998;-0.004883;0.980957;-0.91;-0.35;0.63;147.0;-0.219317;-0.057497
3.78;4.75;4.5;2.75;4.0;1.25;1.75;0.25;0.75;0.5;0.5;0.5;0.75;0.5;0.25;0.0;0.5;-0.197754;0.035645;0.988281;-1.05;2.73;1.19;226.0;-0.218145;-0.080321;3.5;4.25;1.75;1.75;0.75;0.25;0.0;0.5;0.25;0.5;0.5;0.75;0.25;0.5;0.25;0.25;-0.234863;-0.003906;0.984863;-0.91;-0.42;0.63;151.0;-0.209651;-0.066495
3.79;4.75;4.25;2.5;3.75;0.75;2.0;0.25;0.75;0.5;0.75;0.5;0.75;0.75;0.25;0.0;0.25;-0.197754;0.038086;0.98584;-1.05;2.66;1.19;220.0;-0.211079;-0.085816;3.5;4.25;1.75;1.5;0.75;0.25;0.0;0.5;0.25;0.25;0.5;0.75;0.0;0.5;0.25;0.5;-0.237305;-0.004883;0.984863;-0.84;-0.42;0.84;145.0;-0.215988;-0.062587
3.8;4.5;4.0;2.0;3.75;0.75;1.5;0.0;0.75;0.25;0.5;0.75;1.0;0.25;0.25;0.25;0.25;-0.196289;0.039062;0.984863;-1.05;2.73;1.12;199.0;-0.213991;-0.095365;3.75;4.0;1.75;1.5;0.75;0.5;0.0;0.5;0.0;0.5;0.5;0.75;0.0;0.5;0.0;0.25;-0.23877;-0.004883;0.985352;-0.91;-0.21;0.7;143.0;-0.232821;-0.064304
3.81;4.75;4.0;2.75;4.0;0.75;2.25;0.0;0.75;0.0;0.75;0.75;0.75;0.25;0.5;0.5;0.5;-0.19873;0.032227;0.987793;-0.77;2.73;1.19;222.0;-0.207111;-0.094034;4.0;4.25;2.0;2.0;0.75;0.25;0.0;0.5;0.25;0.5;0.5;0.5;0.25;0.5;0.0;0.25;-0.228027;-0.001953;0.980469;-0.98;-0.21;0.77;156.0;-0.23378;-0.057361
3.82;5.0;4.0;2.0;4.0;1.0;2.0;0.0;0.75;0.5;0.5;0.75;0.5;0.25;0.25;0.25;0.75;-0.203613;0.041016;0.989746;-0.91;2.87;1.19;215.0;-0.212825;-0.087544;3.5;4.25;2.25;1.0;0.75;0.5;0.0;0.5;0.5;0.75;0.75;0.5;0.25;0.75;0.25;0.5;-0.233887;-0.00293;0.981934;-0.77;-0.21;0.7;159.0;-0.179081;-0.045104
3.83;4.75;3.5;2.0;3.75;0.75;1.5;0.0;1.0;0.0;0.5;0.75;0.25;0.25;0.25;0.0;0.5;-0.196777;0.037109;0.986816;-0.84;2.8;1.19;190.0;-0.23586;-0.096477;2.5;4.25;2.0;1.0;0.75;0.5;0.0;0.5;0.25;1.0;0.75;0.75;0.25;0.25;0.25;0.5;-0.234863;-0.007812;0.978516;-0.77;-0.21;0.84;145.0;-0.174509;-0.072471
3.84;5.25;4.0;2.75;4.0;0.75;1.25;0.25;1.0;0.0;0.75;0.75;0.5;0.5;0.25;0.25;0.5;-0.199219;0.038574;0.987305;-0.91;2.73;1.19;219.0;-0.219639;-0.084567;3.75;3.75;1.75;1.75;0.75;0.5;0.0;0.5;0.25;0.75;0.5;0.25;0.0;0.25;0.5;0.25;-0.234375;-0.007324;0.980469;-0.84;-0.35;0.84;147.0;-0.215594;-0.052845
3.85;4.75;4.25;2.25;3.5;1.0;2.0;0.25;1.0;0.25;0.75;0.75;0.25;0.5;0.5;0.0;0.5;-0.202148;0.029297;0.984863;-0.98;2.59;1.12;216.0;-0.210942;-0.085587;3.5;3.5;1.75;1.75;1.0;0.5;0.0;0.75;0.5;0.75;0.5;0.0;0.0;0.0;0.75;0.0;-0.233887;0.000488;0.984375;-0.84;-0.35;0.77;149.0;-0.203837;-0.050598
3.86;4.75;4.0;2.0;3.5;0.5;2.0;0.0;0.5;0.0;0.75;1.0;0.25;0.5;0.5;0.0;0.5;-0.193848;0.037109;0.98291;-0.98;2.59;1.26;196.0;-0.224274;-0.091619;3.5;4.25;2.0;1.75;1.0;0.5;0.0;0.5;0.25;0.75;0.5;0.25;0.25;0.25;0.25;0.25;-0.235352;-0.006836;0.989746;-0.77;-0.49;0.84;154.0;-0.222348;-0.059053
3.87;4.5;4.25;2.5;3.75;0.5;2.0;0.0;0.5;0.0;0.5;0.5;0.5;0.5;0.0;0.25;0.5;-0.200684;0.041504;0.986816;-0.98;2.52;1.12;197.0;-0.24221;-0.100854;3.75;3.75;1.75;2.0;1.0;0.5;0.0;0.5;0.25;0.5;0.5;0.5;0.25;0.25;0.25;0.25;-0.230957;-0.003418;0.98291;-0.91;-0.49;0.77;152.0;-0.22053;-0.064382
3.88;4.75;4.25;2.5;3.5;0.75;2.0;0.0;0.75;0.25;0.5;0.5;0.5;0.5;0.0;0.5;0.75;-0.199707;0.036621;0.987793;-1.05;2.66;1.12;209.0;-0.220035;-0.095568;4.0;3.75;1.75;1.5;1.0;0.5;0.0;0.5;0.25;0.5;0.75;0.75;0.0;0.5;0.0;0.0;-0.22998;-0.010742;0.986328;-0.84;-0.42;0.77;150.0;-0.219027;-0.050069
3.89;4.25;4.25;2.5;3.25;0.75;2.0;0.0;0.75;0.0;0.5;0.5;0.75;0.5;0.25;0.25;0.75;-0.199707;0.039062;0.98584;-1.05;2.59;1.05;201.0;-0.218208;-0.104187;3.5;4.0;2.0;2.25;0.75;0.5;0.0;0.5;0.25;0.75;0.25;0.75;0.0;0.25;0.0;0.0;-0.232422;-0.002441;0.98584;-0.84;-0.42;0.91;151.0;-0.236803;-0.063943
3.9;5.0;4.5;2.5;3.5;0.75;1.5;0.0;0.75;0.0;0.5;0.75;0.75;0.25;0.25;0.0;0.75;-0.196289;0.033691;0.986816;-1.12;2.38;1.12;206.0;-0.235008;-0.091783;2.75;4.0;1.75;2.0;0.75;0.5;0.0;0.5;0.25;0.75;0.25;0.5;0.25;0.25;0.5;0.25;-0.229492;-0.008301;0.984375;-0.77;-0.28;0.77;144.0;-0.202379;-0.076736
3.91;4.75;4.25;2.75;3.5;0.5;1.5;0.0;0.75;0.0;0.5;0.75;0.75;0.5;0.25;0.0;0.5;-0.205078;0.037598;0.983398;-1.12;2.45;1.12;202.0;-0.232581;-0.095256;2.5;4.25;1.75;1.5;0.75;0.5;0.0;0.5;0.75;0.5;0.25;0.75;0.25;0.25;0.25;0.25;-0.234863;-0.003418;0.984863;-0.84;-0.42;0.7;143.0;-0.190719;-0.067159
3.92;4.5;4.0;2.5;3.5;0.75;1.5;0.25;0.5;0.25;1.0;0.25;1.0;0.5;0.5;0.25;0.5;-0.198242;0.032227;0.98584;-0.98;2.52;1.19;207.0;-0.199476;-0.076722;2.75;3.5;2.0;1.75;0.75;0.5;0.0;0.5;0.5;0.5;0.5;0.75;0.25;0.25;0.25;0.5;-0.23291;-0.007324;0.980957;-0.7;-0.56;0.98;145.0;-0.184928;-0.069932
3.93;4.25;4.5;2.5;3.5;0.75;1.25;0.25;0.5;0.25;0.5;0.0;0.5;0.5;0.5;0.0;0.5;-0.197754;0.034668;0.984375;-1.12;2.45;1.19;192.0;-0.236413;-0.075854;2.5;3.75;2.0;2.0;1.0;0.5;0.0;0.5;0.0;0.75;0.25;0.75;0.0;0.5;0.5;0.25;-0.22998;-0.006836;0.983398;-0.77;-0.49;0.77;144.0;-0.195193;-0.075318
3.94;4.5;4.0;2.75;3.75;0.75;1.5;0.0;0.5;0.25;0.5;0.5;0.5;0.75;0.75;0.0;0.5;-0.20459;0.041016;0.983887;-0.98;2.59;1.19;203.0;-0.2189;-0.081769;2.5;4.0;2.0;2.0;0.75;0.5;0.0;0.5;0.5;1.0;0.0;0.75;0.0;0.25;0.25;0.0;-0.229492;-0.007812;0.979492;-0.7;-0.49;0.84;144.0;-0.203822;-0.062805
3.95;4.75;4.0;2.75;3.75;1.0;1.5;0.25;0.75;0.0;0.5;0.25;0.5;0.5;0.5;0.25;0.5;-0.196777;0.035156;0.985352;-0.91;2.38;1.19;208.0;-0.225742;-0.081148;3.5;4.25;2.25;1.75;0.75;0.5;0.0;0.5;0.5;1.0;0.25;0.25;0.25;0.25;0.0;0.25;-0.234863;-0.006348;0.984863;-0.77;-0.7;0.77;154.0;-0.225028;-0.048959
3.96;4.75;4.25;2.75;3.75;1.0;0.75;0.25;0.75;0.0;1.0;0.25;0.5;0.5;0.25;0.0;0.5;-0.201172;0.040039;0.991211;-0.91;2.52;1.26;203.0;-0.233168;-0.074059;3.5;4.25;2.0;1.75;0.5;0.5;0.0;0.5;0.0;1.0;0.5;0.25;0.25;0.25;0.25;0.25;-0.23291;-0.005859;0.985352;-0.84;-0.49;0.7;148.0;-0.22788;-0.067895
3.97;4.5;4.0;3.0;3.75;0.75;1.0;0.0;0.75;0.25;0.5;0.5;0.5;0.5;0.25;0.25;0.5;-0.199219;0.03418;0.983887;-0.84;2.38;1.33;201.0;-0.226181;-0.081504;3.5;4.25;2.0;2.75;0.75;0.5;0.0;0.5;0.0;1.25;0.25;0.75;0.25;0.25;0.25;0.25;-0.230469;-0.001953;0.983398;-0.77;-0.49;0.77;166.0;-0.217035;-0.079503
3.98;4.75;4.0;2.25;3.75;0.75;1.25;0.0;1.0;0.0;0.25;0.5;1.0;0.5;0.5;0.0;0.5;-0.195801;0.038086;0.986328;-0.91;2.59;1.33;200.0;-0.225815;-0.10321;3.25;3.0;2.0;2.5;0.75;0.5;0.0;0.5;0.0;0.5;0.25;0.25;0.25;0.5;0.0;0.0;-0.229004;-0.006348;0.986328;-0.84;-0.56;0.77;136.0;-0.243432;-0.067401
3.99;4.75;4.0;2.0;4.0;1.0;1.25;0.0;1.0;0.25;0.5;0.5;0.5;0.75;0.25;0.0;0.5;-0.19873;0.041504;0.984863;-1.19;2.45;1.26;203.0;-0.224862;-0.099234;3.5;3.5;2.25;2.25;0.75;0.5;0.0;0.5;0.25;0.5;0.5;0.0;0.0;0.5;0.5;0.0;-0.230957;-0.010254;0.983398;-0.84;-0.42;0.63;149.0;-0.224666;-0.047455
4.0;4.25;4.0;2.0;4.0;0.5;1.5;0.0;0.75;0.25;0.5;0.5;0.5;0.75;0.0;0.0;0.5;-0.200195;0.03125;0.980469;-0.91;2.52;1.26;191.0;-0.232508;-0.108396;4.0;3.5;2.5;2.0;0.75;0.5;0.0;0.5;0.25;0.75;0.5;0.25;0.0;0.25;0.25;0.25;-0.233887;-0.004883;0.978516;-0.7;-0.35;0.7;155.0;-0.229036;-0.04416
4.01;4.75;4.0;2.25;3.75;0.5;1.5;0.0;0.75;0.25;0.5;0.5;0.5;0.75;0.25;0.0;0.5;-0.196777;0.035156;0.97998;-0.98;2.45;1.26;197.0;-0.229951;-0.09632;3.75;4.25;2.25;2.0;0.75;0.5;0.0;0.5;0.0;1.0;0.25;0.5;0.0;0.0;0.0;0.25;-0.235352;-0.002441;0.984863;-0.77;-0.42;0.7;152.0;-0.254315;-0.063573
4.02;5.0;4.0;2.5;3.5;0.5;1.5;0.0;0.75;0.25;0.25;0.5;0.5;0.5;0.5;0.0;0.5;-0.201172;0.038574;0.98291;-1.05;2.38;1.26;197.0;-0.235105;-0.085355;3.75;4.25;2.5;2.5;0.75;0.5;0.0;0.5;0.0;1.0;0.25;0.75;0.0;0.5;0.0;0.25;-0.22998;-0.007812;0.984375;-0.7;-0.56;0.77;166.0;-0.233021;-0.063797
4.03;4.75;4.25;2.5;3.5;0.5;1.5;0.0;0.75;0.5;0.25;0.5;0.75;0.5;0.5;0.25;0.5;-0.20166;0.034668;0.986328;-1.12;2.45;1.33;205.0;-0.215052;-0.085613;3.5;4.25;2.0;2.75;0.75;0.5;0.0;0.5;0.0;1.0;0.25;0.75;0.0;0.25;0.25;0.25;-0.233887;-0.004883;0.98877;-0.84;-0.56;0.77;161.0;-0.228569;-0.076891
4.04;5.0;4.25;2.5;4.0;0.75;1.75;0.0;0.75;0.5;0.5;0.75;0.25;0.5;0.5;0.0;0.5;-0.200195;0.041992;0.987793;-1.19;2.38;1.19;215.0;-0.223606;-0.081179;3.5;4.25;2.5;2.25;0.75;0.5;0.0;0.5;0.0;1.0;0.25;0.75;0.0;0.25;0.5;0.0;-0.233398;-0.004395;0.983887;-0.77;-0.7;0.84;162.0;-0.222984;-0.065354
4.05;5.0;4.5;2.75;4.0;0.5;1.5;0.0;0.75;0.5;0.5;0.5;0.25;0.5;0.5;0.0;0.5;-0.197266;0.034668;0.987793;-1.33;2.45;1.26;212.0;-0.2331;-0.079017;3.5;4.25;2.75;2.25;0.75;0.5;0.0;0.5;0.25;1.25;0.25;0.75;0.25;0.25;0.25;0.0;-0.230957;-0.003418;0.983887;-0.84;-0.7;0.63;170.0;-0.213042;-0.05965
4.06;4.75;4.25;2.75;4.0;0.5;2.0;0.0;0.75;0.25;0.5;0.5;0.5;0.5;0.0;0.0;0.5;-0.193848;0.036621;0.98877;-1.19;2.38;1.26;208.0;-0.2414;-0.097313;3.5;4.25;2.75;2.0;0.75;0.5;0.0;0.5;0.5;1.0;0.0;0.75;0.25;0.0;0.25;0.25;-0.235352;-0.004883;0.979004;-0.91;-0.84;0.49;165.0;-0.219366;-0.056773
4.07;4.75;4.0;2.75;4.0;0.75;2.0;0.0;0.75;0.0;0.5;0.5;0.5;0.5;0.0;0.0;0.5;-0.204102;0.039551;0.986816;-1.4;2.31;1.26;206.0;-0.245435;-0.100081;3.5;4.25;2.5;2.25;0.75;0.5;0.0;0.5;0.5;1.0;0.25;0.75;0.0;0.0;0.25;0.25;-0.230957;-0.006348;0.986816;-0.98;-0.77;0.63;165.0;-0.21793;-0.057552
4.08;4.75;4.0;2.75;4.0;0.5;2.0;0.0;0.75;0.25;0.75;0.5;0.25;0.5;0.25;0.0;0.5;-0.199219;0.035156;0.984863;-1.4;2.38;1.26;208.0;-0.233203;-0.089891;4.0;4.25;2.5;2.0;0.75;0.75;0.0;0.25;0.0;1.0;0.5;0.75;0.0;0.25;0.25;0.25;-0.229492;-0.004395;0.977539;-0.98;-0.84;0.7;165.0;-0.228846;-0.05654
4.09;5.0;4.25;2.0;4.0;0.5;1.5;0.0;0.75;0.25;0.5;0.75;0.5;0.5;0.5;0.0;0.5;-0.196777;0.039062;0.986328;-1.33;2.38;1.26;204.0;-0.22656;-0.092603;4.0;4.5;2.5;2.0;1.0;0.5;0.0;0.0;0.25;0.5;0.5;0.75;0.0;0.25;0.25;0.25;-0.234863;-0.004883;0.978516;-0.98;-0.7;0.63;162.0;-0.240336;-0.043024
4.1;5.0;4.5;2.25;4.0;0.75;1.25;0.0;0.75;0.0;0.0;1.0;0.5;0.5;0.25;0.0;0.75;-0.199707;0.035645;0.989258;-1.4;2.31;1.19;203.0;-0.243959;-0.100282;4.0;4.5;2.5;2.25;0.75;0.5;0.0;0.0;0.25;0.5;0.5;0.75;0.0;0.5;0.0;0.0;-0.231445;-0.010254;0.989746;-0.98;-0.63;0.63;160.0;-0.249375;-0.042117
4.11;4.75;4.5;2.75;4.25;0.75;1.5;0.0;0.5;0.25;0.5;0.75;0.5;0.5;0.25;0.0;1.0;-0.204102;0.038574;0.984375;-1.33;2.45;1.26;214.0;-0.229859;-0.088966;4.0;4.5;2.5;2.5;0.75;0.5;0.0;0.25;0.5;0.5;0.5;0.75;0.0;0.5;0.0;0.0;-0.231934;-0.007324;0.980957;-0.98;-0.77;0.7;169.0;-0.236111;-0.046418
4.12;4.75;4.5;2.75;4.0;0.75;1.5;0.25;0.5;0.0;0.25;0.5;0.75;0.5;0.5;0.0;1.0;-0.20166;0.040527;0.988281;-1.4;2.45;1.26;211.0;-0.230453;-0.08834;4.0;4.25;2.5;2.25;0.75;0.5;0.0;0.5;0.5;0.5;0.25;0.75;0.0;0.5;0.25;0.25;-0.228516;-0.005859;0.978516;-0.98;-0.91;0.7;169.0;-0.221453;-0.05088
4.13;5.0;4.5;2.75;4.25;0.75;1.75;0.25;0.75;0.0;0.25;0.5;0.75;0.5;0.5;0.0;0.75;-0.20166;0.038574;0.982422;-1.4;2.38;1.33;221.0;-0.231981;-0.093361;4.0;4.25;2.5;2.25;0.75;0.75;0.0;0.25;0.25;0.5;0.25;0.5;0.0;0.5;0.25;0.25;-0.232422;-0.005859;0.983398;-1.05;-0.84;0.7;163.0;-0.240032;-0.049341
4.14;5.25;4.25;2.5;4.25;1.0;1.75;0.25;0.75;0.0;0.5;0.75;0.5;0.5;0.5;0.0;0.5;-0.196289;0.041992;0.990723;-1.4;2.45;1.26;222.0;-0.228596;-0.085993;4.0;4.25;2.75;2.5;1.0;0.75;0.0;0.0;0.0;0.5;0.5;0.5;0.0;0.5;0.0;0.0;-0.234863;-0.007812;0.97998;-1.05;-0.98;0.7;163.0;-0.260765;-0.045262
4.15;4.75;4.25;2.5;4.0;0.75;1.5;0.25;0.75;0.0;0.25;0.75;0.25;0.5;0.5;0.0;0.75;-0.193848;0.03418;0.983398;-1.26;2.31;1.33;206.0;-0.233007;-0.088968;4.25;4.5;2.75;3.0;1.25;0.5;0.0;0.25;0.25;0.75;0.5;0.5;0.0;0.5;0.0;0.0;-0.22998;-0.003418;0.983398;-0.98;-0.98;0.56;181.0;-0.244883;-0.04496
4.16;4.75;4.5;2.75;4.0;0.5;2.0;0.0;0.75;0.0;0.0;0.5;0.25;0.5;0.5;0.0;0.75;-0.199219;0.036621;0.981934;-1.26;2.31;1.26;205.0;-0.250815;-0.100928;4.5;4.5;2.5;3.0;1.0;0.75;0.0;0.5;0.0;0.5;0.5;0.25;0.25;0.5;0.0;0.25;-0.22998;-0.003906;0.98291;-0.91;-0.84;0.63;180.0;-0.254634;-0.066078
