Time;left pressure 1[N/cm²];left pressure 2[N/cm²];left pressure 3[N/cm²];left pressure 4[N/cm²];left pressure 5[N/cm²];left pressure 6[N/cm²];left pressure 7[N/cm²];left pressure 8[N/cm²];left pressure 9[N/cm²];left pressure 10[N/cm²];left pressure 11[N/cm²];left pressure 12[N/cm²];left pressure 13[N/cm²];left pressure 14[N/cm²];left pressure 15[N/cm²];left pressure 16[N/cm²];left acceleration X[g];left acceleration Y[g];left acceleration Z[g];left angular X[dps];left angular Y[dps];left angular Z[dps];left total force[N];left center of pressure X[-0.5...+0.5];left center of pressure Y[-0.5...+0.5];right pressure 1[N/cm²];right pressure 2[N/cm²];right pressure 3[N/cm²];right pressure 4[N/cm²];right pressure 5[N/cm²];right pressure 6[N/cm²];right pressure 7[N/cm²];right pressure 8[N/cm²];right pressure 9[N/cm²];right pressure 10[N/cm²];right pressure 11[N/cm²];right pressure 12[N/cm²];right pressure 13[N/cm²];right pressure 14[N/cm²];right pressure 15[N/cm²];right pressure 16[N/cm²];right acceleration X[g];right acceleration Y[g];right acceleration Z[g];right angular X[dps];right angular Y[dps];right angular Z[dps];right total force[N];right center of pressure X[-0.5...+0.5];right center of pressure Y[-0.5...+0.5]
0.0;2.75;2.25;2.25;1.75;0.5;0.75;0.25;0.75;3.25;1.0;1.25;1.25;1.0;2.5;0.75;1.0;-0.206055;0.023926;0.994141;-0.56;0.77;0.63;268.0;0.001672;-0.014341;3.25;4.0;1.5;2.5;1.75;2.75;0.25;1.75;3.5;1.0;2.25;1.5;1.75;3.0;1.25;0.5;-0.253418;0.037109;0.976074;-0.84;-1.12;0.77;378.0;-0.017325;-0.06411
0.01;2.75;2.25;2.25;1.75;0.5;0.75;0.25;0.75;3.25;1.0;1.25;1.25;1.0;2.5;0.75;1.0;-0.206055;0.023926;0.994141;-0.56;0.77;0.63;268.0;0.001672;-0.014341;3.25;4.0;1.5;2.5;1.5;2.75;0.25;1.75;3.75;1.0;2.0;1.25;1.5;3.0;0.75;0.5;-0.240234;0.039062;0.976562;-0.84;-1.12;0.84;365.0;-0.025321;-0.056747
0.02;2.75;2.25;2.25;1.75;0.5;0.75;0.25;0.75;3.25;1.0;1.25;1.25;1.0;2.5;0.75;1.0;-0.206055;0.023926;0.994141;-0.56;0.77;0.63;268.0;0.001672;-0.014341;3.25;4.25;1.5;2.25;1.5;2.75;0.25;1.75;3.75;1.0;1.75;1.5;1.5;3.0;0.5;0.5;-0.243652;0.041504;0.978516;-0.91;-0.98;0.84;362.0;-0.029431;-0.057349
0.03;2.75;2.25;2.25;1.75;0.5;0.75;0.25;0.75;3.25;1.0;1.25;1.25;1.0;2.5;0.75;1.0;-0.206055;0.023926;0.994141;-0.56;0.77;0.63;268.0;0.001672;-0.014341;3.25;4.0;1.25;2.25;1.25;2.5;0.25;1.5;3.75;1.0;1.75;1.25;1.5;2.75;0.5;0.5;-0.243164;0.041016;0.983398;-0.84;-0.98;0.84;341.0;-0.02777;-0.052523
0.04;2.75;2.25;2.25;1.75;0.5;0.75;0.25;0.75;3.25;1.0;1.25;1.25;1.0;2.5;0.75;1.0;-0.206055;0.023926;0.994141;-0.56;0.77;0.63;268.0;0.001672;-0.014341;3.0;4.0;1.25;2.0;1.5;3.0;0.25;1.75;3.75;1.0;2.0;1.25;1.5;2.75;0.75;0.5;-0.245117;0.033691;0.973633;-0.77;-0.91;0.77;354.0;-0.019729;-0.059834
0.05;2.75;2.25;2.25;1.75;0.5;0.75;0.25;0.75;3.25;1.0;1.25;1.25;1.0;2.5;0.75;1.0;-0.206055;0.023926;0.994141;-0.56;0.77;0.63;268.0;0.001672;-0.014341;3.5;4.0;1.25;2.25;1.5;3.0;0.25;1.75;3.75;1.0;2.0;1.25;1.75;2.75;0.75;0.5;-0.245605;0.043457;0.978027;-0.77;-0.91;0.77;365.0;-0.026651;-0.061167
0.06;2.75;2.25;2.25;1.75;0.5;0.75;0.25;0.75;3.25;1.0;1.25;1.25;1.0;2.5;0.75;1.0;-0.206055;0.023926;0.994141;-0.56;0.77;0.63;268.0;0.001672;-0.014341;3.25;4.0;1.25;2.5;1.5;3.0;0.25;1.75;3.75;1.0;2.0;1.5;1.75;2.75;0.75;0.5;-0.246094;0.041504;0.982422;-0.84;-1.05;0.77;368.0;-0.024044;-0.065643
0.07;2.75;2.0;2.0;1.75;0.5;0.75;0.25;0.75;3.25;0.75;1.25;1.25;1.0;2.75;0.5;1.0;-0.205078;0.024902;0.992188;-0.56;0.7;0.49;259.0;0.005465;-0.012468;3.0;4.0;1.5;2.5;1.5;2.5;0.25;1.75;3.5;1.0;2.0;1.25;1.75;3.0;0.75;0.5;-0.248047;0.039062;0.97998;-0.7;-0.91;0.77;358.0;-0.022813;-0.062228
0.08;3.0;2.0;2.25;1.75;0.5;0.75;0.25;0.75;3.25;1.25;1.25;1.25;1.0;2.75;0.5;1.0;-0.20459;0.021973;0.989258;-0.56;0.91;0.49;270.0;0.003072;-0.008441;3.0;4.25;1.5;2.5;1.5;3.0;0.25;1.75;3.5;1.0;2.25;1.25;1.75;3.0;1.0;0.25;-0.241211;0.038574;0.97998;-0.84;-0.98;0.7;371.0;-0.023848;-0.065878
0.09;3.0;2.25;2.25;1.75;0.5;0.75;0.25;0.75;3.0;1.25;1.5;1.25;1.0;2.75;0.5;1.0;-0.206543;0.020996;0.988281;-0.49;0.7;0.56;272.0;-0.001804;-0.014751;3.0;3.75;1.25;2.5;1.5;3.0;0.25;1.5;3.5;1.0;2.0;1.5;1.75;3.0;0.75;0.25;-0.242676;0.041016;0.980957;-0.77;-0.98;0.7;356.0;-0.019953;-0.063301
0.1;3.0;2.25;2.0;1.75;0.5;0.75;0.25;1.0;3.25;1.0;1.0;1.5;1.0;2.5;0.5;1.0;-0.204102;0.02002;0.986816;-0.56;0.7;0.63;269.0;-0.004281;-0.021284;3.25;4.0;1.25;2.25;1.25;2.75;0.25;1.25;3.75;1.0;1.75;1.25;1.5;3.0;0.75;0.25;-0.242676;0.044434;0.98291;-0.77;-1.05;0.84;343.0;-0.024096;-0.047885
0.11;2.75;2.25;2.5;1.5;0.5;0.75;0.25;0.75;3.25;0.75;1.0;1.0;1.0;2.75;0.25;0.75;-0.20166;0.015625;0.993652;-0.56;0.77;0.42;254.0;-0.013155;-0.002123;3.25;4.0;1.25;2.0;1.25;2.5;0.25;1.75;3.75;1.0;2.25;1.0;1.5;2.75;0.75;0.5;-0.246582;0.041992;0.982422;-0.91;-0.98;0.77;348.0;-0.019538;-0.054371
0.12;2.75;2.0;2.25;1.75;0.75;1.0;0.25;1.0;3.25;0.75;1.25;1.0;1.0;2.75;0.25;0.75;-0.20459;0.020508;0.999512;-0.63;0.7;0.49;265.0;-0.009745;-0.013827;3.0;4.0;1.5;2.25;1.5;2.5;0.25;1.75;3.75;0.75;2.25;1.25;1.75;2.75;0.75;0.25;-0.24707;0.037598;0.97998;-0.84;-0.98;0.77;355.0;-0.022315;-0.059425
0.13;2.75;2.25;2.0;1.75;0.5;0.75;0.25;1.0;3.25;0.75;1.25;1.5;1.0;2.75;0.25;1.0;-0.19873;0.023438;0.990723;-0.63;0.56;0.56;265.0;-0.000971;-0.022206;3.25;4.25;1.5;2.75;1.25;2.75;0.25;1.75;3.5;0.75;2.0;1.25;1.75;3.0;0.75;0.25;-0.251953;0.044434;0.980469;-0.77;-0.98;0.77;362.0;-0.034563;-0.065677
0.14;3.0;2.25;2.25;1.5;0.5;0.75;0.25;1.0;3.25;0.75;1.0;1.0;1.0;2.75;0.5;0.75;-0.205566;0.019531;0.993164;-0.63;0.63;0.49;261.0;-0.009794;-0.009085;3.25;4.25;1.5;2.25;1.25;2.75;0.25;1.75;3.25;0.75;1.75;1.25;1.5;2.75;0.75;0.25;-0.24707;0.039062;0.979492;-0.77;-0.98;0.91;345.0;-0.039744;-0.064953
0.15;2.75;2.25;2.25;1.75;0.5;0.75;0.25;1.0;3.5;0.75;1.0;1.25;1.0;2.75;0.5;0.75;-0.20459;0.017578;0.992676;-0.56;0.63;0.56;268.0;-0.002843;-0.012052;3.25;4.0;1.5;2.0;1.5;2.5;0.25;1.75;3.5;0.75;2.0;1.25;1.5;2.75;0.75;0.25;-0.245117;0.039551;0.975098;-0.7;-1.05;0.77;346.0;-0.029369;-0.056862
0.16;2.75;2.25;2.25;1.75;0.5;0.75;0.25;0.75;3.5;0.75;1.0;1.0;1.0;2.5;0.5;0.75;-0.207031;0.021973;0.990234;-0.56;0.56;0.7;258.0;-0.008782;-0.004466;3.25;4.25;1.5;2.25;1.5;2.5;0.25;1.5;3.75;0.75;2.0;1.25;1.5;3.0;0.75;0.25;-0.246582;0.041504;0.975586;-0.84;-1.05;0.77;353.0;-0.028726;-0.050226
0.17;3.25;2.25;2.0;1.75;0.5;0.75;0.25;0.75;3.25;0.5;1.0;1.5;1.0;2.75;0.5;0.5;-0.203125;0.019043;0.992188;-0.56;0.77;0.56;261.0;-0.014234;-0.010729;3.25;4.0;1.5;2.25;1.25;2.75;0.25;1.5;3.75;0.75;2.0;1.25;1.75;3.0;1.0;0.25;-0.248535;0.041992;0.977051;-0.84;-0.98;0.84;356.0;-0.021372;-0.055185
0.18;3.25;2.0;2.0;1.5;0.5;0.75;0.25;0.75;3.0;1.25;1.25;1.25;1.0;2.25;0.5;0.5;-0.199219;0.024902;0.994141;-0.56;0.7;0.49;256.0;-0.009925;-0.009569;3.0;4.0;1.5;2.0;1.25;2.5;0.25;1.5;3.5;0.75;1.75;1.25;1.75;3.0;0.5;0.25;-0.242676;0.039062;0.977051;-0.84;-1.05;0.91;335.0;-0.027024;-0.055656
0.19;3.0;2.25;2.0;1.75;0.5;0.75;0.25;0.75;3.0;1.25;1.0;1.25;1.0;2.25;0.5;0.5;-0.20166;0.016602;0.996582;-0.63;0.63;0.56;256.0;-0.01548;-0.013761;3.0;4.25;1.5;2.25;1.25;2.5;0.25;1.75;3.75;0.75;1.75;1.5;1.75;3.0;0.5;0.0;-0.241211;0.039062;0.977539;-0.84;-0.98;0.77;350.0;-0.028693;-0.059417
0.2;3.0;2.25;2.0;1.75;0.5;0.75;0.25;1.0;3.25;0.75;1.0;1.25;1.0;2.5;0.75;0.5;-0.203613;0.022949;0.991699;-0.63;0.7;0.63;263.0;-0.008868;-0.016564;3.25;4.5;1.5;2.5;1.5;2.75;0.25;1.5;3.75;1.0;1.75;1.5;1.75;3.0;0.5;0.25;-0.241699;0.04248;0.977051;-0.84;-0.98;0.84;364.0;-0.034729;-0.05723
0.21;3.0;2.25;2.0;1.75;0.5;1.0;0.25;1.0;3.0;1.5;1.25;1.25;1.0;2.75;0.25;0.75;-0.208008;0.017578;0.990234;-0.63;0.63;0.56;272.0;-0.006807;-0.020296;3.25;4.0;1.5;2.0;1.5;2.75;0.25;1.25;3.75;0.75;1.75;1.5;1.5;2.75;0.5;0.25;-0.246094;0.040527;0.98291;-0.77;-1.05;0.77;341.0;-0.031668;-0.048414
0.22;3.0;2.25;2.25;1.75;0.5;1.0;0.25;0.75;3.0;1.25;1.0;0.75;1.0;2.75;0.25;0.75;-0.204102;0.018066;0.992188;-0.63;0.63;0.49;259.0;-0.019829;-0.006773;3.5;4.25;1.5;2.0;1.25;2.5;0.25;1.25;3.75;0.5;2.25;1.25;1.5;3.0;0.5;0.25;-0.243164;0.038086;0.976074;-0.84;-1.05;0.84;343.0;-0.032662;-0.045444
0.23;2.75;2.25;2.25;1.75;0.5;1.0;0.25;0.75;3.25;1.0;1.0;1.25;1.0;2.5;0.5;0.75;-0.197754;0.016602;0.991211;-0.84;0.77;0.49;263.0;-0.00894;-0.013737;3.0;4.25;1.5;2.25;1.25;2.75;0.25;1.5;3.75;0.75;2.0;1.25;1.5;3.0;0.25;0.25;-0.246582;0.04248;0.977539;-0.77;-0.91;0.84;345.0;-0.033138;-0.053893
0.24;2.75;2.25;2.25;1.75;0.5;0.75;0.25;1.0;3.0;1.5;1.0;1.25;1.0;2.5;0.5;0.75;-0.202148;0.016602;0.990234;-0.84;0.77;0.56;267.0;-0.005632;-0.018959;3.0;4.0;1.5;2.25;1.25;2.5;0.25;1.25;3.75;0.5;2.0;1.25;1.75;3.0;0.25;0.5;-0.242188;0.038574;0.979492;-0.84;-1.05;0.84;336.0;-0.028628;-0.051924
0.25;3.0;2.25;2.0;1.75;0.5;0.75;0.25;0.75;3.25;1.0;1.0;1.25;1.0;2.5;0.75;0.75;-0.203613;0.016602;0.993164;-0.7;0.7;0.56;263.0;-0.004041;-0.011426;3.25;4.0;1.5;2.25;1.25;2.5;0.25;1.5;3.75;0.75;2.0;1.25;1.5;3.0;0.5;0.25;-0.242188;0.042969;0.97998;-0.77;-1.12;0.77;345.0;-0.02868;-0.050084
0.26;2.75;2.25;2.25;1.75;0.5;0.75;0.25;0.75;3.0;1.25;1.0;1.0;1.0;2.5;0.5;0.75;-0.203125;0.020508;0.989746;-0.7;0.77;0.56;257.0;-0.010649;-0.01072;3.25;4.0;1.5;2.25;1.25;2.5;0.25;1.5;3.75;0.75;2.0;1.25;1.5;2.75;0.5;0.25;-0.240234;0.041504;0.978027;-0.77;-0.98;0.77;343.0;-0.031672;-0.051627
0.27;3.0;2.25;2.25;1.5;0.5;0.75;0.25;0.75;3.0;0.75;1.25;1.25;1.0;2.0;0.5;0.75;-0.206543;0.01709;0.98877;-0.63;0.77;0.49;252.0;-0.020044;-0.01644;3.25;4.25;1.5;2.25;1.25;2.75;0.25;1.5;3.75;0.5;1.75;1.0;1.5;2.75;0.5;0.25;-0.243164;0.04248;0.98291;-0.77;-0.98;0.77;339.0;-0.042071;-0.05277
0.28;3.25;2.25;2.25;1.5;0.5;0.75;0.0;0.75;3.0;0.75;1.25;1.25;1.0;2.5;0.5;0.75;-0.202148;0.020996;0.993164;-0.63;0.7;0.56;255.0;-0.018038;-0.015699;3.5;4.25;1.5;2.25;1.5;2.75;0.25;1.5;3.5;0.75;1.75;1.25;1.5;2.75;0.75;0.5;-0.248047;0.040527;0.977051;-0.7;-1.05;0.77;352.0;-0.039027;-0.056207
0.29;3.0;2.25;2.0;1.5;0.5;0.75;0.0;0.75;3.0;0.75;1.25;1.25;1.0;2.5;0.5;0.75;-0.203613;0.01709;0.991211;-0.77;0.7;0.49;249.0;-0.010643;-0.018396;3.25;4.0;1.5;2.25;1.75;3.0;0.25;1.75;3.5;0.5;2.0;1.5;1.5;2.75;0.75;0.5;-0.245605;0.039062;0.978516;-0.7;-0.91;0.77;359.0;-0.032981;-0.064778
0.3;3.25;2.25;2.0;1.75;0.5;0.75;0.25;0.75;3.0;0.75;1.0;1.0;1.0;2.5;0.5;0.5;-0.201172;0.018555;0.996582;-0.7;0.77;0.56;252.0;-0.024213;-0.009148;3.25;4.0;1.25;2.25;1.5;2.75;0.25;1.5;3.5;0.75;1.75;1.5;1.5;3.0;0.5;0.5;-0.244141;0.037598;0.978027;-0.77;-1.05;0.7;346.0;-0.029907;-0.05825
0.31;3.0;2.25;2.0;1.75;0.5;0.75;0.25;0.75;3.0;0.75;1.0;1.25;1.0;2.5;0.5;0.5;-0.208496;0.022461;0.992188;-0.63;0.63;0.56;252.0;-0.017308;-0.013749;3.25;4.25;1.25;2.25;1.5;2.75;0.25;1.5;3.5;0.75;2.0;1.5;1.5;2.75;0.5;0.5;-0.243652;0.041504;0.974609;-0.77;-0.98;0.77;349.0;-0.033549;-0.061073
0.32;3.0;2.25;2.25;1.75;0.5;0.75;0.25;0.5;3.0;0.75;1.25;1.25;1.0;2.75;0.5;0.75;-0.204102;0.018555;0.98877;-0.63;0.63;0.56;258.0;-0.011586;-0.007556;3.25;4.25;1.5;2.0;1.25;2.5;0.25;1.5;3.5;0.5;1.75;1.5;1.5;2.75;0.5;0.25;-0.243652;0.038574;0.977539;-0.84;-1.12;0.77;336.0;-0.037786;-0.056938
0.33;3.0;2.25;2.25;1.75;0.5;0.75;0.25;0.5;3.0;0.75;1.0;1.0;1.0;2.5;0.5;1.0;-0.203125;0.024414;0.989258;-0.63;0.63;0.56;251.0;-0.018542;-0.006531;3.5;4.25;1.5;2.25;1.25;2.5;0.25;1.5;3.5;0.5;1.75;1.25;1.75;3.0;0.75;0.25;-0.24707;0.031738;0.976562;-0.84;-1.05;0.84;346.0;-0.036861;-0.056439
0.34;3.25;2.25;2.5;1.75;0.5;0.75;0.25;0.75;3.0;1.0;1.0;1.0;1.0;2.5;0.25;0.5;-0.202148;0.020508;0.990234;-0.7;0.7;0.56;258.0;-0.031797;-0.005209;3.5;4.5;1.5;2.25;1.5;2.5;0.25;1.5;3.75;0.5;1.75;1.25;1.75;2.75;0.5;0.25;-0.24707;0.042969;0.983398;-0.84;-1.05;0.77;350.0;-0.043979;-0.054181
0.35;3.0;2.25;2.5;1.75;0.75;0.75;0.25;0.75;3.0;1.0;1.0;1.25;1.0;2.0;0.25;0.5;-0.203125;0.022949;0.992188;-0.7;0.63;0.56;257.0;-0.034144;-0.012262;3.25;4.0;1.5;2.25;1.5;2.5;0.25;1.5;3.75;0.5;1.5;1.25;1.5;2.75;0.5;0.25;-0.248047;0.041504;0.982422;-0.77;-1.05;0.77;337.0;-0.039173;-0.050505
0.36;3.25;2.25;2.25;1.75;0.75;0.75;0.25;0.75;3.0;0.5;1.0;1.25;1.0;2.0;0.5;0.5;-0.196289;0.019531;0.991211;-0.49;0.63;0.63;254.0;-0.036639;-0.014629;3.5;4.25;1.5;2.25;1.25;2.5;0.25;1.5;3.5;0.75;1.75;1.25;1.75;3.0;0.75;0.25;-0.246582;0.041504;0.978516;-0.7;-0.98;0.91;349.0;-0.034602;-0.055459
0.37;3.0;2.25;2.25;1.75;0.75;0.75;0.25;0.75;3.25;0.5;1.0;1.25;0.75;2.25;0.25;0.5;-0.202637;0.02002;0.993164;-0.7;0.49;0.56;251.0;-0.031196;-0.005177;3.25;4.25;1.25;2.5;1.5;2.5;0.25;1.25;3.75;0.5;1.75;1.25;1.5;2.75;0.5;0.5;-0.245605;0.040527;0.975586;-0.84;-1.12;0.77;340.0;-0.038489;-0.051671
0.38;3.75;2.25;2.5;1.75;0.75;0.75;0.25;0.75;3.0;0.5;1.0;1.25;0.75;2.5;0.25;0.5;-0.20459;0.015137;0.992188;-0.7;0.77;0.63;262.0;-0.045982;-0.002574;3.5;4.5;1.5;2.5;1.5;2.5;0.25;1.5;3.5;0.5;1.75;1.25;1.5;2.75;0.5;0.25;-0.243652;0.038086;0.983398;-0.7;-1.12;0.84;347.0;-0.050625;-0.056277
0.39;3.25;2.25;2.5;1.75;0.75;0.75;0.25;0.75;3.0;0.5;1.25;1.0;1.0;2.0;0.25;0.5;-0.203125;0.020996;0.993164;-0.7;0.63;0.56;254.0;-0.044231;-0.010565;3.25;4.5;1.5;2.5;1.25;2.75;0.25;1.5;3.5;0.5;2.0;1.5;1.75;2.75;0.5;0.25;-0.251465;0.04248;0.981934;-0.77;-1.05;0.77;352.0;-0.042184;-0.065582
0.4;3.0;2.25;2.5;1.75;0.5;0.75;0.25;0.75;3.0;0.75;1.25;1.0;1.0;2.0;0.25;0.75;-0.201172;0.018066;0.993652;-0.7;0.7;0.63;252.0;-0.03366;-0.013701;3.25;4.75;1.5;2.5;1.5;2.5;0.25;1.5;3.5;0.75;1.75;1.5;1.5;2.75;0.25;0.25;-0.242676;0.046387;0.981445;-0.7;-1.12;0.84;350.0;-0.049668;-0.059188
0.41;3.25;2.5;2.5;1.75;0.5;0.75;0.25;0.75;3.0;0.5;1.25;1.0;0.75;2.25;0.25;0.5;-0.20166;0.020508;0.996582;-0.7;0.63;0.56;253.0;-0.044777;-0.007045;3.25;4.5;1.5;2.5;1.25;2.5;0.25;1.75;3.75;1.0;1.75;1.25;1.5;2.75;0.25;0.25;-0.245605;0.039062;0.976074;-0.49;-1.05;0.84;352.0;-0.042611;-0.057065
0.42;3.25;2.25;2.0;1.75;0.5;0.75;0.25;0.5;3.0;0.5;1.0;1.0;0.75;1.75;0.25;0.5;-0.20459;0.01709;0.993164;-0.56;0.63;0.56;233.0;-0.047996;-0.003316;3.25;4.5;1.5;2.25;1.25;2.75;0.25;1.5;3.75;0.5;1.75;1.25;1.75;3.0;0.5;0.25;-0.247559;0.037109;0.981934;-0.49;-1.19;0.84;350.0;-0.038262;-0.056814
0.43;3.0;2.25;2.5;1.75;0.5;0.75;0.25;0.5;3.0;0.75;1.0;1.0;0.75;2.25;0.25;0.5;-0.205078;0.021484;0.996094;-0.63;0.77;0.49;244.0;-0.037176;0.001932;3.25;4.75;1.75;2.5;1.25;3.0;0.25;1.75;3.75;0.5;2.0;1.25;1.5;2.75;0.5;0.25;-0.240234;0.041016;0.981445;-0.42;-0.98;0.91;363.0;-0.047633;-0.062679
0.44;3.25;2.25;2.5;1.75;0.5;0.75;0.25;0.5;3.0;0.25;1.0;0.75;0.75;2.25;0.5;0.5;-0.201172;0.019531;0.994629;-0.7;0.84;0.56;241.0;-0.04567;0.004289;3.25;4.75;1.5;2.75;1.5;2.5;0.25;1.75;3.5;0.5;1.75;1.0;1.5;2.75;0.75;0.25;-0.249023;0.046875;0.973633;-0.42;-1.05;0.84;354.0;-0.050364;-0.062014
0.45;3.25;2.25;2.5;1.75;0.5;0.75;0.25;0.75;3.0;0.25;1.0;1.0;0.5;2.5;0.5;0.5;-0.205566;0.017578;0.991699;-0.56;0.91;0.63;248.0;-0.039909;0.000195;3.5;4.75;1.5;2.75;1.5;3.0;0.25;1.75;3.5;0.5;1.75;1.0;1.5;2.75;0.5;0.25;-0.242676;0.041504;0.980957;-0.42;-1.19;0.91;360.0;-0.05847;-0.063996
0.46;3.75;2.5;2.5;1.75;0.5;0.75;0.25;0.75;3.0;0.5;1.0;1.0;0.5;2.25;0.25;0.5;-0.206543;0.019043;0.989258;-0.56;0.77;0.56;254.0;-0.057813;0.000987;3.25;5.0;1.75;2.75;1.25;3.0;0.25;1.75;3.5;1.0;1.75;1.25;1.75;2.75;0.25;0.25;-0.241699;0.041504;0.985352;-0.42;-1.05;0.91;368.0;-0.054907;-0.068021
0.47;3.25;2.5;2.25;1.75;0.5;0.75;0.25;0.5;3.0;0.5;0.75;1.0;1.0;2.25;0.25;0.75;-0.20459;0.019043;0.992188;-0.63;0.84;0.63;244.0;-0.044393;-0.005381;3.25;4.5;1.5;2.25;1.25;2.75;0.25;1.75;3.5;0.5;1.75;1.5;1.75;2.75;0.25;0.25;-0.246094;0.041504;0.982422;-0.49;-1.05;0.84;348.0;-0.045624;-0.067563
0.48;3.0;2.25;2.5;1.75;0.5;0.75;0.25;0.75;3.0;0.5;1.0;1.0;0.75;2.5;0.25;0.5;-0.202637;0.024902;0.990234;-0.7;0.7;0.56;247.0;-0.035725;-0.003758;3.5;4.75;1.25;2.5;1.5;3.0;0.25;1.5;3.25;0.5;1.75;1.5;1.5;2.75;0.25;0.25;-0.246094;0.045898;0.969727;-0.56;-1.05;0.77;349.0;-0.057894;-0.067186
0.49;3.25;2.25;2.25;1.75;0.5;0.75;0.25;0.5;3.0;0.5;1.0;1.0;0.75;2.25;0.25;0.5;-0.20459;0.015625;0.991211;-0.63;0.7;0.63;241.0;-0.041864;0.001351;3.5;5.0;1.5;2.25;1.5;3.0;0.25;1.5;3.25;0.25;1.75;1.5;1.5;2.75;0.25;0.5;-0.245117;0.040039;0.980957;-0.63;-1.05;0.84;350.0;-0.060972;-0.067291
0.5;3.75;2.25;2.0;1.75;0.5;0.75;0.25;0.75;3.0;0.5;0.75;1.0;0.75;2.25;0.25;0.5;-0.207031;0.02002;0.994629;-0.63;0.63;0.63;245.0;-0.050063;-0.002579;3.5;4.75;1.75;2.5;1.5;3.0;0.25;1.75;3.5;0.25;1.75;1.25;1.75;3.0;0.5;0.5;-0.244141;0.039551;0.975098;-0.63;-0.98;0.77;366.0;-0.052394;-0.066252
0.51;3.25;2.25;2.5;1.75;0.5;0.75;0.25;0.75;3.0;0.5;1.0;1.0;0.5;2.25;0.5;0.5;-0.20459;0.021973;0.993164;-0.63;0.63;0.56;248.0;-0.040931;-0.000735;3.5;4.75;1.25;2.75;1.25;3.0;0.25;1.5;3.5;0.5;1.75;1.25;1.75;3.0;0.75;0.25;-0.246582;0.041504;0.981934;-0.77;-1.12;0.91;360.0;-0.04632;-0.06559
0.52;3.0;2.25;2.25;1.75;0.5;0.75;0.25;0.5;3.0;0.5;1.0;1.0;0.5;2.25;0.5;0.5;-0.203125;0.01416;0.98877;-0.56;0.63;0.63;238.0;-0.034256;0.003644;3.75;4.75;1.5;2.25;1.25;3.0;0.25;1.75;3.5;0.5;1.75;1.5;1.75;2.75;0.5;0.25;-0.243652;0.041016;0.984375;-0.91;-1.12;0.77;362.0;-0.051084;-0.067295
0.53;3.25;2.25;2.25;1.75;0.5;0.75;0.25;0.5;3.0;0.5;1.0;1.0;1.0;2.0;0.5;0.5;-0.206055;0.023438;0.987305;-0.63;0.63;0.56;244.0;-0.038861;-0.005789;3.75;4.75;1.5;2.5;1.5;3.0;0.25;1.75;3.5;0.5;1.75;1.25;1.75;2.5;0.25;0.25;-0.24707;0.044922;0.979492;-0.7;-1.05;0.77;360.0;-0.062398;-0.067169
0.54;3.75;2.25;2.5;1.75;0.5;0.75;0.25;0.75;3.0;0.25;1.0;1.0;0.75;2.25;0.5;0.5;-0.203613;0.021484;0.990723;-0.63;0.63;0.63;254.0;-0.050216;-0.003293;3.25;4.75;1.5;2.5;1.5;3.0;0.25;1.75;3.5;0.5;1.75;1.25;1.5;2.75;0.25;0.5;-0.242676;0.036621;0.975586;-0.77;-1.12;0.77;356.0;-0.053649;-0.066785
0.55;3.25;2.25;2.5;1.75;0.5;0.75;0.25;0.5;3.0;0.25;1.0;1.0;0.5;2.25;0.5;0.5;-0.208008;0.017578;0.995117;-0.56;0.63;0.56;241.0;-0.044739;0.00525;3.5;5.0;1.5;2.5;1.5;3.0;0.25;1.75;3.75;0.75;1.75;1.25;1.5;2.75;0.5;0.25;-0.244141;0.043457;0.980469;-0.91;-1.12;0.84;369.0;-0.051613;-0.060929
0.56;3.75;2.25;2.0;1.75;0.5;0.5;0.25;0.5;3.0;0.5;0.75;1.0;0.75;2.25;0.25;0.5;-0.203613;0.025391;0.994141;-0.63;0.63;0.49;237.0;-0.049445;0.007634;3.75;4.75;1.5;2.5;1.25;3.0;0.25;1.75;3.25;0.75;1.75;1.25;1.5;2.75;0.25;0.25;-0.242188;0.047363;0.978516;-0.84;-1.12;0.77;356.0;-0.061088;-0.066431
0.57;3.25;2.25;2.0;1.75;0.5;0.5;0.25;0.5;3.0;0.75;0.75;1.0;0.75;1.75;0.25;0.75;-0.202148;0.023926;0.992676;-0.63;0.7;0.56;231.0;-0.043887;0.00038;4.0;4.5;1.5;2.5;1.25;2.75;0.25;1.75;3.25;0.5;1.75;1.25;1.5;2.75;0.25;0.25;-0.244629;0.04248;0.976562;-0.91;-1.12;0.77;350.0;-0.062965;-0.063603
0.58;3.75;2.25;2.25;1.75;0.5;0.5;0.25;0.5;3.0;0.5;0.75;1.0;0.5;1.75;0.25;0.5;-0.206543;0.02002;0.985352;-0.56;0.63;0.56;233.0;-0.063669;0.010049;4.0;4.75;1.75;2.5;1.5;3.0;0.25;1.75;3.25;0.5;1.75;1.25;1.5;2.75;0.5;0.25;-0.243652;0.041016;0.973633;-0.98;-1.05;0.77;365.0;-0.064643;-0.063858
0.59;3.0;2.25;2.25;1.75;0.5;0.5;0.25;0.5;3.0;0.5;0.75;1.0;0.5;2.0;0.25;0.5;-0.208008;0.019043;0.996094;-0.63;0.56;0.56;227.0;-0.046126;0.00807;3.75;5.0;1.5;2.5;1.5;3.0;0.25;1.5;3.25;0.5;1.75;1.25;1.5;2.5;0.25;0.25;-0.250488;0.038574;0.977051;-0.91;-1.05;0.77;352.0;-0.070313;-0.06487
0.6;3.0;2.5;2.5;1.75;0.5;0.75;0.25;0.5;3.0;0.5;1.0;1.25;0.5;2.25;0.5;0.5;-0.203613;0.024902;0.98877;-0.56;0.63;0.49;247.0;-0.038189;-0.00053;4.0;5.0;1.5;2.5;1.5;3.0;0.25;1.25;3.25;0.25;1.75;1.25;1.5;2.75;0.5;0.5;-0.242188;0.044922;0.975586;-0.84;-1.05;0.77;355.0;-0.067317;-0.060269
0.61;3.75;2.5;2.5;2.0;0.5;0.75;0.25;0.5;3.0;0.75;1.0;1.25;0.75;1.75;0.5;0.5;-0.206055;0.018555;0.993164;-0.49;0.56;0.49;259.0;-0.056185;-0.006225;3.75;5.0;1.75;2.5;1.5;2.75;0.25;1.5;3.25;0.5;1.75;1.25;1.75;2.75;0.5;0.25;-0.244629;0.042969;0.986328;-0.91;-1.05;0.77;360.0;-0.062796;-0.063013
0.62;3.75;2.25;2.5;2.0;0.25;0.75;0.25;0.5;3.0;0.5;1.25;1.25;0.75;1.5;0.5;0.5;-0.202148;0.019043;0.992188;-0.63;0.63;0.49;251.0;-0.056222;-0.009173;3.5;4.75;1.5;2.5;1.5;2.5;0.25;1.75;3.25;0.5;1.75;1.25;1.5;2.5;0.25;0.25;-0.248047;0.041992;0.976074;-0.91;-0.98;0.77;345.0;-0.062942;-0.065913
0.63;3.25;2.25;2.25;1.75;0.5;0.75;0.25;0.5;2.75;0.25;1.0;1.0;0.5;1.75;0.25;0.5;-0.199219;0.019531;0.993164;-0.42;0.49;0.56;227.0;-0.06157;-0.002535;3.5;4.75;1.5;2.5;1.5;2.5;0.25;1.25;3.5;0.5;1.75;1.25;1.75;2.5;0.25;0.5;-0.244629;0.038574;0.973145;-0.91;-1.12;0.77;344.0;-0.057438;-0.058265
0.64;3.0;2.5;2.5;1.75;0.5;0.75;0.25;0.5;3.0;0.25;1.0;1.0;0.75;2.25;0.25;0.5;-0.200195;0.020508;0.987793;-0.49;0.56;0.63;241.0;-0.047714;-0.001294;3.75;5.0;1.5;2.5;1.5;2.75;0.25;1.25;3.5;0.5;1.75;1.25;1.5;2.5;0.5;0.5;-0.247559;0.04248;0.978516;-0.91;-1.05;0.77;353.0;-0.061309;-0.057008
0.65;3.0;2.5;2.5;2.0;0.5;1.0;0.25;0.5;2.75;0.5;1.0;1.0;0.5;2.25;0.5;0.5;-0.206543;0.020996;0.98877;-0.63;0.7;0.49;246.0;-0.049762;-0.007086;4.0;5.0;1.5;2.75;1.5;2.75;0.25;1.5;3.5;0.5;1.75;1.25;1.5;2.75;0.75;0.25;-0.240234;0.044434;0.975586;-0.91;-0.98;0.7;367.0;-0.060274;-0.058577
0.66;4.0;2.5;2.5;2.0;0.25;0.75;0.0;0.5;2.75;0.75;1.0;1.0;0.5;2.5;0.5;0.5;-0.204102;0.017578;0.989746;-0.49;0.7;0.49;253.0;-0.058095;-0.001148;4.0;5.0;1.75;2.5;1.5;2.75;0.25;1.25;3.5;0.5;1.75;1.25;1.5;2.75;0.25;0.25;-0.23877;0.041992;0.976562;-1.05;-1.05;0.84;357.0;-0.068198;-0.051649
0.67;3.75;2.5;2.5;2.0;0.25;0.75;0.0;0.5;2.75;0.75;1.0;1.0;0.5;2.25;0.5;0.5;-0.20752;0.019043;0.993164;-0.56;0.63;0.63;248.0;-0.058566;-0.004084;3.5;4.75;1.25;2.5;1.25;2.5;0.25;1.25;3.5;0.5;1.75;1.25;1.25;2.75;0.25;0.5;-0.240234;0.036133;0.979004;-0.91;-1.05;0.7;336.0;-0.054875;-0.053385
0.68;3.75;2.5;2.5;1.75;0.5;0.75;0.0;0.5;2.75;0.75;0.75;1.0;0.75;2.25;0.5;0.5;-0.202148;0.017578;0.990234;-0.63;0.77;0.56;247.0;-0.057717;-0.003675;3.75;5.0;1.75;2.5;1.25;2.75;0.25;1.25;3.25;0.5;1.75;1.25;1.25;2.5;0.5;0.5;-0.237305;0.041992;0.976562;-0.91;-1.05;0.77;347.0;-0.067391;-0.057415
0.69;3.75;2.5;2.5;1.75;0.5;0.75;0.0;0.5;2.75;0.5;0.75;1.25;0.5;2.25;0.5;0.5;-0.199707;0.019043;0.995117;-0.56;0.63;0.63;245.0;-0.060236;-0.003495;4.0;5.0;1.75;2.5;1.25;2.75;0.25;1.25;3.25;0.5;1.75;1.25;1.25;2.75;0.5;0.25;-0.244141;0.036133;0.977539;-0.91;-0.98;0.77;351.0;-0.068726;-0.053436
0.7;4.0;2.5;2.25;1.75;0.5;0.75;0.0;0.75;2.75;0.5;0.75;1.0;0.5;2.25;0.5;0.5;-0.203125;0.018066;0.981934;-0.49;0.49;0.56;246.0;-0.063971;-0.006502;3.75;5.0;2.0;2.75;1.5;2.5;0.25;1.25;3.25;0.5;1.75;1.25;1.5;2.75;0.5;0.25;-0.243164;0.041992;0.978516;-0.91;-0.98;0.84;356.0;-0.067801;-0.054845
0.71;3.25;2.5;2.25;1.75;0.5;0.75;0.25;0.75;3.0;0.5;1.0;1.0;0.5;2.25;0.5;0.5;-0.195312;0.02002;0.990723;-0.56;0.7;0.56;248.0;-0.041987;-0.003524;3.75;5.0;1.75;2.75;1.25;2.75;0.25;1.25;3.25;0.5;1.75;1.25;1.5;2.25;0.5;0.25;-0.243164;0.036621;0.978027;-0.98;-1.05;0.77;349.0;-0.072696;-0.062062
0.72;3.25;2.5;2.5;2.0;0.5;1.0;0.25;0.5;2.5;0.75;1.0;1.0;0.75;2.0;0.5;0.5;-0.20166;0.019043;0.993652;-0.56;0.56;0.56;248.0;-0.057116;-0.01504;3.75;5.0;1.75;2.25;1.5;2.5;0.25;1.25;3.25;0.5;1.75;1.0;1.5;2.25;0.5;0.25;-0.248047;0.041992;0.980957;-0.98;-0.98;0.84;340.0;-0.071055;-0.054272
0.73;3.75;2.75;2.5;2.25;0.5;0.75;0.25;0.5;2.75;0.75;0.5;0.75;0.75;2.25;0.5;0.5;-0.200684;0.013184;0.996094;-0.49;0.63;0.42;254.0;-0.070682;-0.001937;3.75;5.0;1.5;2.25;1.5;2.5;0.25;1.25;3.25;0.5;1.75;1.0;1.5;2.25;0.5;0.25;-0.247559;0.041504;0.975586;-0.91;-1.12;0.77;337.0;-0.069294;-0.055573
0.74;3.75;2.75;2.5;2.0;0.5;0.75;0.25;0.75;2.75;0.75;0.75;0.75;1.0;2.0;0.5;0.5;-0.204102;0.020508;0.988281;-0.56;0.63;0.56;258.0;-0.066087;-0.012714;3.75;5.0;1.75;2.5;1.25;2.5;0.25;1.25;3.5;0.75;2.0;1.0;1.5;2.25;0.5;0.25;-0.246582;0.041504;0.977051;-0.84;-1.05;0.84;349.0;-0.064124;-0.052908
0.75;4.0;2.5;2.5;2.25;0.5;0.75;0.25;0.75;3.0;0.5;0.75;1.0;0.75;1.75;0.5;0.5;-0.203613;0.021973;0.991699;-0.42;0.49;0.63;260.0;-0.071191;-0.010015;4.0;5.0;1.5;2.25;1.25;2.75;0.25;1.25;3.5;0.5;1.75;1.0;1.5;2.25;0.5;0.25;-0.246582;0.033691;0.979004;-0.84;-0.98;0.77;343.0;-0.068883;-0.053684
0.76;3.75;2.5;2.5;2.25;0.5;1.0;0.25;0.5;3.0;0.5;0.75;1.0;0.5;2.0;0.5;0.5;-0.200684;0.021484;0.987793;-0.63;0.49;0.63;256.0;-0.067251;-0.002324;3.75;5.0;1.5;2.5;1.75;2.5;0.25;1.25;3.25;0.5;1.75;1.25;1.5;2.25;0.75;0.25;-0.244629;0.040039;0.976074;-0.84;-1.05;0.77;348.0;-0.065434;-0.058227
0.77;4.0;2.5;2.5;2.0;0.5;1.0;0.25;0.5;2.75;0.5;0.75;1.0;0.75;2.25;0.5;0.5;-0.206543;0.020508;0.996094;-0.63;0.63;0.56;257.0;-0.066377;-0.004933;4.25;5.0;1.5;2.5;1.5;2.5;0.25;1.25;3.25;0.5;1.75;1.25;1.5;2.5;0.5;0.25;-0.242676;0.040527;0.978516;-0.84;-1.05;0.91;351.0;-0.071076;-0.054796
0.78;4.0;2.75;2.5;2.0;0.5;0.75;0.25;0.5;2.5;0.5;0.75;1.25;0.75;2.25;0.5;0.5;-0.200684;0.023438;0.986328;-0.56;0.56;0.56;256.0;-0.070245;-0.010584;4.25;5.0;1.5;2.75;1.25;2.5;0.25;1.25;3.25;0.5;1.25;1.25;1.5;2.25;0.5;0.25;-0.250977;0.039062;0.979004;-0.91;-1.05;0.77;343.0;-0.080734;-0.057857
0.79;4.25;2.5;2.75;2.25;0.5;0.75;0.0;0.5;3.0;0.25;0.75;1.0;0.5;2.0;0.5;0.5;-0.203613;0.023926;0.990234;-0.56;0.63;0.56;255.0;-0.081904;-0.000297;4.25;4.75;1.5;2.5;1.5;2.75;0.25;1.25;3.25;0.5;1.75;0.75;1.5;2.25;0.5;0.25;-0.245605;0.043945;0.978516;-0.77;-0.91;0.77;343.0;-0.07721;-0.053395
0.8;4.25;2.75;2.75;2.25;0.5;0.75;0.0;0.75;3.0;0.5;0.75;1.0;0.5;2.25;0.5;0.5;-0.208496;0.016113;0.989746;-0.56;0.56;0.42;267.0;-0.07624;-0.00574;4.25;5.0;1.5;2.5;1.5;2.5;0.25;1.25;3.25;0.75;1.75;0.75;1.5;2.25;0.5;0.25;-0.24707;0.043945;0.981934;-0.84;-1.12;0.77;345.0;-0.076426;-0.051362
0.81;4.25;2.75;2.75;1.75;0.5;1.0;0.25;0.75;2.25;0.5;1.0;1.0;0.5;2.25;0.5;0.5;-0.205566;0.012695;0.997559;-0.49;0.49;0.7;260.0;-0.080157;-0.012579;4.25;5.0;1.75;2.5;1.25;2.5;0.25;1.25;3.25;0.75;1.75;1.0;1.5;2.25;0.5;0.25;-0.241211;0.039551;0.977051;-0.84;-1.12;0.7;348.0;-0.075306;-0.053123
0.82;4.25;3.0;2.75;2.0;0.5;1.0;0.25;0.5;2.75;0.5;1.0;0.75;0.75;1.75;0.25;0.5;-0.196289;0.021484;0.990723;-0.56;0.63;0.7;260.0;-0.092732;-0.006119;4.25;5.75;1.5;2.75;1.25;2.75;0.25;1.25;3.25;0.5;1.75;1.0;1.5;2.25;0.5;0.25;-0.246094;0.038086;0.974121;-0.84;-1.19;0.77;356.0;-0.085878;-0.060962
0.83;4.0;3.0;2.75;2.25;0.5;0.75;0.25;0.5;2.5;0.75;0.75;0.75;0.75;2.0;0.25;0.5;-0.198242;0.018066;0.993164;-0.56;0.63;0.63;256.0;-0.091048;-0.007098;4.25;5.25;1.75;2.75;1.5;2.5;0.25;1.25;3.25;0.5;1.75;1.0;1.5;2.25;0.25;0.25;-0.240723;0.037598;0.978027;-0.91;-0.98;0.77;351.0;-0.086495;-0.055133
0.84;4.25;3.0;2.5;2.5;0.5;0.75;0.25;0.75;2.5;0.5;1.0;1.25;0.75;1.75;0.25;0.5;-0.20166;0.022461;0.992676;-0.49;0.63;0.63;267.0;-0.091391;-0.025188;4.25;5.25;1.75;2.75;1.25;2.5;0.25;1.25;3.25;0.5;1.75;1.0;1.25;2.5;0.25;0.25;-0.249023;0.038086;0.975586;-0.91;-1.05;0.7;348.0;-0.084563;-0.051834
0.85;4.25;3.0;2.5;2.5;0.5;0.75;0.0;0.75;2.75;0.5;1.0;1.0;1.0;2.0;0.25;0.5;-0.20459;0.019531;0.990234;-0.49;0.49;0.63;268.0;-0.085955;-0.024473;4.75;5.0;1.75;2.75;1.5;2.5;0.25;1.25;3.25;0.5;1.75;0.75;1.25;2.5;0.5;0.25;-0.240234;0.039062;0.974121;-0.91;-1.12;0.84;354.0;-0.086035;-0.045756
0.86;4.25;2.75;2.75;2.25;0.5;0.75;0.0;0.75;2.75;0.5;1.0;0.75;0.5;1.75;0.25;0.5;-0.200684;0.020996;0.989258;-0.63;0.63;0.63;256.0;-0.095026;-0.010095;4.5;5.0;1.75;2.5;1.5;2.5;0.25;1.25;3.25;0.25;1.75;1.0;1.25;2.25;0.5;0.25;-0.249023;0.036621;0.979492;-0.77;-0.91;0.77;346.0;-0.085272;-0.049949
0.87;4.25;3.0;2.75;2.25;0.5;0.75;0.25;0.75;2.75;0.5;0.75;0.75;0.5;2.0;0.25;0.5;-0.202148;0.016602;0.987793;-0.77;0.63;0.7;262.0;-0.094367;-0.0048;4.0;5.25;1.5;2.5;1.5;2.5;0.25;1.25;3.25;0.25;1.75;1.25;1.25;2.25;0.5;0.25;-0.244141;0.039551;0.972656;-0.84;-1.12;0.7;343.0;-0.078388;-0.056729
0.88;4.5;3.25;2.75;2.25;0.5;0.75;0.25;0.75;2.5;0.5;0.75;1.0;0.5;1.75;0.25;0.5;-0.197266;0.020996;0.997559;-0.56;0.63;0.56;264.0;-0.106654;-0.013682;4.0;4.75;1.75;2.75;1.5;3.0;0.25;1.25;3.25;0.5;1.5;1.0;1.5;2.0;0.5;0.25;-0.245605;0.038574;0.977539;-0.91;-0.91;0.77;347.0;-0.082075;-0.059872
0.89;4.5;3.25;2.75;2.25;0.5;1.0;0.25;0.5;2.5;0.75;0.75;0.75;0.5;1.5;0.25;0.25;-0.199219;0.018066;0.995117;-0.56;0.63;0.63;259.0;-0.115713;-0.006592;4.25;5.0;1.75;2.75;1.5;2.5;0.25;1.25;3.25;0.5;1.5;1.0;1.0;2.0;0.75;0.25;-0.24707;0.043945;0.975586;-0.84;-1.05;0.77;344.0;-0.085313;-0.050277
0.9;4.75;3.0;2.75;2.25;0.5;0.75;0.25;0.75;2.5;0.75;1.0;0.75;0.5;1.5;0.25;0.25;-0.207031;0.028809;0.992676;-0.63;0.7;0.63;263.0;-0.110165;-0.008093;4.25;5.5;1.75;2.5;1.25;2.5;0.25;1.25;3.25;0.5;1.75;0.75;1.25;2.25;0.75;0.5;-0.241699;0.035645;0.981934;-0.77;-1.12;0.84;350.0;-0.080976;-0.052294
0.91;4.25;3.25;2.75;2.25;0.5;0.75;0.25;0.75;2.75;0.75;1.0;0.75;0.5;1.75;0.25;0.25;-0.20459;0.015625;0.991699;-0.56;0.7;0.56;266.0;-0.097352;-0.006661;4.25;5.5;1.75;2.75;1.5;2.5;0.25;1.25;3.25;0.5;1.5;1.0;1.25;2.5;0.75;0.25;-0.246094;0.041504;0.975098;-0.84;-1.05;0.84;356.0;-0.081828;-0.051663
0.92;4.25;3.5;2.75;2.5;0.5;0.75;0.25;0.75;2.25;0.5;1.0;1.0;0.75;1.5;0.5;0.25;-0.208008;0.018555;0.994629;-0.63;0.56;0.7;267.0;-0.108911;-0.028403;4.25;5.5;1.75;2.75;1.25;2.5;0.25;1.25;3.25;0.5;1.75;1.25;1.5;2.25;0.75;0.25;-0.246094;0.037109;0.974609;-0.84;-0.98;0.77;359.0;-0.078235;-0.059245
0.93;4.5;3.75;2.75;2.5;0.5;0.75;0.25;0.75;2.5;0.25;1.0;0.5;0.75;1.25;0.25;0.5;-0.200684;0.016602;0.989258;-0.56;0.63;0.56;264.0;-0.128303;-0.022133;4.5;5.25;1.75;2.75;1.75;2.75;0.25;1.25;3.25;0.5;1.75;0.75;1.25;2.5;0.75;0.25;-0.248047;0.040527;0.977051;-0.98;-1.05;0.77;363.0;-0.082823;-0.049063
0.94;5.0;3.5;2.75;2.5;0.5;0.75;0.25;0.75;2.25;0.5;0.75;0.5;0.5;1.5;0.25;0.5;-0.198242;0.016113;0.990723;-0.63;0.7;0.63;264.0;-0.134431;-0.014335;4.75;5.5;1.75;2.75;1.75;2.5;0.25;1.0;3.25;0.5;1.75;0.5;1.25;2.5;0.75;0.25;-0.246582;0.039062;0.981934;-0.77;-1.12;0.84;358.0;-0.090292;-0.040808
0.95;5.0;3.25;2.75;2.5;0.25;0.75;0.25;0.75;2.5;0.5;0.75;0.75;0.5;1.75;0.25;0.5;-0.202637;0.020508;0.998047;-0.56;0.7;0.63;267.0;-0.118168;-0.011253;4.5;5.5;1.75;2.75;1.5;3.0;0.25;1.25;3.25;0.5;1.5;0.75;1.5;1.25;0.25;0.25;-0.244141;0.04248;0.975098;-0.91;-1.05;0.77;347.0;-0.110959;-0.06206
0.96;5.0;3.5;2.75;2.5;0.25;0.75;0.25;0.75;2.75;0.5;1.0;0.75;0.5;1.75;0.25;0.25;-0.202637;0.017578;0.996094;-0.56;0.63;0.7;274.0;-0.115023;-0.008411;4.5;5.5;1.75;2.75;1.5;2.75;0.25;1.25;3.25;0.5;1.5;0.75;1.5;2.0;0.25;0.25;-0.241699;0.041016;0.976562;-0.84;-1.12;0.77;351.0;-0.10023;-0.055523
0.97;4.5;3.75;2.75;2.5;0.5;0.75;0.25;0.75;2.5;0.5;0.75;0.5;0.75;1.75;0.25;0.5;-0.199219;0.016113;0.994629;-0.56;0.7;0.56;269.0;-0.118826;-0.016772;4.5;6.25;2.0;2.75;1.5;2.5;0.25;1.25;3.25;0.5;1.75;0.75;1.0;2.25;0.5;0.0;-0.239746;0.040039;0.977051;-0.77;-1.05;0.77;361.0;-0.103318;-0.047655
0.98;4.5;3.75;2.75;2.5;0.5;1.0;0.25;0.75;2.0;0.5;0.75;0.5;0.75;1.75;0.25;0.5;-0.207031;0.01709;0.991211;-0.56;0.63;0.7;265.0;-0.129347;-0.027524;4.5;5.75;1.75;2.75;1.5;2.5;0.25;1.25;3.25;0.5;1.75;0.75;1.25;2.25;0.5;0.0;-0.245605;0.043945;0.977539;-0.91;-1.12;0.84;355.0;-0.095668;-0.049895
0.99;4.5;3.5;2.75;2.5;0.5;0.75;0.0;0.5;2.0;0.5;0.75;0.75;0.5;1.75;0.25;0.5;-0.207031;0.014648;0.996582;-0.56;0.84;0.56;251.0;-0.130495;-0.020629;4.5;5.5;1.75;2.75;1.25;2.75;0.25;1.25;3.25;0.75;1.75;1.0;1.5;2.25;0.5;0.25;-0.241211;0.040527;0.973633;-0.77;-1.05;0.77;362.0;-0.085007;-0.056658
1.0;5.0;3.5;3.25;2.5;0.5;0.75;0.0;0.75;2.25;0.25;0.5;0.75;0.5;1.75;0.25;0.5;-0.204102;0.021973;0.994629;-0.56;0.77;0.56;265.0;-0.140172;-0.017064;4.75;5.75;1.75;2.75;1.25;2.5;0.25;1.0;3.25;0.5;1.75;0.75;1.25;2.25;0.25;0.25;-0.245605;0.042969;0.97998;-0.84;-1.05;0.7;349.0;-0.101096;-0.046343
1.01;5.0;3.75;3.0;2.25;0.5;0.5;0.25;0.5;2.5;0.25;0.5;0.75;0.5;1.75;0.25;0.5;-0.202148;0.017578;0.991699;-0.56;0.7;0.63;262.0;-0.132705;-0.000446;4.75;5.5;1.5;2.5;1.5;2.5;0.25;1.0;3.25;0.5;1.25;0.75;1.5;2.0;0.25;0.25;-0.244141;0.038574;0.972168;-0.77;-1.05;0.77;338.0;-0.102997;-0.047388
1.02;5.0;3.75;2.75;2.5;0.5;0.75;0.25;1.0;2.5;0.5;0.5;0.75;0.5;1.75;0.25;0.25;-0.20752;0.023438;0.992188;-0.7;0.63;0.63;275.0;-0.128279;-0.016349;4.5;5.5;1.75;2.75;1.5;2.5;0.25;1.25;3.25;0.25;1.25;1.0;1.5;2.25;0.5;0.25;-0.24707;0.038086;0.971191;-0.84;-1.05;0.84;351.0;-0.095128;-0.054802
1.03;4.75;3.5;2.75;2.5;0.5;0.75;0.25;0.5;2.25;0.5;0.5;0.75;0.75;1.75;0.5;0.5;-0.202148;0.022461;0.996094;-0.56;0.7;0.56;264.0;-0.120237;-0.014712;4.75;5.75;1.75;2.75;1.5;2.5;0.25;1.25;3.25;0.25;1.75;1.0;1.25;2.25;0.5;0.25;-0.243164;0.039062;0.979492;-0.84;-1.05;0.77;359.0;-0.096431;-0.052602
1.04;4.75;3.5;2.75;2.5;0.5;0.75;0.25;0.5;2.0;0.5;0.75;0.5;0.75;2.0;0.25;0.25;-0.20166;0.020508;0.98291;-0.77;0.63;0.56;259.0;-0.129103;-0.012508;4.75;5.75;1.75;2.75;1.5;2.5;0.25;1.0;3.25;0.5;1.5;0.75;1.25;2.0;0.5;0.25;-0.241699;0.037598;0.975098;-0.91;-1.05;0.77;350.0;-0.103216;-0.046631
1.05;4.5;3.5;2.75;2.5;0.5;0.75;0.25;0.75;2.25;0.5;1.0;0.75;0.5;1.75;0.25;0.25;-0.20166;0.020508;0.993164;-0.7;0.77;0.63;265.0;-0.119016;-0.017774;5.0;5.5;1.75;2.75;1.5;2.5;0.25;1.25;3.25;0.5;1.5;0.75;1.25;2.0;0.25;0.25;-0.241211;0.037109;0.975586;-0.77;-1.05;0.91;352.0;-0.106471;-0.04832
1.06;5.25;3.75;3.0;2.5;0.5;1.0;0.25;0.75;2.25;0.5;1.0;0.75;0.75;1.75;0.25;0.5;-0.200195;0.020508;0.992676;-0.63;0.7;0.56;285.0;-0.127141;-0.02203;5.0;5.5;1.75;2.75;1.25;2.5;0.25;1.25;3.25;0.5;1.25;0.75;1.25;2.75;0.5;0.25;-0.244629;0.044434;0.981445;-0.77;-1.05;0.77;356.0;-0.094676;-0.044549
1.07;4.5;3.75;3.0;2.25;0.5;0.75;0.25;0.5;2.25;0.5;1.0;0.75;0.75;1.75;0.25;0.5;-0.204102;0.020508;0.990234;-0.63;0.7;0.56;267.0;-0.118067;-0.015347;4.75;5.5;1.75;2.75;1.25;2.5;0.25;1.25;3.0;0.5;1.25;0.75;1.25;2.25;0.5;0.25;-0.240234;0.03418;0.979004;-0.77;-0.98;0.84;345.0;-0.102622;-0.052112
1.08;4.5;3.75;2.75;2.5;0.5;0.75;0.0;0.5;2.25;0.5;0.5;0.5;0.75;1.75;0.25;0.25;-0.204102;0.020508;0.996094;-0.7;0.56;0.63;252.0;-0.13586;-0.016077;4.5;5.5;1.75;2.75;1.5;2.5;0.25;1.0;3.0;0.5;1.5;1.0;1.25;2.0;0.5;0.25;-0.244141;0.039062;0.978516;-0.84;-0.98;0.77;344.0;-0.09958;-0.052457
1.09;4.5;3.75;2.75;2.5;0.5;0.75;0.0;0.5;2.25;0.5;0.5;0.5;0.75;1.75;0.5;0.5;-0.204102;0.01416;0.987793;-0.7;0.77;0.56;257.0;-0.126933;-0.018531;5.25;5.75;1.75;2.75;1.5;2.5;0.25;1.25;3.0;0.5;1.25;0.75;1.0;2.25;0.5;0.25;-0.239746;0.043457;0.975586;-0.84;-1.05;0.77;353.0;-0.111679;-0.046657
1.1;5.0;3.75;2.75;2.5;0.25;0.75;0.0;0.5;2.5;0.5;0.5;0.75;0.5;1.5;0.5;0.5;-0.204102;0.020508;0.992188;-0.7;0.77;0.56;261.0;-0.131455;-0.013489;5.0;5.75;1.75;2.75;1.5;2.5;0.25;1.0;3.0;0.75;1.25;0.75;1.0;2.25;0.5;0.25;-0.244629;0.042969;0.972168;-0.77;-1.12;0.84;349.0;-0.107636;-0.042902
1.11;4.5;3.75;2.75;2.5;0.25;0.75;0.25;0.75;2.5;0.5;0.5;0.75;0.5;1.75;0.25;0.5;-0.20459;0.020508;0.985352;-0.63;0.63;0.63;263.0;-0.121493;-0.015662;4.75;5.75;1.75;2.75;1.5;2.5;0.25;1.0;3.0;0.75;1.75;0.75;1.25;2.25;0.5;0.25;-0.249023;0.036133;0.975098;-0.98;-1.12;0.84;354.0;-0.098054;-0.048073
1.12;4.75;3.75;2.75;2.5;0.5;0.75;0.25;0.5;2.5;0.5;0.5;0.75;0.5;1.75;0.25;0.5;-0.206055;0.022949;0.988281;-0.7;0.84;0.63;265.0;-0.126258;-0.007552;4.75;6.25;1.75;2.75;1.5;2.5;0.25;1.25;3.25;0.5;1.75;1.0;1.25;2.25;0.5;0.25;-0.241699;0.038086;0.980469;-0.91;-1.12;0.84;367.0;-0.098218;-0.053258
1.13;5.0;3.75;2.75;2.5;0.5;0.75;0.25;0.5;2.5;0.5;0.5;0.75;0.5;1.75;0.25;0.5;-0.204102;0.019043;0.995605;-0.63;0.77;0.56;268.0;-0.129183;-0.006322;5.0;5.75;1.75;2.75;1.5;2.5;0.25;1.25;3.0;0.25;1.5;0.75;1.5;2.25;0.5;0.25;-0.241699;0.037109;0.978027;-0.91;-1.12;0.77;355.0;-0.10573;-0.054837
1.14;5.0;3.5;2.75;2.5;0.5;0.75;0.25;0.5;2.5;0.5;0.5;0.75;0.75;1.75;0.25;0.5;-0.200684;0.018066;0.986816;-0.63;0.63;0.56;268.0;-0.12385;-0.008822;5.0;5.75;1.75;2.75;1.25;2.25;0.25;1.0;3.25;0.5;1.5;0.75;1.0;2.25;0.25;0.25;-0.244629;0.036621;0.977539;-0.77;-1.05;0.91;344.0;-0.10771;-0.039687
1.15;4.5;3.5;2.75;2.5;0.5;0.75;0.25;0.75;2.0;0.5;0.5;0.75;0.75;1.75;0.0;0.5;-0.203125;0.018555;0.995605;-0.7;0.77;0.63;256.0;-0.132429;-0.024731;5.0;6.25;1.75;2.75;1.5;2.5;0.25;1.0;3.25;0.5;1.5;1.0;1.0;2.25;0.5;0.25;-0.244141;0.037598;0.973633;-0.84;-1.19;0.84;361.0;-0.105918;-0.044919
1.16;5.0;3.75;2.75;2.5;0.5;1.0;0.0;0.5;2.5;0.5;0.5;0.75;0.5;1.5;0.25;0.5;-0.199707;0.021973;0.992188;-0.7;0.84;0.49;264.0;-0.137463;-0.014814;4.75;5.75;1.75;2.75;1.5;2.5;0.25;1.0;3.25;0.5;1.25;0.75;1.25;2.25;0.25;0.25;-0.244629;0.037598;0.979492;-0.91;-1.12;0.77;347.0;-0.106701;-0.044263
1.17;5.0;3.75;2.75;2.5;0.5;0.75;0.0;0.5;2.5;0.5;0.75;0.75;0.5;1.5;0.25;0.5;-0.203613;0.024414;0.992676;-0.7;0.7;0.56;264.0;-0.133364;-0.013003;5.0;5.75;1.75;3.0;1.5;2.5;0.25;1.0;3.25;0.5;1.5;0.75;1.5;2.25;0.25;0.25;-0.240723;0.041504;0.970215;-0.98;-1.19;0.77;358.0;-0.106084;-0.047886
1.18;5.0;3.75;2.75;2.5;0.5;0.75;0.0;0.5;2.0;0.5;0.5;1.0;0.5;1.75;0.5;0.5;-0.204102;0.018066;0.98877;-0.7;0.77;0.49;262.0;-0.133408;-0.02189;5.0;6.0;1.75;3.0;1.5;2.75;0.25;1.0;3.25;0.5;1.5;0.75;1.25;2.25;0.25;0.25;-0.239746;0.039062;0.978516;-0.84;-0.98;0.7;361.0;-0.110432;-0.047867
1.19;4.75;3.5;2.75;2.5;0.5;0.75;0.0;0.5;2.0;0.5;0.5;0.75;0.5;1.5;0.25;0.5;-0.199707;0.016113;0.983398;-0.56;0.77;0.56;249.0;-0.142756;-0.019912;5.0;6.25;2.0;2.75;1.75;2.75;0.25;1.0;3.25;0.5;1.75;0.75;1.0;2.5;0.25;0.25;-0.242676;0.040527;0.977539;-0.77;-1.05;0.84;369.0;-0.108376;-0.041687
1.2;4.5;3.5;3.0;2.5;0.5;0.5;0.0;0.5;2.5;0.5;0.5;0.75;0.5;1.5;0.25;0.5;-0.204102;0.018066;0.991211;-0.56;0.7;0.63;253.0;-0.129944;-0.008758;5.0;6.0;1.75;3.0;1.5;2.75;0.25;1.25;3.25;0.5;1.25;0.75;1.25;2.5;0.5;0.25;-0.246094;0.040039;0.97998;-0.84;-1.12;0.77;367.0;-0.10459;-0.050078
1.21;4.75;3.75;2.75;2.5;0.5;0.75;0.0;0.5;2.25;0.5;0.5;0.5;0.5;2.0;0.25;0.5;-0.199219;0.023438;0.987305;-0.63;0.77;0.49;257.0;-0.133786;-0.010579;5.25;6.25;1.75;2.75;1.5;2.75;0.25;1.0;3.0;0.5;1.75;0.75;1.0;2.25;0.5;0.0;-0.247559;0.040039;0.978516;-0.77;-1.05;0.77;361.0;-0.114;-0.046211
1.22;5.0;3.5;2.75;2.25;0.5;0.75;0.0;0.5;2.0;0.5;0.5;0.5;0.5;1.75;0.25;0.5;-0.199707;0.020996;0.996582;-0.56;0.77;0.63;248.0;-0.142861;-0.010916;5.0;6.75;1.75;3.0;1.5;2.75;0.25;1.0;3.0;0.5;1.75;0.75;1.0;2.25;0.5;0.0;-0.248535;0.03418;0.973145;-0.77;-0.98;0.84;367.0;-0.117347;-0.050517
1.23;4.75;3.75;2.75;2.5;0.5;1.0;0.0;0.5;2.0;0.5;0.5;0.5;0.5;1.5;0.25;0.25;-0.200684;0.018555;0.995117;-0.63;0.77;0.63;250.0;-0.152658;-0.019476;5.0;6.75;1.75;3.0;1.5;2.75;0.25;1.0;3.0;0.5;1.25;0.75;1.5;2.25;0.25;0.25;-0.243652;0.039551;0.976562;-0.77;-1.05;0.84;364.0;-0.121219;-0.055625
1.24;4.5;3.75;2.75;2.5;0.5;1.0;0.0;0.5;2.0;0.5;0.5;0.5;0.5;1.75;0.25;0.25;-0.208984;0.01709;0.987305;-0.49;0.63;0.56;250.0;-0.144558;-0.019097;5.25;6.25;1.75;3.0;1.5;2.5;0.25;1.0;3.25;0.5;1.5;0.75;1.25;2.25;0.0;0.0;-0.239746;0.040527;0.976074;-0.7;-1.12;0.91;359.0;-0.120625;-0.044226
1.25;4.75;3.75;2.75;2.5;0.5;0.75;0.0;0.5;2.25;0.25;0.5;0.5;0.5;1.75;0.25;0.5;-0.205078;0.018066;0.989746;-0.63;0.63;0.63;252.0;-0.143055;-0.013158;5.0;6.0;1.75;2.75;1.25;2.5;0.25;1.25;3.0;0.5;1.25;1.0;1.25;2.25;0.0;0.25;-0.242676;0.034668;0.982422;-0.77;-0.98;0.77;350.0;-0.115385;-0.053969
1.26;5.25;3.75;3.0;2.5;0.5;0.75;0.0;0.5;2.25;0.5;0.5;0.5;0.5;1.5;0.5;0.5;-0.204102;0.021484;0.989258;-0.63;0.63;0.56;264.0;-0.144826;-0.010954;4.75;6.25;2.0;2.75;1.5;2.5;0.25;1.25;3.0;0.5;1.5;1.0;1.25;2.25;0.25;0.25;-0.248047;0.040527;0.98291;-0.91;-1.12;0.7;361.0;-0.109727;-0.054573
1.27;5.25;3.75;3.0;2.5;0.5;1.0;0.0;0.5;2.0;0.5;0.75;0.5;0.5;1.5;0.5;0.5;-0.205566;0.017578;0.987793;-0.7;0.77;0.49;266.0;-0.146317;-0.018849;5.0;6.25;2.0;3.0;1.5;2.5;0.25;1.0;3.0;0.5;1.5;0.75;1.0;2.5;0.25;0.0;-0.242188;0.040527;0.978027;-0.84;-1.05;0.84;358.0;-0.117616;-0.043601
1.28;4.75;3.75;3.0;2.25;0.5;0.75;0.0;0.5;2.25;0.25;0.75;0.75;0.5;1.75;0.5;0.5;-0.200195;0.021484;0.987793;-0.7;0.56;0.56;260.0;-0.128812;-0.014538;5.0;6.75;2.0;3.0;1.25;2.75;0.25;1.0;3.25;0.5;1.25;0.75;1.0;2.0;0.25;0.25;-0.245605;0.038574;0.977539;-0.84;-1.05;0.77;361.0;-0.125891;-0.048306
1.29;4.5;3.5;3.0;2.5;0.5;0.75;0.0;0.5;2.0;0.25;0.75;0.75;0.5;1.75;0.25;0.25;-0.205566;0.016113;0.991699;-0.7;0.77;0.49;250.0;-0.139267;-0.018514;5.5;6.75;2.0;3.0;1.5;2.5;0.25;1.0;3.0;0.5;1.25;0.75;1.0;2.0;0.5;0.25;-0.241211;0.039062;0.976074;-0.98;-1.12;0.77;366.0;-0.129517;-0.04657
1.3;5.25;3.75;3.0;2.5;0.25;0.75;0.0;0.5;2.25;0.25;0.5;0.75;0.5;1.5;0.25;0.5;-0.203125;0.025879;0.987793;-0.7;0.63;0.63;258.0;-0.151491;-0.015013;6.0;6.75;2.0;3.0;1.25;2.25;0.25;1.0;3.0;0.5;1.25;0.75;1.0;2.25;0.5;0.0;-0.248047;0.038574;0.979492;-0.91;-1.12;0.84;366.0;-0.132139;-0.040715
1.31;5.0;3.75;2.75;2.5;0.5;0.75;0.0;0.5;2.25;0.25;0.5;0.5;0.5;1.5;0.25;0.5;-0.203613;0.018555;0.984375;-0.7;0.63;0.63;252.0;-0.151091;-0.013546;5.25;6.75;2.0;3.0;1.25;2.5;0.25;1.0;3.0;0.5;1.5;0.5;1.0;2.25;0.5;0.0;-0.240234;0.040527;0.982422;-0.98;-1.05;0.77;361.0;-0.125811;-0.044707
1.32;4.75;4.0;2.75;2.5;0.5;1.0;0.0;0.5;2.0;0.25;0.5;0.5;0.5;1.5;0.25;0.25;-0.208008;0.021973;0.986328;-0.7;0.63;0.56;250.0;-0.159796;-0.021905;5.25;7.0;2.0;3.0;1.5;2.5;0.25;1.0;3.0;0.5;1.5;0.75;1.25;2.5;0.25;0.25;-0.249023;0.039551;0.978027;-0.98;-1.05;0.84;373.0;-0.122138;-0.048646
1.33;4.75;3.75;2.75;2.5;0.5;0.75;0.0;0.5;2.25;0.25;0.5;0.5;0.5;1.25;0.25;0.25;-0.207031;0.015137;0.995605;-0.7;0.84;0.56;245.0;-0.156601;-0.014955;4.75;7.0;2.0;3.0;1.5;2.5;0.25;1.0;3.0;0.5;1.25;0.75;1.25;2.0;0.25;0.0;-0.246582;0.041992;0.975586;-0.98;-1.12;0.84;358.0;-0.129409;-0.052438
1.34;5.5;3.75;3.0;2.5;0.5;0.75;0.25;0.5;2.0;0.25;0.5;0.5;0.5;1.5;0.25;0.5;-0.203613;0.019043;0.998047;-0.63;0.7;0.63;261.0;-0.159815;-0.009599;5.5;7.0;2.0;3.0;1.5;2.5;0.25;1.0;3.0;0.5;1.25;0.75;1.25;2.0;0.25;0.0;-0.244141;0.041504;0.979004;-0.98;-0.91;0.84;366.0;-0.135752;-0.048702
1.35;5.25;4.0;3.0;2.5;0.5;0.75;0.0;0.5;2.0;0.5;0.5;0.5;0.5;1.5;0.25;0.5;-0.208984;0.02002;0.985352;-0.7;0.7;0.56;260.0;-0.159082;-0.015602;6.25;7.25;2.0;3.0;1.25;2.5;0.25;1.0;3.0;0.5;1.25;0.5;1.0;2.0;0.5;0.0;-0.24707;0.037598;0.976562;-1.19;-1.12;0.84;372.0;-0.144255;-0.042521
1.36;5.0;4.0;3.0;2.5;0.5;0.75;0.0;0.5;2.0;0.5;0.75;0.5;0.5;1.25;0.25;0.5;-0.198242;0.020508;0.990723;-0.77;0.63;0.56;257.0;-0.157277;-0.019826;6.25;7.25;2.0;3.0;1.5;2.25;0.25;1.0;3.25;0.5;1.25;0.5;1.0;1.75;0.25;0.0;-0.244141;0.039062;0.980957;-1.19;-1.19;0.77;370.0;-0.14793;-0.037844
1.37;5.5;4.0;3.0;2.5;0.5;0.5;0.0;0.5;2.0;0.25;0.5;0.75;0.5;1.5;0.25;0.25;-0.20166;0.02002;0.991699;-0.63;0.63;0.56;258.0;-0.16511;-0.013567;6.25;7.5;2.0;3.0;1.5;2.5;0.25;1.0;3.0;0.5;1.25;0.25;1.0;2.0;0.25;0.0;-0.243164;0.041992;0.975586;-1.4;-1.19;0.91;372.0;-0.152938;-0.040253
1.38;5.25;4.0;3.0;2.5;0.25;0.75;0.0;0.5;2.0;0.25;0.5;0.75;0.5;1.5;0.25;0.25;-0.20459;0.025391;0.984863;-0.77;0.84;0.49;255.0;-0.162789;-0.018825;6.0;7.5;2.0;3.0;1.25;2.5;0.25;0.75;3.0;0.5;1.25;0.5;0.75;2.0;0.25;0.0;-0.244629;0.043945;0.979004;-1.47;-1.19;0.84;362.0;-0.152048;-0.037513
1.39;5.0;4.0;2.75;2.5;0.5;0.75;0.0;0.5;2.0;0.5;0.5;0.75;0.5;1.75;0.5;0.25;-0.200195;0.020996;0.992676;-0.77;0.7;0.49;260.0;-0.142738;-0.018596;6.25;7.5;2.0;3.0;1.5;2.25;0.25;0.75;3.0;0.5;1.25;0.5;0.75;2.0;0.25;0.0;-0.244141;0.035645;0.974121;-1.61;-1.26;0.7;365.0;-0.153773;-0.033649
1.4;5.0;4.0;2.75;2.5;0.5;0.75;0.0;0.5;2.0;0.5;0.5;0.5;0.5;2.0;0.5;0.25;-0.205078;0.019531;0.990234;-0.77;0.77;0.49;260.0;-0.141673;-0.01377;6.5;7.75;2.25;3.0;1.5;2.5;0.25;0.75;3.0;0.5;1.25;0.25;1.0;1.75;0.25;0.0;-0.244141;0.041504;0.978027;-1.75;-1.47;0.7;374.0;-0.162611;-0.036353
1.41;4.75;4.0;3.0;2.5;0.5;1.0;0.0;0.5;2.0;0.25;0.5;0.75;0.5;1.75;0.25;0.5;-0.20459;0.022461;0.991211;-0.56;0.56;0.56;259.0;-0.148856;-0.02352;7.25;7.75;2.25;3.25;1.5;2.25;0.25;0.75;3.0;0.5;1.0;0.25;1.0;2.0;0.5;0.0;-0.245117;0.037598;0.978027;-1.61;-1.26;0.63;385.0;-0.164143;-0.031245
1.42;5.5;4.0;3.0;2.5;0.5;0.75;0.0;0.5;2.0;0.25;0.75;1.0;0.5;1.25;0.25;0.25;-0.205566;0.020508;0.988281;-0.7;0.7;0.56;265.0;-0.161736;-0.02234;7.25;7.75;2.25;3.25;1.75;2.25;0.25;0.75;3.0;0.5;1.0;0.25;1.0;1.75;0.25;0.0;-0.245117;0.041504;0.974609;-1.54;-1.26;0.63;382.0;-0.171627;-0.031405
1.43;5.5;4.0;2.75;2.5;0.25;0.5;0.0;0.5;2.25;0.5;0.75;0.75;0.25;1.25;0.25;0.25;-0.202637;0.01709;0.991699;-0.7;0.7;0.49;257.0;-0.157958;-0.009557;7.25;8.0;2.5;3.25;1.75;2.25;0.25;0.75;3.0;0.5;1.25;0.5;1.0;1.75;0.25;0.0;-0.247559;0.038574;0.973145;-1.47;-1.26;0.7;394.0;-0.16825;-0.033882
1.44;5.25;4.25;3.0;2.5;0.25;0.5;0.0;0.5;2.5;0.5;0.75;0.5;0.25;1.5;0.5;0.25;-0.196777;0.020508;0.991211;-0.7;0.63;0.56;265.0;-0.146333;-0.003381;7.25;8.0;2.25;3.25;1.5;2.25;0.25;0.5;3.0;0.25;1.25;0.5;0.75;2.0;0.25;0.0;-0.240234;0.037598;0.972656;-1.19;-1.19;0.77;381.0;-0.171114;-0.028498
1.45;5.25;4.0;3.0;2.5;0.5;0.75;0.0;0.5;2.5;0.5;0.5;0.75;0.5;1.75;0.5;0.25;-0.204102;0.014648;0.988281;-0.7;0.63;0.56;274.0;-0.136365;-0.008415;7.5;8.25;2.25;3.25;1.5;2.0;0.25;0.5;3.0;0.25;1.25;0.25;0.75;2.0;0.25;0.0;-0.236816;0.036621;0.974609;-1.05;-1.05;0.84;380.0;-0.177499;-0.024448
1.46;5.25;4.0;3.0;2.5;0.25;0.75;0.0;0.5;2.25;0.5;0.5;0.75;0.5;1.5;0.25;0.25;-0.205566;0.013672;0.989746;-0.77;0.7;0.49;262.0;-0.152684;-0.013921;7.25;8.25;2.25;3.25;1.5;2.25;0.25;0.75;3.0;0.5;1.25;0.5;0.75;2.0;0.0;0.0;-0.244629;0.031738;0.975098;-0.91;-1.05;0.91;387.0;-0.172268;-0.032224
1.47;5.25;4.0;3.0;2.5;0.25;0.75;0.0;0.5;2.25;0.5;0.5;0.75;0.5;1.5;0.5;0.25;-0.200195;0.02002;0.98584;-0.7;0.77;0.49;265.0;-0.146615;-0.01466;7.25;8.0;2.25;3.25;1.5;2.25;0.25;0.75;3.0;0.5;1.0;0.5;0.75;2.0;0.25;0.0;-0.239258;0.037598;0.980957;-0.91;-1.05;0.84;385.0;-0.169307;-0.031097
1.48;5.5;4.0;3.25;2.5;0.5;0.75;0.0;0.5;2.0;0.5;0.5;0.5;0.5;1.75;0.25;0.25;-0.206055;0.02002;0.992188;-0.7;0.63;0.56;266.0;-0.160799;-0.009739;7.25;8.0;2.25;3.5;1.5;2.25;0.25;0.75;3.0;0.5;1.0;0.25;0.75;1.75;0.25;0.0;-0.248535;0.035156;0.978516;-0.91;-0.98;0.84;382.0;-0.176613;-0.031889
1.49;5.5;4.0;3.25;2.5;0.5;0.75;0.0;0.5;2.5;0.5;0.5;0.5;0.25;1.5;0.0;0.25;-0.201172;0.020996;0.982422;-0.7;0.56;0.56;266.0;-0.163634;0.001039;7.25;8.0;2.25;3.25;1.5;2.0;0.25;0.75;3.0;0.25;1.25;0.25;1.0;1.75;0.25;0.25;-0.244141;0.036621;0.974609;-0.84;-0.91;0.84;380.0;-0.171786;-0.033587
1.5;5.5;4.0;3.0;2.5;0.5;0.5;0.0;0.5;2.0;0.5;0.5;0.5;0.25;1.5;0.0;0.5;-0.203613;0.020996;0.992188;-0.7;0.7;0.56;254.0;-0.171304;-0.006332;7.25;8.0;2.25;3.5;1.5;2.25;0.25;0.75;3.0;0.25;1.25;0.5;1.0;1.75;0.0;0.25;-0.238281;0.033691;0.981934;-0.91;-1.12;0.84;386.0;-0.173994;-0.038509
1.51;5.25;4.0;3.0;2.5;0.5;0.5;0.0;0.5;2.0;0.5;0.25;0.5;0.25;1.5;0.25;0.5;-0.203125;0.016113;0.982422;-0.7;0.7;0.42;252.0;-0.166615;-0.007246;7.25;8.0;2.25;3.5;1.5;1.75;0.25;0.75;3.0;0.25;1.0;0.5;1.0;1.75;0.0;0.0;-0.239258;0.037109;0.975098;-0.84;-1.12;0.84;376.0;-0.179484;-0.03313
1.52;5.5;4.5;3.25;2.5;0.5;0.75;0.0;0.5;2.5;0.5;0.25;0.5;0.5;1.5;0.25;0.5;-0.204102;0.023438;0.995117;-0.7;0.7;0.49;275.0;-0.160694;-0.007333;7.25;8.0;2.25;3.25;1.5;2.0;0.25;0.75;3.0;0.5;1.0;0.5;0.75;1.75;0.25;0.0;-0.245117;0.036133;0.983398;-0.7;-1.05;0.84;379.0;-0.173001;-0.030479
1.53;5.5;4.5;3.0;2.5;0.5;0.5;0.0;0.5;2.5;0.25;0.25;0.5;0.5;1.5;0.25;0.5;-0.204102;0.021484;0.990723;-0.63;0.7;0.49;266.0;-0.163872;-0.006232;7.25;8.0;2.25;3.25;1.5;2.25;0.25;0.75;2.75;0.25;1.25;0.5;0.75;1.75;0.25;0.0;-0.243164;0.037109;0.971191;-0.7;-1.05;0.84;379.0;-0.176981;-0.036613
1.54;5.5;4.0;3.0;2.5;0.5;0.5;0.0;0.5;2.5;0.25;0.5;0.5;0.5;1.75;0.25;0.5;-0.203613;0.02002;0.992676;-0.63;0.84;0.56;266.0;-0.149873;-0.002779;7.25;8.0;2.25;3.25;1.75;2.25;0.25;0.75;3.0;0.25;1.25;0.5;0.75;2.0;0.0;0.0;-0.243164;0.034668;0.975586;-0.63;-0.98;0.91;385.0;-0.173349;-0.031328
1.55;5.5;4.0;3.25;2.5;0.5;0.75;0.0;0.5;2.0;0.5;0.25;0.5;0.5;1.75;0.25;0.5;-0.20459;0.015625;0.995605;-0.77;0.7;0.56;265.0;-0.16206;-0.010292;7.25;8.0;2.25;3.25;1.5;2.25;0.25;0.75;3.0;0.5;0.75;0.5;0.75;2.0;0.25;0.0;-0.240723;0.033691;0.97998;-0.63;-0.91;0.84;382.0;-0.172267;-0.030462
1.56;5.5;4.25;3.5;2.5;0.5;0.5;0.0;0.5;2.0;0.25;0.25;0.5;0.5;1.25;0.0;0.5;-0.208008;0.016113;0.996094;-0.63;0.56;0.42;257.0;-0.18705;-0.011014;7.25;7.75;2.25;3.0;1.5;2.25;0.25;0.75;2.75;0.5;0.75;0.5;1.0;1.75;0.25;0.0;-0.245117;0.037598;0.974121;-0.77;-0.98;0.77;373.0;-0.175284;-0.034924
1.57;5.5;4.0;3.5;2.5;0.5;0.75;0.0;0.5;2.25;0.25;0.5;0.75;0.5;1.5;0.25;0.5;-0.203125;0.024414;0.984375;-0.7;0.63;0.49;272.0;-0.158825;-0.011947;7.25;7.75;2.0;3.25;1.75;2.25;0.25;0.75;3.0;0.5;1.0;0.25;1.0;1.75;0.25;0.0;-0.242188;0.039062;0.976074;-0.56;-0.98;0.77;379.0;-0.170872;-0.032376
1.58;5.75;4.0;3.25;2.5;0.5;0.75;0.0;0.5;2.5;0.5;0.5;0.75;0.5;1.75;0.0;0.25;-0.203613;0.014648;0.994629;-0.7;0.7;0.56;277.0;-0.154531;-0.003409;7.25;8.0;2.0;3.25;1.5;2.25;0.25;0.75;3.25;0.5;1.0;0.25;0.75;2.25;0.25;0.0;-0.243164;0.035156;0.974121;-0.77;-0.98;0.84;385.0;-0.163906;-0.025969
1.59;5.5;4.0;3.0;2.5;0.5;1.0;0.0;0.5;2.0;0.5;0.5;0.5;0.5;1.5;0.0;0.25;-0.205566;0.017578;0.990723;-0.63;0.7;0.49;261.0;-0.170812;-0.014763;7.0;8.0;2.25;3.25;1.5;2.25;0.25;0.75;3.0;0.25;1.25;0.5;1.0;2.0;0.0;0.25;-0.243652;0.035156;0.976562;-0.7;-0.91;0.77;383.0;-0.167854;-0.036828
1.6;5.5;4.0;3.0;2.5;0.25;0.5;0.0;0.5;2.25;0.25;0.5;0.5;0.25;1.5;0.25;0.25;-0.200684;0.015625;0.986328;-0.77;0.77;0.56;254.0;-0.166992;-0.003023;7.25;8.5;2.25;3.5;1.5;2.25;0.25;0.75;3.0;0.5;1.0;0.5;1.0;2.0;0.25;0.0;-0.248535;0.040039;0.980957;-0.56;-0.77;0.77;395.0;-0.17134;-0.036856
1.61;5.5;4.0;3.25;2.5;0.25;0.5;0.0;0.5;2.5;0.25;0.5;0.5;0.25;1.75;0.25;0.5;-0.206543;0.018555;0.986816;-0.63;0.56;0.56;264.0;-0.154338;0.001647;6.75;8.5;2.25;3.75;1.5;2.25;0.25;0.75;3.0;0.5;1.25;0.5;1.25;2.0;0.25;0.0;-0.249023;0.037109;0.977539;-0.56;-0.91;0.84;398.0;-0.164041;-0.04343
1.62;5.5;4.5;2.75;2.5;0.25;0.5;0.0;0.5;2.25;0.25;0.5;0.5;0.25;1.75;0.25;0.25;-0.205078;0.016602;0.988281;-0.77;0.63;0.56;258.0;-0.165489;-0.005676;6.75;8.5;2.25;3.25;1.25;2.25;0.25;0.75;3.0;0.5;1.25;0.5;1.0;2.0;0.5;0.0;-0.243652;0.036621;0.975098;-0.56;-0.84;0.84;389.0;-0.160244;-0.039198
1.63;5.25;4.0;2.75;2.5;0.5;0.5;0.0;0.5;2.0;0.25;0.75;0.5;0.5;1.5;0.25;0.25;-0.209473;0.023438;0.991211;-0.7;0.63;0.56;252.0;-0.161062;-0.014119;6.75;8.5;2.25;3.25;1.25;2.25;0.25;0.75;3.0;0.25;1.25;0.5;1.0;2.0;0.25;0.25;-0.23877;0.040527;0.977539;-0.49;-0.84;0.84;385.0;-0.165429;-0.040695
1.64;5.0;3.75;2.75;2.5;0.5;0.5;0.0;0.5;2.5;0.25;0.5;0.25;0.5;1.5;0.25;0.25;-0.210938;0.017578;0.990723;-0.56;0.49;0.56;248.0;-0.152434;-0.001228;6.5;8.5;2.25;3.0;1.5;2.25;0.25;1.0;3.0;0.25;1.5;0.75;1.0;2.25;0.25;0.25;-0.249023;0.041016;0.974609;-0.49;-0.77;0.77;394.0;-0.151897;-0.044421
1.65;5.25;4.25;2.75;2.5;0.5;0.5;0.0;0.5;2.0;0.25;0.5;0.5;0.5;1.75;0.25;0.25;-0.205078;0.020996;0.990234;-0.56;0.56;0.63;254.0;-0.162711;-0.012729;6.25;7.75;2.0;3.0;1.25;2.25;0.25;1.0;3.0;0.5;1.75;0.5;1.0;2.25;0.25;0.25;-0.243652;0.041992;0.977539;-0.56;-0.77;0.7;381.0;-0.141034;-0.042874
1.66;5.5;4.0;3.0;2.5;0.5;0.5;0.0;0.5;2.5;0.25;0.5;0.5;0.5;1.75;0.25;0.25;-0.205566;0.016602;0.986328;-0.63;0.63;0.56;265.0;-0.152727;-0.00104;6.25;7.75;2.0;3.25;1.5;2.25;0.25;0.75;3.0;0.5;1.25;0.5;1.0;2.0;0.25;0.0;-0.243164;0.041504;0.978516;-0.42;-0.77;0.77;373.0;-0.154584;-0.038782
1.67;5.5;4.0;3.0;2.5;0.5;0.5;0.0;0.5;2.5;0.5;0.75;0.25;0.5;1.5;0.5;0.25;-0.199707;0.016113;0.991211;-0.63;0.56;0.63;268.0;-0.147308;-0.000822;6.0;7.5;2.25;3.25;1.5;2.25;0.25;1.0;3.0;0.5;1.25;0.5;1.0;2.25;0.5;0.25;-0.240234;0.037109;0.977539;-0.49;-0.84;0.77;382.0;-0.140671;-0.041939
1.68;5.5;4.0;3.0;2.5;0.5;0.5;0.25;0.5;2.5;0.5;0.75;0.25;0.25;1.75;0.5;0.5;-0.198242;0.018066;0.992676;-0.7;0.63;0.56;274.0;-0.139112;0.006625;6.5;7.5;2.0;3.0;1.5;2.25;0.25;1.0;3.0;0.5;1.25;0.5;1.0;2.25;0.5;0.25;-0.240723;0.038086;0.978516;-0.42;-0.77;0.77;381.0;-0.142414;-0.039312
1.69;5.5;4.0;3.5;2.5;0.5;0.5;0.25;0.5;2.5;0.25;0.5;0.25;0.25;1.75;0.5;0.25;-0.200684;0.016602;0.986328;-0.7;0.7;0.49;273.0;-0.152441;0.010902;6.25;7.0;2.0;3.0;1.5;2.25;0.25;1.0;3.0;0.5;1.25;0.5;1.25;2.0;0.25;0.0;-0.237305;0.040527;0.975098;-0.49;-0.84;0.77;369.0;-0.144461;-0.041342
1.7;5.5;4.0;3.25;2.5;0.5;0.5;0.0;0.5;2.5;0.25;0.5;0.25;0.25;1.75;0.5;0.25;-0.207031;0.020996;0.985352;-0.7;0.7;0.56;265.0;-0.154753;0.006408;6.25;7.25;2.0;3.0;1.5;2.25;0.25;1.0;3.25;0.5;1.25;0.5;1.0;2.25;0.25;0.25;-0.243164;0.039551;0.984375;-0.42;-0.91;0.84;377.0;-0.139019;-0.036271
1.71;5.5;4.0;3.25;2.5;0.5;0.5;0.0;0.5;2.25;0.5;0.5;0.25;0.25;1.75;0.25;0.25;-0.203125;0.014648;0.994141;-0.77;0.77;0.42;262.0;-0.162235;0.004342;6.25;7.0;2.0;3.0;1.5;2.25;0.25;1.0;3.25;0.25;1.75;1.0;1.0;2.25;0.25;0.25;-0.240234;0.040527;0.979004;-0.42;-0.84;0.84;383.0;-0.129319;-0.041258
1.72;5.5;4.0;3.25;2.5;0.5;0.5;0.25;0.5;2.5;0.25;0.5;0.25;0.25;1.75;0.25;0.25;-0.204102;0.021973;0.990234;-0.63;0.77;0.56;267.0;-0.157168;0.011006;6.0;7.0;2.0;3.0;1.5;2.5;0.25;1.0;3.25;0.25;1.25;0.75;1.25;2.25;0.25;0.25;-0.245117;0.039551;0.977539;-0.42;-0.77;0.84;377.0;-0.133556;-0.043762
1.73;5.5;4.0;3.25;2.5;0.5;0.5;0.25;0.5;2.5;0.25;0.75;0.25;0.25;1.5;0.25;0.25;-0.19873;0.020996;0.991699;-0.7;0.63;0.56;267.0;-0.158018;0.0082;6.0;6.75;2.25;3.0;1.75;2.5;0.25;1.0;3.25;0.5;1.25;0.5;1.5;2.25;0.5;0.25;-0.245117;0.040039;0.972656;-0.35;-0.77;0.91;385.0;-0.126605;-0.041251
1.74;5.5;4.0;3.0;2.5;0.5;0.5;0.25;0.5;2.25;0.25;0.5;0.5;0.5;1.5;0.5;0.5;-0.205078;0.02002;0.98877;-0.7;0.77;0.49;267.0;-0.150668;-0.005125;5.5;6.75;2.25;3.0;1.5;2.5;0.25;1.0;3.25;0.5;1.5;0.75;1.25;2.25;0.5;0.25;-0.242188;0.041016;0.982422;-0.42;-0.84;0.84;380.0;-0.119137;-0.044183
1.75;5.0;4.0;3.0;2.5;0.25;0.75;0.25;0.5;2.75;0.25;0.5;0.25;0.5;2.0;0.5;0.25;-0.19873;0.018555;0.98877;-0.63;0.7;0.49;269.0;-0.131779;0.004172;5.25;6.75;2.25;3.0;1.25;2.25;0.25;1.0;3.0;0.5;1.5;0.75;1.0;2.0;0.5;0.25;-0.246094;0.036621;0.977051;-0.42;-0.91;0.91;363.0;-0.125575;-0.046223
1.76;5.25;4.0;3.0;2.5;0.25;0.75;0.25;0.5;2.5;0.25;0.5;0.5;0.5;2.25;0.5;0.25;-0.205078;0.012207;0.993652;-0.63;0.7;0.56;274.0;-0.131456;3.4e-05;5.0;6.75;2.0;3.0;1.5;2.5;0.25;1.25;3.25;0.5;1.5;0.5;1.0;2.0;0.5;0.0;-0.245117;0.041992;0.98291;-0.49;-0.84;0.77;366.0;-0.122056;-0.047263
1.77;5.5;3.75;2.75;2.5;0.25;0.75;0.25;0.5;2.5;0.5;0.5;0.5;0.5;1.5;0.5;0.5;-0.207031;0.01709;0.987793;-0.63;0.84;0.49;268.0;-0.137591;-0.003941;5.0;6.25;2.0;3.0;1.5;2.5;0.25;1.0;3.25;0.5;1.5;0.5;1.25;2.25;0.5;0.25;-0.245605;0.035156;0.977539;-0.49;-0.84;0.84;363.0;-0.111957;-0.044
1.78;5.5;4.0;3.0;2.5;0.5;0.5;0.25;0.5;2.5;0.5;0.5;0.5;0.5;1.5;0.5;0.25;-0.205566;0.020508;0.989258;-0.7;0.77;0.49;272.0;-0.144019;0.000945;5.0;6.75;2.0;2.75;1.5;2.5;0.25;1.0;3.0;0.5;1.25;0.5;1.5;2.25;0.5;0.25;-0.244629;0.039062;0.976562;-0.49;-0.84;0.84;361.0;-0.119236;-0.049506
1.79;5.25;4.0;3.25;2.5;0.25;0.75;0.25;0.5;2.5;0.5;0.5;0.5;0.5;1.5;0.25;0.25;-0.205566;0.017578;0.989746;-0.63;0.7;0.49;270.0;-0.148838;-0.001999;5.0;6.75;2.0;3.0;1.25;2.5;0.25;1.0;3.0;0.5;1.25;0.5;1.25;2.25;0.5;0.25;-0.244629;0.040039;0.976562;-0.49;-0.91;0.84;359.0;-0.122485;-0.049194
1.8;5.25;3.75;3.0;2.5;0.5;1.0;0.0;0.5;2.5;0.5;0.5;0.5;0.5;1.75;0.25;0.25;-0.20459;0.021484;0.992188;-0.63;0.63;0.56;268.0;-0.143428;-0.00599;5.0;6.75;2.0;3.0;1.5;2.5;0.25;1.0;3.25;0.5;1.25;0.5;1.25;2.5;0.5;0.25;-0.242188;0.042969;0.983887;-0.56;-0.91;0.84;368.0;-0.115448;-0.043716
1.81;5.0;3.75;3.25;2.5;0.25;0.75;0.0;0.5;2.5;0.5;0.75;0.5;0.5;1.5;0.5;0.25;-0.206543;0.023926;0.987305;-0.77;0.7;0.56;266.0;-0.137111;-0.007501;5.75;6.0;2.0;3.0;1.5;2.5;0.25;1.0;3.25;0.5;1.5;0.75;1.5;2.25;0.5;0.25;-0.243164;0.039551;0.981934;-0.63;-0.91;0.91;375.0;-0.112272;-0.044276
1.82;5.5;3.75;3.0;2.5;0.25;0.75;0.25;0.5;2.25;0.5;0.75;0.5;0.5;1.5;0.25;0.5;-0.203613;0.021973;0.984375;-0.56;0.56;0.56;268.0;-0.146268;-0.006956;4.75;5.75;2.0;3.0;1.25;2.5;0.25;1.25;3.25;0.5;1.75;1.25;1.5;2.25;0.5;0.25;-0.244629;0.041504;0.970703;-0.49;-0.91;0.77;371.0;-0.092492;-0.057346
1.83;5.5;4.0;3.25;2.5;0.25;0.75;0.0;0.5;2.5;0.5;1.0;0.5;0.5;1.5;0.0;0.5;-0.202148;0.02002;0.992676;-0.63;0.7;0.49;273.0;-0.150161;-0.007783;5.25;6.0;1.75;3.0;1.5;2.5;0.25;1.25;3.25;0.5;1.75;1.0;1.25;2.25;0.5;0.25;-0.242188;0.039062;0.981445;-0.56;-0.98;0.84;373.0;-0.10221;-0.051418
1.84;4.5;4.0;3.25;2.5;0.5;0.75;0.0;0.5;2.5;0.5;0.75;0.75;0.5;2.0;0.25;0.5;-0.203613;0.020996;0.991699;-0.7;0.7;0.63;272.0;-0.124015;-0.011408;5.0;6.0;1.75;3.0;1.5;2.5;0.25;1.25;3.25;0.5;1.75;1.0;1.25;2.75;0.75;0.25;-0.24707;0.036621;0.975098;-0.56;-0.91;0.84;378.0;-0.089771;-0.050038
1.85;4.75;3.75;3.25;2.5;0.25;0.75;0.0;0.5;2.5;0.75;0.5;0.5;0.5;1.5;0.25;0.25;-0.208984;0.020508;0.987793;-0.63;0.63;0.42;260.0;-0.140085;-0.005973;5.25;5.75;2.0;3.0;1.25;2.5;0.25;1.25;3.25;0.5;1.75;1.0;1.0;2.75;0.75;0.25;-0.242188;0.037109;0.974609;-0.49;-1.05;0.84;376.0;-0.092704;-0.045247
1.86;5.25;3.75;2.75;2.5;0.5;0.75;0.25;0.5;2.5;0.5;0.75;0.5;0.5;2.25;0.25;0.25;-0.203125;0.024414;0.989746;-0.63;0.77;0.56;274.0;-0.12532;0.001554;5.0;5.75;2.0;2.75;1.25;2.5;0.25;1.0;3.25;0.5;1.75;0.75;1.0;2.5;0.5;0.25;-0.244629;0.036621;0.977051;-0.56;-0.91;0.84;358.0;-0.099259;-0.040065
1.87;5.0;3.75;3.0;2.5;0.5;0.75;0.0;0.5;2.5;0.5;0.5;0.5;0.5;1.5;0.25;0.25;-0.205078;0.020508;0.98877;-0.7;0.7;0.63;260.0;-0.145464;-0.005827;5.0;5.75;2.0;2.75;1.5;2.75;0.25;1.25;3.25;0.5;1.75;1.0;1.5;2.5;0.75;0.25;-0.243652;0.040039;0.978516;-0.63;-0.98;0.84;379.0;-0.089404;-0.052464
1.88;5.0;3.75;3.0;2.5;0.5;0.75;0.0;0.5;2.5;0.25;0.5;0.5;0.5;1.5;0.5;0.25;-0.20752;0.014648;0.990234;-0.63;0.63;0.56;260.0;-0.143586;-0.00743;4.5;5.75;2.0;2.75;1.5;2.75;0.25;1.25;3.25;0.5;1.5;0.5;1.5;2.75;0.25;0.25;-0.246582;0.036133;0.976074;-0.56;-0.98;0.84;361.0;-0.096404;-0.048655
1.89;5.0;3.75;3.0;2.5;0.5;0.75;0.25;0.5;2.5;0.25;0.5;0.5;0.5;2.25;0.5;0.25;-0.207031;0.020996;0.987305;-0.7;0.77;0.56;271.0;-0.125902;0.001121;4.75;5.75;2.0;2.75;1.25;2.75;0.25;1.25;3.0;0.5;1.5;0.75;1.5;2.25;0.25;0.25;-0.239746;0.039551;0.977539;-0.63;-0.91;0.77;355.0;-0.10633;-0.056539
1.9;5.5;3.75;3.25;2.5;0.5;0.75;0.25;0.5;2.25;0.5;0.5;0.5;0.5;2.25;0.25;0.5;-0.203613;0.024414;0.988281;-0.7;0.77;0.56;278.0;-0.13717;0.00059;4.75;5.75;1.75;3.0;1.75;2.75;0.25;1.25;3.0;0.5;1.5;1.0;1.5;2.25;0.25;0.25;-0.249023;0.041992;0.978516;-0.63;-0.84;0.77;364.0;-0.104309;-0.059094
1.91;5.5;4.0;2.75;2.5;0.5;0.5;0.25;0.5;2.25;0.5;0.5;0.5;0.5;2.25;0.25;0.25;-0.203125;0.02002;0.990723;-0.49;0.63;0.56;270.0;-0.139444;0.001769;4.5;5.75;2.0;3.0;1.75;2.5;0.25;1.25;3.0;0.5;1.75;1.25;1.5;2.0;0.5;0.25;-0.242676;0.041992;0.979004;-0.63;-0.98;0.84;368.0;-0.097215;-0.061396
1.92;5.0;4.0;2.75;2.5;0.5;0.5;0.0;0.5;2.5;0.5;0.5;0.5;0.5;1.75;0.25;0.25;-0.203125;0.019531;0.991699;-0.7;0.63;0.56;259.0;-0.141608;-0.003793;4.5;5.75;2.0;2.75;1.75;2.5;0.25;1.25;3.25;0.5;1.75;1.0;1.5;2.25;0.25;0.25;-0.243652;0.039551;0.972168;-0.63;-0.98;0.84;365.0;-0.095323;-0.05323
1.93;5.0;4.0;3.0;2.5;0.5;0.75;0.0;0.5;2.5;0.5;0.5;0.5;0.5;1.5;0.25;0.25;-0.19873;0.022949;0.992676;-0.7;0.77;0.63;263.0;-0.148066;-0.007365;5.0;5.75;2.0;3.0;1.5;2.75;0.25;1.25;3.25;0.25;1.25;1.0;1.25;2.25;0.5;0.25;-0.24707;0.040527;0.975098;-0.7;-1.12;0.84;366.0;-0.107281;-0.052384
1.94;5.25;3.75;3.0;2.5;0.5;0.5;0.0;0.5;2.75;0.5;0.75;0.5;0.5;1.5;0.25;0.25;-0.205078;0.020508;0.986328;-0.63;0.7;0.49;266.0;-0.138744;0.000953;4.75;5.75;2.0;2.75;1.25;2.5;0.25;1.25;3.25;0.25;1.25;0.75;1.25;2.25;0.5;0.5;-0.242676;0.040039;0.974121;-0.49;-0.91;0.91;352.0;-0.103456;-0.050426
1.95;5.0;3.75;3.0;2.5;0.5;0.75;0.0;0.25;2.5;0.5;1.0;0.5;0.5;1.75;0.25;0.25;-0.20459;0.023438;0.989746;-0.77;0.7;0.49;264.0;-0.134608;-0.000511;4.75;5.75;1.75;2.75;1.5;2.5;0.25;1.25;3.25;0.5;1.25;0.75;1.5;2.25;0.25;0.25;-0.245117;0.040039;0.975586;-0.56;-0.91;0.84;353.0;-0.103747;-0.051143
1.96;5.0;4.0;3.0;2.5;0.5;0.5;0.0;0.25;2.5;0.5;0.5;0.5;0.5;1.75;0.5;0.25;-0.199707;0.016113;0.986816;-0.56;0.77;0.63;261.0;-0.139083;0.002631;4.5;5.75;1.75;2.75;1.5;2.5;0.25;1.25;3.25;0.25;1.5;1.0;1.25;2.25;0.25;0.25;-0.245117;0.037598;0.980957;-0.63;-0.98;0.84;351.0;-0.100703;-0.053146
1.97;5.0;4.0;2.75;2.5;0.5;0.5;0.0;0.5;2.5;0.25;0.5;0.5;0.5;1.75;0.25;0.5;-0.208984;0.016602;0.990234;-0.49;0.49;0.63;258.0;-0.142938;-0.006323;4.75;5.75;1.75;3.0;1.5;2.5;0.25;1.25;3.0;0.25;1.5;0.75;1.25;2.25;0.5;0.25;-0.244141;0.035156;0.970215;-0.56;-0.91;0.84;353.0;-0.106725;-0.05488
1.98;5.5;4.0;3.0;2.5;0.5;0.5;0.0;0.5;2.5;0.25;0.5;0.5;0.5;1.75;0.25;0.25;-0.199707;0.021484;0.989258;-0.56;0.7;0.56;265.0;-0.152727;-0.00104;4.5;5.75;2.0;3.0;1.5;2.5;0.25;1.25;3.25;0.5;1.25;0.75;1.25;2.5;0.5;0.25;-0.242188;0.037109;0.972168;-0.63;-0.98;0.84;359.0;-0.098669;-0.048739
1.99;5.0;4.0;2.75;2.25;0.5;0.5;0.0;0.5;2.5;0.5;0.5;0.5;0.5;1.75;0.25;0.25;-0.20459;0.020508;0.989746;-0.56;0.77;0.56;256.0;-0.139898;-0.001203;4.75;6.0;2.0;3.0;1.5;2.5;0.25;1.25;3.25;0.5;1.75;1.0;1.5;2.25;0.5;0.25;-0.245117;0.038574;0.976562;-0.7;-0.98;0.77;373.0;-0.097267;-0.055286
2.0;5.0;3.75;2.75;2.5;0.5;0.5;0.0;0.5;2.5;0.5;0.75;0.5;0.5;1.75;0.5;0.25;-0.203613;0.018066;0.989258;-0.63;0.7;0.56;262.0;-0.128946;-0.004313;4.5;5.5;1.75;2.75;1.25;2.5;0.25;1.25;3.25;0.5;1.75;0.75;1.25;2.25;0.5;0.5;-0.250488;0.035156;0.976562;-0.7;-1.05;0.91;353.0;-0.089292;-0.052226
2.01;5.0;3.5;2.75;2.5;0.5;0.25;0.0;0.5;2.75;0.25;0.5;0.5;0.5;1.75;0.25;0.25;-0.206543;0.016602;0.991699;-0.56;0.77;0.56;252.0;-0.134632;0.005827;4.5;5.5;1.75;2.75;1.5;2.5;0.25;1.25;3.25;0.5;1.75;0.75;1.25;2.25;0.75;0.25;-0.243164;0.040039;0.979004;-0.77;-1.05;0.84;357.0;-0.087468;-0.050427
2.02;5.5;3.75;3.0;2.5;0.5;0.25;0.0;0.25;2.5;0.25;0.5;0.75;0.5;2.25;0.0;0.25;-0.205078;0.018555;0.988281;-0.56;0.7;0.56;260.0;-0.144494;0.010755;5.0;5.5;1.75;2.75;1.5;2.5;0.25;1.25;3.25;0.5;1.5;0.75;1.5;2.25;0.5;0.25;-0.242676;0.04541;0.974121;-0.77;-1.05;0.84;359.0;-0.097204;-0.049839
2.03;5.0;3.75;2.75;2.5;0.25;0.25;0.0;0.25;2.5;0.25;0.5;0.75;0.5;2.0;0.0;0.25;-0.198242;0.017578;0.990234;-0.7;0.77;0.56;246.0;-0.142532;0.005326;5.0;5.75;2.0;3.25;1.75;2.75;0.25;1.25;3.25;0.5;2.0;0.75;1.5;2.25;0.5;0.5;-0.244629;0.040039;0.970703;-0.77;-1.05;0.84;384.0;-0.097677;-0.055092
2.04;5.0;3.75;2.75;2.5;0.5;0.25;0.0;0.5;2.5;0.25;0.5;0.75;0.5;1.75;0.25;0.5;-0.203125;0.015625;0.986328;-0.42;0.77;0.49;255.0;-0.13615;-0.004906;4.75;5.75;2.0;3.0;1.5;2.5;0.25;1.25;3.25;0.5;1.75;0.75;1.5;2.25;0.5;0.5;-0.241699;0.038086;0.97998;-0.77;-1.12;0.77;369.0;-0.095638;-0.05369
2.05;5.25;3.75;3.25;2.5;0.5;0.5;0.25;0.5;2.75;0.25;0.5;0.5;0.5;1.75;0.25;0.5;-0.205078;0.01709;0.988281;-0.56;0.7;0.7;272.0;-0.137221;0.005974;5.25;5.75;1.75;3.0;1.5;2.75;0.25;1.25;3.25;0.5;1.75;0.75;1.25;2.5;0.5;0.5;-0.244629;0.043457;0.978516;-0.77;-1.05;0.91;375.0;-0.097865;-0.050144
2.06;5.5;4.0;3.5;2.25;0.5;0.5;0.0;0.5;2.5;0.25;0.5;0.5;0.5;2.0;0.25;0.25;-0.205566;0.018066;0.986816;-0.63;0.7;0.56;270.0;-0.14892;0.005018;4.75;6.0;1.75;3.0;1.25;3.0;0.25;1.25;3.25;0.5;1.75;0.75;1.25;2.25;0.5;0.25;-0.244141;0.039062;0.979492;-0.7;-0.98;0.77;368.0;-0.100635;-0.056472
2.07;5.0;3.75;3.5;2.5;0.5;0.5;0.0;0.5;2.5;0.5;0.5;0.5;0.25;1.75;0.25;0.25;-0.204102;0.018066;0.985352;-0.56;0.77;0.49;263.0;-0.146065;0.005091;4.5;5.75;1.75;3.0;1.5;2.75;0.25;1.25;3.25;0.5;1.5;0.75;1.5;2.0;0.5;0.25;-0.243164;0.041992;0.977539;-0.84;-0.98;0.77;360.0;-0.09996;-0.057922
2.08;5.0;3.75;3.25;2.5;0.25;0.5;0.0;0.5;2.5;0.25;0.5;0.5;0.25;1.75;0.25;0.25;-0.200195;0.016113;0.990723;-0.63;0.7;0.56;254.0;-0.149198;0.00276;4.75;5.75;1.75;3.0;1.5;2.5;0.25;1.25;3.25;0.5;1.75;0.75;1.5;2.25;0.5;0.25;-0.243652;0.037598;0.98291;-0.91;-0.98;0.91;365.0;-0.096068;-0.05383
2.09;5.0;3.75;2.75;2.5;0.25;0.5;0.25;0.5;2.5;0.25;0.75;0.75;0.25;1.75;0.25;0.5;-0.202148;0.015137;0.994141;-0.7;0.7;0.49;260.0;-0.131809;-0.001896;4.5;5.5;1.75;3.0;1.5;2.75;0.25;1.25;3.25;0.5;2.0;0.75;1.5;2.0;0.5;0.25;-0.247559;0.039062;0.978516;-0.63;-0.98;0.84;363.0;-0.092624;-0.058084
2.1;5.5;3.75;3.0;2.5;0.75;0.5;0.25;0.5;2.5;0.5;0.75;0.75;0.5;1.75;0.25;0.5;-0.202637;0.019531;0.989746;-0.7;0.84;0.56;279.0;-0.132298;-0.000503;4.5;5.75;2.0;3.0;1.25;2.5;0.25;1.25;3.25;0.25;1.5;1.0;1.5;2.25;0.5;0.25;-0.245605;0.041016;0.969727;-0.77;-0.98;0.84;359.0;-0.097629;-0.057236
2.11;5.0;4.0;3.5;2.5;0.5;0.5;0.25;0.25;2.5;0.5;0.5;0.75;0.25;1.75;0.25;0.5;-0.203125;0.014648;0.983887;-0.56;0.63;0.63;270.0;-0.140637;0.008273;5.0;6.25;2.0;3.0;1.25;2.75;0.25;1.25;3.0;0.25;1.5;0.75;1.0;2.25;0.5;0.25;-0.246582;0.041016;0.977051;-0.84;-1.12;0.84;362.0;-0.116722;-0.054043
2.12;5.0;3.75;3.5;2.5;0.5;0.75;0.25;0.5;2.5;0.5;0.5;0.5;0.25;1.75;0.25;0.25;-0.202637;0.018066;0.98877;-0.49;0.7;0.63;270.0;-0.142683;0.005651;5.25;6.25;2.0;3.0;1.25;2.5;0.25;1.25;3.0;0.5;1.75;0.75;1.0;2.25;0.75;0.25;-0.241211;0.040527;0.975586;-0.91;-1.12;0.84;370.0;-0.109174;-0.050829
2.13;5.0;3.75;2.75;2.5;0.5;0.5;0.25;0.5;2.75;0.5;0.5;0.5;0.5;1.25;0.25;0.25;-0.203125;0.018066;0.995117;-0.63;0.7;0.56;259.0;-0.139846;0.00228;5.25;5.75;2.0;3.0;1.5;2.5;0.25;1.25;3.25;0.5;1.5;1.0;1.25;2.25;0.5;0.25;-0.246582;0.041504;0.974121;-0.77;-0.98;0.77;371.0;-0.103946;-0.048986
2.14;5.0;3.75;3.0;2.25;0.5;0.75;0.25;0.5;2.5;0.5;0.5;0.75;0.25;1.5;0.25;0.5;-0.201172;0.01709;0.990723;-0.56;0.7;0.56;263.0;-0.136409;-0.000277;5.0;6.25;2.0;3.0;1.25;2.5;0.25;1.25;3.25;0.5;1.25;1.0;1.25;2.5;0.5;0.25;-0.244141;0.041016;0.975586;-0.77;-0.98;0.84;370.0;-0.105054;-0.050745
2.15;4.75;3.75;3.0;2.25;0.5;0.75;0.25;0.5;2.75;0.5;0.75;0.75;0.25;1.75;0.25;0.5;-0.203125;0.023438;0.994629;-0.63;0.77;0.56;269.0;-0.119801;0.002531;5.0;6.75;2.0;3.0;1.5;2.5;0.25;1.25;3.25;0.5;1.75;1.0;1.5;2.5;0.5;0.25;-0.23877;0.042969;0.978516;-0.84;-1.12;0.77;386.0;-0.102699;-0.054854
2.16;5.0;3.75;3.0;2.25;0.5;0.5;0.25;0.25;2.5;0.75;0.5;0.5;0.25;2.0;0.5;0.25;-0.206055;0.018066;0.996582;-0.56;0.7;0.56;262.0;-0.125036;0.017013;5.0;6.25;2.0;3.0;1.25;2.5;0.25;1.25;3.25;0.5;1.75;0.75;1.5;2.25;0.5;0.25;-0.24707;0.040527;0.977539;-0.77;-1.12;0.7;373.0;-0.103888;-0.05387
2.17;5.0;3.75;3.0;2.25;0.25;0.75;0.0;0.5;2.5;0.5;0.5;0.5;0.25;2.0;0.5;0.25;-0.20752;0.019043;0.984863;-0.7;0.63;0.49;259.0;-0.130805;0.002511;5.75;6.25;1.75;2.75;1.25;2.25;0.25;1.25;3.25;0.5;1.5;0.75;1.0;2.25;0.75;0.25;-0.243652;0.037109;0.969238;-0.84;-1.05;0.84;367.0;-0.109651;-0.042643
2.18;5.25;3.75;3.5;2.5;0.5;0.75;0.0;0.25;2.5;0.5;0.75;0.75;0.25;1.75;0.25;0.25;-0.20459;0.015137;0.992676;-0.63;0.7;0.49;271.0;-0.14317;0.004743;5.75;6.25;1.75;2.75;1.5;2.5;0.25;1.0;3.0;0.25;1.5;0.75;1.25;2.5;0.75;0.25;-0.241699;0.038574;0.980469;-0.91;-1.12;0.77;367.0;-0.112407;-0.044903
2.19;5.0;3.75;3.25;2.5;0.5;0.75;0.0;0.25;2.5;0.5;0.75;0.75;0.25;1.75;0.25;0.25;-0.204102;0.018555;0.98877;-0.7;0.63;0.49;265.0;-0.138981;0.002656;5.25;6.25;1.75;3.0;1.5;2.5;0.25;1.0;3.25;0.25;1.25;0.75;1.25;2.25;0.75;0.25;-0.240234;0.043457;0.977051;-0.84;-1.05;0.84;363.0;-0.111712;-0.046505
2.2;4.75;3.75;3.0;2.5;0.5;0.5;0.0;0.5;2.75;0.5;0.5;0.75;0.25;1.5;0.25;0.25;-0.20752;0.01709;0.989746;-0.63;0.84;0.49;258.0;-0.135924;0.000786;5.5;6.75;2.0;3.0;1.5;2.5;0.25;1.25;3.0;0.5;1.5;1.0;1.25;2.25;0.75;0.25;-0.244141;0.040039;0.978516;-0.91;-1.05;0.84;383.0;-0.113913;-0.054167
2.21;5.0;3.75;3.0;2.5;0.5;0.5;0.25;0.5;2.75;0.5;0.75;0.75;0.25;1.5;0.25;0.25;-0.201172;0.021484;0.994629;-0.63;0.63;0.49;268.0;-0.131565;0.004395;5.5;6.75;2.0;3.0;1.5;2.5;0.25;1.25;3.0;0.5;1.5;1.25;1.25;2.25;0.75;0.25;-0.233398;0.037109;0.976074;-0.98;-1.05;0.84;386.0;-0.111508;-0.055969
2.22;5.0;3.75;3.25;2.5;0.5;0.5;0.25;0.5;2.5;0.5;0.5;0.5;0.25;1.75;0.5;0.25;-0.203613;0.019531;0.993164;-0.7;0.63;0.56;267.0;-0.135269;0.006856;5.5;6.75;2.0;3.0;1.25;2.5;0.25;1.25;3.0;0.5;1.75;1.0;1.0;2.0;0.75;0.25;-0.240234;0.039551;0.973633;-0.98;-1.05;0.77;379.0;-0.116248;-0.054436
2.23;5.25;3.75;3.0;2.5;0.5;0.75;0.25;0.5;2.5;0.5;0.5;0.5;0.25;1.75;0.25;0.25;-0.206055;0.018555;0.989746;-0.56;0.49;0.63;267.0;-0.142638;0.004835;5.5;6.75;2.0;3.0;1.25;2.5;0.25;1.0;3.0;0.5;1.5;1.0;1.25;2.0;0.75;0.25;-0.246094;0.038086;0.976562;-0.91;-1.12;0.77;374.0;-0.118224;-0.052774
2.24;5.0;3.75;2.75;2.5;0.5;0.75;0.25;0.5;2.5;0.5;0.75;0.5;0.25;1.75;0.25;0.5;-0.205566;0.020508;0.992676;-0.56;0.63;0.56;265.0;-0.131672;-0.000322;5.5;6.75;2.0;3.0;1.25;2.5;0.25;1.25;3.25;0.5;1.25;0.75;1.0;2.5;0.75;0.25;-0.243652;0.038086;0.986816;-0.91;-1.05;0.77;378.0;-0.113881;-0.045708
2.25;4.75;3.75;2.75;2.5;0.5;0.75;0.25;0.5;2.5;0.5;0.75;0.75;0.5;1.5;0.5;0.25;-0.207031;0.02002;0.991699;-0.7;0.77;0.56;267.0;-0.124137;-0.009426;5.5;6.25;2.0;3.0;1.25;2.5;0.25;1.0;3.25;0.5;1.25;1.0;1.0;2.0;0.5;0.25;-0.248047;0.035645;0.979492;-0.91;-0.98;0.84;364.0;-0.119117;-0.044624
2.26;5.0;3.75;3.0;2.5;0.5;0.75;0.25;0.5;2.5;0.5;0.5;0.75;0.25;1.75;0.25;0.25;-0.203613;0.023926;0.992676;-0.63;0.7;0.56;267.0;-0.136087;0.000487;5.5;6.75;2.0;3.0;1.25;2.5;0.25;1.25;3.0;0.5;1.5;0.75;1.0;2.0;0.5;0.25;-0.241211;0.041992;0.974609;-0.91;-0.98;0.7;370.0;-0.125484;-0.051867
2.27;5.0;3.75;3.0;2.5;0.5;0.5;0.25;0.5;2.5;0.5;0.5;0.75;0.25;1.75;0.0;0.5;-0.205566;0.018066;0.994141;-0.56;0.63;0.49;263.0;-0.139039;0.002713;5.75;6.75;2.0;3.0;1.5;2.5;0.25;1.0;3.25;0.5;1.25;0.5;0.75;2.0;0.5;0.25;-0.243164;0.041992;0.972656;-0.98;-0.98;0.84;367.0;-0.132439;-0.037626
2.28;5.0;3.75;3.25;2.25;0.5;0.25;0.25;0.5;2.25;0.5;0.5;0.75;0.25;1.75;0.25;0.5;-0.202637;0.018555;0.989746;-0.56;0.56;0.56;259.0;-0.138068;0.004841;5.75;6.75;2.0;3.25;1.5;2.5;0.25;1.0;3.25;0.75;1.25;0.75;1.0;2.25;0.5;0.25;-0.245605;0.038574;0.974121;-0.91;-1.05;0.7;380.0;-0.123098;-0.041609
2.29;5.0;4.0;3.0;2.5;0.5;0.25;0.25;0.5;2.25;0.5;0.5;0.75;0.25;1.75;0.25;0.25;-0.20752;0.020508;0.993164;-0.63;0.7;0.56;260.0;-0.143834;0.001361;5.75;6.75;2.0;3.0;1.25;2.5;0.25;1.0;3.0;0.75;1.25;0.75;1.25;2.25;0.5;0.25;-0.242188;0.037598;0.977051;-0.98;-1.12;0.77;373.0;-0.12355;-0.046641
2.3;5.25;3.75;2.75;2.5;0.5;0.5;0.25;0.25;2.75;0.5;0.5;0.25;0.25;1.75;0.25;0.25;-0.200195;0.019531;0.998047;-0.63;0.7;0.56;258.0;-0.141568;0.020564;6.0;6.75;2.0;3.0;1.25;2.5;0.25;1.0;3.25;0.75;1.5;0.75;1.25;2.25;0.5;0.25;-0.245117;0.041504;0.980469;-0.77;-0.98;0.77;382.0;-0.119453;-0.043008
2.31;5.5;3.75;2.75;2.5;0.5;0.5;0.25;0.5;2.5;0.25;0.5;0.25;0.25;1.75;0.25;0.5;-0.20459;0.013672;0.988281;-0.7;0.77;0.56;260.0;-0.149149;0.009035;5.75;6.75;2.0;3.0;1.25;2.5;0.25;1.0;3.25;0.5;1.5;0.75;1.0;2.25;0.5;0.25;-0.246582;0.041504;0.977539;-0.77;-0.98;0.84;374.0;-0.121858;-0.042334
2.32;5.0;3.75;3.0;2.5;0.5;0.5;0.25;0.5;2.5;0.25;0.5;0.5;0.25;1.5;0.25;0.5;-0.205566;0.016113;0.987305;-0.63;0.63;0.56;258.0;-0.146005;0.002857;5.5;6.75;2.0;3.0;1.5;2.5;0.25;1.0;3.25;0.75;1.5;0.75;1.0;2.0;0.5;0.25;-0.24707;0.032715;0.977539;-0.84;-0.98;0.77;375.0;-0.120325;-0.043202
2.33;5.25;3.75;3.0;2.25;0.5;0.5;0.25;0.5;2.5;0.25;0.5;0.5;0.25;1.75;0.5;0.5;-0.20752;0.017578;0.991699;-0.56;0.7;0.56;263.0;-0.136177;0.007218;6.25;6.75;2.0;3.0;1.5;2.5;0.25;1.0;3.25;0.5;1.5;0.75;1.25;2.25;0.5;0.25;-0.246094;0.047363;0.975586;-0.84;-1.05;0.77;385.0;-0.124234;-0.041869
2.34;5.25;3.75;3.25;2.25;0.5;0.5;0.25;0.5;2.5;0.25;0.5;0.5;0.25;2.0;0.25;0.5;-0.209473;0.02002;0.991211;-0.63;0.77;0.63;265.0;-0.13874;0.010622;6.0;6.75;1.75;3.0;1.5;2.75;0.25;1.0;3.25;0.5;1.75;0.75;1.25;2.25;0.5;0.25;-0.240234;0.038086;0.975098;-0.84;-1.05;0.84;385.0;-0.118686;-0.046346
2.35;5.0;3.5;3.25;2.5;0.5;0.5;0.25;0.5;2.5;0.25;0.5;0.5;0.25;1.75;0.25;0.5;-0.203125;0.019043;0.989258;-0.56;0.56;0.56;260.0;-0.139805;0.007064;5.75;6.75;2.0;3.0;1.5;2.5;0.25;1.0;3.25;0.5;1.75;0.75;1.0;2.25;0.5;0.25;-0.241699;0.044434;0.985352;-0.91;-0.98;0.77;380.0;-0.119269;-0.04207
2.36;4.75;3.5;2.75;2.5;0.5;0.5;0.25;0.5;2.5;0.5;0.75;0.5;0.25;1.75;0.25;0.25;-0.205566;0.01709;0.987305;-0.49;0.56;0.63;256.0;-0.128469;0.005091;5.75;7.0;2.0;3.0;1.5;2.5;0.25;1.0;3.0;0.75;0.75;0.75;1.0;2.0;0.5;0.25;-0.245605;0.041504;0.979004;-0.7;-1.05;0.84;368.0;-0.136249;-0.044265
2.37;5.0;3.75;2.75;2.5;0.5;0.25;0.25;0.5;2.75;0.25;0.75;0.5;0.5;2.0;0.25;0.25;-0.207031;0.01416;0.98877;-0.63;0.7;0.56;263.0;-0.125233;0.008077;6.0;7.0;2.0;3.0;1.25;2.5;0.25;1.0;3.25;0.5;1.0;0.75;1.0;2.0;0.5;0.25;-0.247559;0.03418;0.975586;-0.77;-1.12;0.84;372.0;-0.134686;-0.042265
2.38;5.5;3.75;2.75;2.25;0.25;0.25;0.25;0.5;2.5;0.5;0.75;0.75;0.5;1.75;0.25;0.25;-0.202637;0.020508;0.990723;-0.7;0.63;0.63;263.0;-0.131692;0.004447;6.0;7.0;2.0;3.0;1.5;2.5;0.25;1.0;3.25;0.5;1.25;0.75;1.0;2.0;0.25;0.25;-0.246094;0.041016;0.974609;-0.7;-1.05;0.84;375.0;-0.136007;-0.041692
2.39;5.0;3.75;2.75;2.25;0.25;0.5;0.25;0.5;2.5;0.5;0.75;0.5;0.5;1.5;0.5;0.25;-0.20459;0.014648;0.986328;-0.7;0.63;0.56;258.0;-0.128679;-0.000209;6.0;6.75;2.0;3.0;1.5;2.5;0.25;1.0;3.25;0.5;1.5;0.75;1.0;2.5;0.25;0.0;-0.24707;0.035156;0.978516;-0.84;-0.98;0.84;378.0;-0.126609;-0.037667
2.4;4.5;3.75;2.75;2.5;0.5;0.5;0.25;0.5;2.5;0.5;0.75;0.5;0.25;1.75;0.5;0.25;-0.203125;0.022461;0.991699;-0.7;0.63;0.56;258.0;-0.12232;0.001314;6.25;7.0;2.0;3.25;1.5;2.5;0.25;1.0;3.25;0.5;1.5;0.75;1.0;2.25;0.5;0.0;-0.243652;0.038574;0.976562;-0.84;-1.05;0.77;387.0;-0.131042;-0.040503
2.41;4.75;3.75;3.0;2.5;0.5;0.5;0.25;0.5;2.75;0.5;1.0;0.5;0.25;1.75;0.5;0.5;-0.20459;0.021973;0.992676;-0.56;0.49;0.56;272.0;-0.11558;0.004061;6.25;7.5;2.0;3.25;1.5;2.5;0.25;1.25;3.25;0.5;1.25;0.75;1.25;2.25;0.5;0.0;-0.242676;0.038574;0.976074;-0.77;-1.05;0.84;396.0;-0.134222;-0.047758
2.42;5.5;3.75;3.0;2.5;0.5;0.5;0.25;0.5;2.5;0.5;1.0;0.25;0.25;1.75;0.5;0.25;-0.20459;0.021973;0.987793;-0.56;0.49;0.63;273.0;-0.135429;0.008678;6.0;7.0;2.0;3.0;1.5;2.5;0.25;1.0;3.25;0.5;1.25;0.75;1.25;2.25;0.5;0.25;-0.243652;0.041016;0.976074;-0.84;-1.05;0.84;382.0;-0.126717;-0.04325
2.43;5.0;3.75;3.0;2.5;0.25;0.5;0.0;0.5;2.5;0.5;0.75;0.25;0.5;1.75;0.5;0.25;-0.202148;0.017578;0.989746;-0.56;0.63;0.56;259.0;-0.134347;-0.000731;6.25;7.0;2.0;3.25;1.5;2.5;0.25;1.0;3.25;0.5;1.75;0.75;1.0;2.25;0.5;0.25;-0.245605;0.04541;0.979492;-0.7;-0.98;0.84;391.0;-0.126576;-0.042087
2.44;5.0;3.5;3.0;2.5;0.25;0.5;0.0;0.25;2.5;0.5;0.75;0.5;0.5;1.75;0.5;0.5;-0.19873;0.020996;0.991211;-0.56;0.56;0.63;257.0;-0.126859;0.002113;6.25;7.0;2.0;3.25;1.5;2.5;0.25;1.0;3.0;0.5;1.5;0.75;1.25;2.5;0.75;0.25;-0.247559;0.039551;0.980469;-0.91;-1.05;0.84;393.0;-0.123767;-0.045941
2.45;4.5;3.75;3.0;2.5;0.5;0.5;0.25;0.5;2.0;0.5;0.5;0.5;0.5;1.75;0.5;0.5;-0.206055;0.014648;0.991211;-0.56;0.63;0.63;255.0;-0.133059;-0.010077;6.5;7.0;2.25;3.0;1.25;2.5;0.25;1.0;3.0;0.5;1.0;0.75;1.5;2.25;0.5;0.25;-0.242676;0.037109;0.976074;-0.84;-1.05;0.91;384.0;-0.136286;-0.045756
2.46;5.5;3.75;3.0;2.5;0.5;0.5;0.0;0.5;2.5;0.5;0.5;0.5;0.5;1.75;0.5;0.5;-0.206055;0.020996;0.994629;-0.56;0.7;0.56;269.0;-0.13733;-0.001392;6.5;7.0;2.0;3.0;1.25;2.5;0.25;1.0;3.0;0.25;1.0;1.0;1.25;2.25;0.5;0.25;-0.242188;0.040527;0.973633;-0.7;-0.98;0.84;379.0;-0.13735;-0.046983
2.47;5.25;3.75;2.75;2.25;0.5;0.5;0.0;0.5;2.5;0.5;0.75;0.25;0.5;1.75;0.5;0.5;-0.205078;0.02002;0.990234;-0.56;0.63;0.56;261.0;-0.131052;0.000921;6.0;6.75;2.0;3.0;1.25;2.5;0.25;1.0;3.0;0.25;1.75;0.75;1.0;2.25;0.5;0.25;-0.247559;0.040527;0.973145;-0.7;-0.98;0.84;374.0;-0.127701;-0.045591
2.48;5.0;3.75;3.0;2.25;0.5;0.75;0.25;0.5;2.75;0.5;0.75;0.25;0.5;1.75;0.25;0.5;-0.20459;0.02002;0.987305;-0.56;0.77;0.49;269.0;-0.127295;0.005987;6.25;7.0;2.0;3.25;1.5;2.5;0.25;1.0;3.0;0.25;1.25;0.75;1.25;2.25;0.5;0.25;-0.245117;0.035645;0.977051;-0.77;-1.05;0.84;382.0;-0.136353;-0.047323
2.49;5.25;3.75;3.0;2.5;0.5;0.5;0.25;0.5;2.5;0.5;1.0;0.5;0.5;1.75;0.25;0.5;-0.208008;0.018066;0.991211;-0.56;0.7;0.56;274.0;-0.129419;-0.000408;6.25;7.0;2.0;3.25;1.25;2.5;0.25;1.0;3.0;0.25;1.5;0.75;1.0;2.25;0.5;0.25;-0.240234;0.037598;0.981445;-0.77;-1.05;0.77;379.0;-0.135608;-0.046127
2.5;5.25;3.75;3.0;2.25;0.5;0.5;0.25;0.5;2.5;0.5;0.75;0.5;0.5;1.75;0.25;0.5;-0.206543;0.017578;0.993164;-0.56;0.56;0.63;268.0;-0.131444;0.003339;6.25;7.0;2.0;3.25;1.25;2.5;0.25;1.0;3.25;0.25;1.5;0.75;1.0;2.25;0.5;0.25;-0.245117;0.043945;0.977051;-0.84;-1.12;0.84;383.0;-0.131945;-0.043133
2.51;5.0;3.75;2.75;2.25;0.25;0.5;0.0;0.5;2.5;0.5;0.5;0.5;0.5;1.75;0.25;0.5;-0.20166;0.016602;0.992676;-0.56;0.63;0.49;252.0;-0.134362;-0.002136;6.25;7.0;2.0;3.25;1.5;2.5;0.25;1.0;3.25;0.5;1.5;0.75;1.25;2.25;0.5;0.25;-0.237793;0.037109;0.975586;-0.84;-1.05;0.77;391.0;-0.127371;-0.044073
2.52;5.0;3.75;3.0;2.25;0.25;0.5;0.0;0.5;2.5;0.5;0.5;0.5;0.25;1.75;0.25;0.25;-0.205078;0.016113;0.989258;-0.7;0.77;0.56;251.0;-0.141723;0.00512;6.5;7.0;2.0;3.0;1.5;2.5;0.25;1.0;3.25;0.5;1.25;0.75;1.0;2.5;0.5;0.25;-0.243652;0.044922;0.978027;-0.77;-0.91;0.77;388.0;-0.12932;-0.03717
2.53;4.75;3.75;3.25;2.5;0.5;0.5;0.0;0.5;2.5;0.5;0.5;0.5;0.25;1.75;0.25;0.5;-0.202148;0.019531;0.987305;-0.63;0.7;0.63;259.0;-0.138948;0.00114;6.25;7.0;2.0;3.0;1.5;2.5;0.25;1.0;3.25;0.25;1.25;0.75;1.5;2.5;0.5;0.25;-0.243652;0.043945;0.977051;-0.77;-0.98;0.7;387.0;-0.126397;-0.044145
2.54;5.0;3.25;3.0;2.25;0.5;0.5;0.0;0.5;2.5;0.5;0.5;0.5;0.5;1.5;0.25;0.25;-0.204102;0.018555;0.990723;-0.56;0.63;0.56;249.0;-0.138186;0.003243;6.25;7.0;2.0;3.0;1.75;2.5;0.25;1.0;3.25;0.25;1.5;0.75;1.25;2.25;0.5;0.25;-0.240723;0.041504;0.975098;-0.77;-0.98;0.77;388.0;-0.128811;-0.042652
2.55;5.0;3.75;2.75;2.25;0.5;0.5;0.0;0.5;2.25;0.5;0.75;0.5;0.5;1.5;0.25;0.25;-0.198242;0.016602;0.98877;-0.63;0.77;0.56;250.0;-0.143717;-0.006448;6.0;7.0;2.0;3.25;1.75;2.5;0.25;1.0;3.25;0.25;1.5;0.75;1.0;2.25;0.5;0.25;-0.241699;0.034668;0.979004;-0.91;-1.05;0.84;386.0;-0.129853;-0.042623
2.56;4.5;3.25;3.0;2.25;0.5;0.5;0.0;0.5;2.5;0.5;0.5;0.75;0.5;1.75;0.25;0.0;-0.202637;0.015137;0.98584;-0.7;0.7;0.63;247.0;-0.125888;0.000874;6.25;7.0;2.25;3.25;1.75;2.5;0.25;1.0;3.25;0.25;1.25;0.75;1.25;2.25;0.5;0.25;-0.246582;0.039062;0.977051;-0.77;-1.05;0.84;391.0;-0.133686;-0.042485
2.57;4.5;3.5;3.25;2.5;0.5;0.5;0.0;0.5;2.5;0.5;0.5;0.5;0.5;1.5;0.25;0.25;-0.204102;0.019531;0.989258;-0.63;0.7;0.49;252.0;-0.138337;-0.002497;6.25;6.75;2.25;3.25;1.5;2.5;0.25;1.0;3.0;0.5;1.75;0.5;1.25;2.5;0.75;0.25;-0.249512;0.039551;0.978027;-0.84;-1.05;0.84;393.0;-0.122881;-0.042799
2.58;4.75;4.0;3.0;2.5;0.5;0.5;0.25;0.5;2.5;0.5;0.75;0.5;0.5;1.5;0.5;0.25;-0.205566;0.023926;0.992676;-0.7;0.7;0.56;267.0;-0.1318;-0.003744;6.25;6.75;2.0;3.25;1.5;2.75;0.25;1.0;3.0;0.5;1.25;0.5;1.0;2.5;0.75;0.25;-0.243164;0.04248;0.967773;-0.84;-0.98;0.84;385.0;-0.12895;-0.041976
2.59;4.75;3.75;3.0;2.25;0.5;0.5;0.0;0.5;2.5;0.25;0.5;0.5;0.5;2.0;0.5;0.25;-0.210938;0.019043;0.980957;-0.49;0.7;0.56;256.0;-0.12884;0.000275;6.5;7.25;2.0;3.0;1.5;2.5;0.25;1.0;3.25;0.5;1.5;0.75;1.0;2.25;0.75;0.25;-0.246582;0.041504;0.979004;-0.84;-1.05;0.91;394.0;-0.127865;-0.04016
2.6;4.75;3.75;2.75;2.25;0.5;0.5;0.0;0.5;2.5;0.25;0.5;0.75;0.5;1.75;0.25;0.25;-0.205078;0.019531;0.992676;-0.63;0.7;0.49;251.0;-0.134449;-0.004915;6.0;7.25;2.0;3.0;1.5;2.75;0.25;1.0;3.25;0.75;1.75;0.75;1.25;2.5;0.5;0.25;-0.242676;0.039551;0.978516;-0.77;-1.05;0.84;399.0;-0.117922;-0.044732
2.61;5.0;3.75;3.0;2.5;0.5;0.5;0.0;0.5;2.5;0.5;0.5;0.75;0.5;1.75;0.0;0.25;-0.199707;0.012695;0.999023;-0.63;0.84;0.56;259.0;-0.142571;-0.003502;6.5;7.0;2.0;3.25;1.5;2.5;0.25;1.0;3.25;0.25;1.25;0.75;1.25;2.25;0.5;0.25;-0.245117;0.041016;0.97168;-0.77;-0.98;0.84;388.0;-0.13468;-0.04322
2.62;5.5;3.75;3.0;2.5;0.5;0.5;0.0;0.5;2.5;0.5;0.5;0.5;0.5;1.5;0.25;0.25;-0.205078;0.019531;0.993652;-0.56;0.91;0.56;263.0;-0.150938;-0.000334;6.25;7.0;2.0;3.25;1.5;2.5;0.25;1.0;3.0;0.25;1.25;0.75;1.0;2.0;0.5;0.25;-0.243652;0.041504;0.976074;-0.91;-1.05;0.77;377.0;-0.141643;-0.046121
2.63;5.0;3.5;3.25;2.25;0.5;0.5;0.25;0.5;2.5;0.5;0.5;0.5;0.5;1.75;0.25;0.25;-0.205078;0.01709;0.987305;-0.56;0.84;0.56;261.0;-0.134017;0.007939;6.0;7.25;2.25;3.25;1.75;2.5;0.25;1.0;3.25;0.25;1.5;0.5;1.0;2.0;0.5;0.25;-0.245117;0.037109;0.967285;-0.7;-0.91;0.7;386.0;-0.138579;-0.041823
2.64;4.75;3.5;2.75;2.25;0.25;0.5;0.25;0.5;2.5;0.5;0.5;0.5;0.5;2.25;0.25;0.25;-0.205078;0.019531;0.993164;-0.63;0.63;0.56;254.0;-0.117959;0.007334;6.25;7.0;2.0;3.0;1.5;2.5;0.25;1.0;3.25;0.25;1.25;0.5;1.0;2.25;0.5;0.25;-0.23877;0.035645;0.975098;-0.7;-0.98;0.84;377.0;-0.135972;-0.038374
2.65;4.75;3.75;2.75;2.25;0.25;0.5;0.0;0.5;2.5;0.5;0.5;0.5;0.5;2.25;0.25;0.25;-0.203125;0.021484;0.990234;-0.49;0.63;0.49;252.0;-0.124181;0.001759;6.25;7.0;2.0;3.0;1.5;2.5;0.25;1.0;3.25;0.25;1.25;0.5;1.25;2.25;0.5;0.25;-0.243164;0.040527;0.975586;-0.77;-0.91;0.84;379.0;-0.134076;-0.041001
2.66;5.0;3.5;3.0;2.25;0.25;0.5;0.25;0.5;2.5;0.5;0.5;0.5;0.5;1.5;0.25;0.25;-0.204102;0.019043;0.990234;-0.77;0.7;0.56;253.0;-0.137555;0.004764;6.25;7.25;2.0;3.0;1.5;2.5;0.25;1.0;3.0;0.25;1.25;0.75;1.25;2.0;0.75;0.25;-0.238281;0.037109;0.97998;-0.77;-1.05;0.77;382.0;-0.13627;-0.048342
2.67;5.0;3.75;2.75;2.25;0.25;0.75;0.25;0.5;2.5;0.5;0.5;0.5;0.5;1.5;0.25;0.5;-0.202148;0.015625;0.987793;-0.49;0.56;0.56;257.0;-0.136072;-0.002974;6.0;7.25;2.25;3.0;1.25;2.5;0.25;1.0;3.0;0.5;1.25;0.75;1.0;2.25;0.5;0.25;-0.244629;0.039062;0.983398;-0.77;-0.91;0.77;379.0;-0.13523;-0.044227
2.68;5.0;3.75;2.75;2.25;0.25;0.75;0.25;0.5;2.75;0.75;0.5;0.5;0.5;1.75;0.25;0.5;-0.204102;0.021973;0.98877;-0.63;0.63;0.63;265.0;-0.121952;0.00306;6.25;7.25;2.25;3.25;1.75;2.5;0.25;1.0;3.25;0.25;1.25;0.75;1.25;2.5;0.5;0.25;-0.242188;0.033691;0.977051;-0.84;-0.98;0.84;396.0;-0.132284;-0.041982
2.69;5.0;3.75;2.75;2.5;0.25;0.5;0.0;0.5;2.5;0.75;0.5;0.75;0.5;1.75;0.5;0.5;-0.206055;0.01709;0.987305;-0.56;0.63;0.56;263.0;-0.122415;-0.008041;6.25;7.0;2.25;3.25;1.5;2.5;0.25;1.0;3.25;0.25;1.0;0.75;1.0;2.25;0.5;0.0;-0.248535;0.040039;0.973633;-0.84;-0.98;0.84;382.0;-0.140235;-0.039113
2.7;5.25;3.75;2.75;2.5;0.25;0.5;0.0;0.5;2.5;0.25;0.5;0.75;0.5;1.75;0.25;0.25;-0.203125;0.02002;0.993164;-0.56;0.63;0.49;256.0;-0.142282;-0.005751;6.25;7.0;2.25;3.25;1.5;2.5;0.25;1.0;3.25;0.25;1.25;0.75;1.0;2.25;0.25;0.0;-0.241211;0.036621;0.974121;-0.84;-1.05;0.84;382.0;-0.141606;-0.039365
2.71;5.0;3.75;3.0;2.25;0.25;0.5;0.0;0.5;2.5;0.25;0.5;0.5;0.5;1.75;0.25;0.5;-0.204102;0.021484;0.991699;-0.56;0.56;0.56;252.0;-0.140175;-0.001775;6.0;7.0;2.0;3.0;1.25;2.5;0.25;1.0;3.0;0.25;1.25;0.75;1.0;2.5;0.25;0.25;-0.240723;0.04541;0.971191;-0.91;-0.98;0.77;370.0;-0.135894;-0.043641
2.72;5.0;3.75;3.25;2.5;0.25;0.75;0.0;0.5;2.5;0.5;0.5;0.5;0.5;1.5;0.25;0.25;-0.202637;0.013672;0.994141;-0.56;0.56;0.63;260.0;-0.147105;-0.005487;6.25;7.0;2.0;3.0;1.5;2.25;0.25;1.0;3.25;0.25;1.25;0.75;1.0;2.0;0.25;0.25;-0.237305;0.039062;0.977051;-0.91;-1.12;0.77;372.0;-0.140789;-0.039504
2.73;5.0;3.5;3.0;2.5;0.25;0.75;0.25;0.5;2.25;0.25;0.25;0.5;0.5;1.25;0.25;0.25;-0.209961;0.01709;0.988281;-0.63;0.49;0.56;247.0;-0.158977;-0.006175;6.0;6.75;2.0;3.0;1.5;2.25;0.25;1.0;3.0;0.25;1.25;0.75;1.0;2.25;0.5;0.0;-0.245605;0.039551;0.976074;-0.91;-1.05;0.77;367.0;-0.134972;-0.040691
2.74;5.25;3.75;3.0;2.5;0.25;0.75;0.25;0.5;2.25;0.25;0.25;0.5;0.5;1.5;0.25;0.25;-0.207031;0.021484;0.991211;-0.49;0.28;0.63;255.0;-0.15903;-0.004804;6.25;7.0;2.0;3.25;1.5;2.5;0.25;1.0;3.0;0.25;1.25;0.75;1.0;2.75;0.5;0.0;-0.239746;0.035645;0.977051;-0.77;-1.05;0.84;383.0;-0.133495;-0.04101
2.75;4.75;3.75;3.0;2.5;0.5;0.75;0.0;0.5;2.5;0.25;0.25;0.5;0.5;1.75;0.25;0.25;-0.205078;0.018066;0.990723;-0.63;0.56;0.56;254.0;-0.145993;-0.004968;6.25;7.5;2.0;3.0;1.75;2.75;0.25;1.0;3.0;0.25;1.5;0.75;1.25;2.25;0.5;0.0;-0.244141;0.036621;0.981934;-0.84;-0.84;0.77;391.0;-0.138073;-0.047868
2.76;4.5;3.75;3.25;1.75;0.5;0.75;0.0;0.5;2.25;0.5;0.5;0.5;0.5;1.5;0.25;0.5;-0.206055;0.026855;0.995117;-0.7;0.63;0.56;246.0;-0.138636;-0.005205;6.0;7.5;2.0;3.0;1.5;2.5;0.25;1.0;3.25;0.25;1.5;0.75;1.0;2.0;0.5;0.0;-0.240723;0.041504;0.975098;-0.7;-0.91;0.7;381.0;-0.137649;-0.04393
2.77;5.25;3.75;3.0;2.25;0.5;0.75;0.25;0.5;2.5;0.5;0.5;0.5;0.5;1.75;0.25;0.25;-0.208496;0.021973;0.98877;-0.56;0.7;0.56;266.0;-0.138248;0.003297;6.25;6.75;2.25;3.25;1.5;2.5;0.25;1.0;3.25;0.5;1.25;0.75;1.0;2.25;0.5;0.25;-0.249023;0.038574;0.972168;-0.7;-0.84;0.7;386.0;-0.131;-0.039148
2.78;5.5;4.0;3.0;2.5;0.5;0.5;0.0;0.5;2.75;0.5;0.25;0.5;0.5;1.75;0.25;0.25;-0.19873;0.018066;0.990723;-0.63;0.77;0.56;268.0;-0.147146;0.004542;6.25;7.0;2.0;3.0;1.5;2.5;0.25;1.0;3.25;0.25;1.25;0.75;1.0;2.0;0.5;0.25;-0.243652;0.037598;0.976562;-0.7;-0.91;0.84;378.0;-0.136715;-0.041666
2.79;5.25;3.75;3.25;2.5;0.5;0.5;0.0;0.5;2.5;0.5;0.25;0.5;0.5;1.75;0.5;0.25;-0.203125;0.020508;0.991211;-0.49;0.7;0.56;265.0;-0.142662;0.001451;5.5;7.0;2.0;3.0;1.25;2.25;0.25;1.0;3.0;0.25;1.25;0.75;1.0;2.0;0.5;0.25;-0.242188;0.039062;0.976562;-0.77;-0.98;0.77;360.0;-0.134301;-0.047309
2.8;4.5;4.0;3.0;2.5;0.5;0.5;0.25;0.5;2.5;0.5;0.5;0.75;0.5;1.25;0.25;0.5;-0.204102;0.015137;0.989258;-0.56;0.42;0.56;260.0;-0.137011;-0.009492;5.5;7.0;2.0;3.0;1.5;2.5;0.25;1.0;3.25;0.25;0.75;1.0;1.0;2.0;0.5;0.25;-0.244629;0.04248;0.974609;-0.77;-1.05;0.77;366.0;-0.133487;-0.045994
2.81;5.0;4.0;2.75;2.5;0.5;0.5;0.25;0.5;2.75;0.5;0.5;0.5;0.5;1.0;0.0;0.25;-0.205078;0.01709;0.990723;-0.63;0.56;0.56;257.0;-0.153669;-1.7e-05;6.0;6.75;2.0;2.75;1.25;2.5;0.25;1.0;3.25;0.25;1.25;0.75;1.0;2.0;0.5;0.25;-0.24707;0.038086;0.973633;-0.77;-0.91;0.77;366.0;-0.13159;-0.041317
2.82;5.5;3.75;3.0;2.5;0.5;0.5;0.25;0.5;2.5;0.25;0.5;0.25;0.5;1.5;0.0;0.25;-0.208984;0.021484;0.98584;-0.63;0.35;0.56;258.0;-0.161768;0.007038;6.0;7.0;2.0;2.75;1.25;2.5;0.25;1.0;3.25;0.25;1.25;0.75;1.0;2.25;0.5;0.25;-0.243652;0.037598;0.977051;-0.63;-1.05;0.77;371.0;-0.130121;-0.040794
2.83;5.5;4.0;3.0;2.5;0.25;0.75;0.25;0.5;2.75;0.5;0.5;0.25;0.5;1.5;0.0;0.25;-0.209473;0.022949;0.988281;-0.63;0.35;0.63;267.0;-0.154601;0.005861;6.0;7.0;1.75;3.0;1.25;2.5;0.25;1.0;3.25;0.5;1.25;0.75;1.0;2.25;0.25;0.25;-0.240234;0.039551;0.978027;-0.63;-0.98;0.84;371.0;-0.131596;-0.04223
2.84;5.5;4.0;3.25;2.5;0.25;0.75;0.25;0.5;2.75;0.5;0.75;0.5;0.5;1.25;0.25;0.25;-0.199707;0.015625;0.98584;-0.7;0.28;0.56;277.0;-0.147038;2.2e-05;6.0;7.0;2.0;3.0;1.25;2.5;0.25;1.0;3.25;0.25;1.5;0.75;1.25;2.25;0.25;0.25;-0.24707;0.040039;0.972656;-0.63;-0.98;0.77;376.0;-0.130891;-0.045148
2.85;5.5;4.0;3.5;2.5;0.5;0.75;0.25;0.5;2.5;0.5;0.75;0.5;0.5;1.75;0.25;0.25;-0.207031;0.016602;0.988281;-0.7;0.35;0.56;284.0;-0.144007;0.001081;6.25;6.75;2.0;3.0;1.25;2.5;0.25;1.0;3.25;0.25;1.75;0.75;1.0;2.25;0.5;0.25;-0.242188;0.040039;0.984375;-0.56;-0.91;0.77;380.0;-0.126138;-0.041432
2.86;6.0;4.5;3.25;2.5;0.5;0.75;0.25;0.5;2.5;0.5;0.75;0.5;0.25;1.75;0.25;0.25;-0.208984;0.020996;0.989746;-0.63;0.42;0.56;289.0;-0.15511;0.003114;6.25;6.75;2.25;3.0;1.25;2.5;0.25;1.0;3.25;0.25;1.25;0.75;1.0;2.5;0.75;0.25;-0.24707;0.037598;0.972168;-0.63;-0.98;0.84;383.0;-0.125245;-0.038252
2.87;5.75;4.5;3.25;2.5;0.5;0.5;0.25;0.5;2.5;0.5;0.5;0.5;0.5;1.75;0.25;0.25;-0.199707;0.018066;0.992676;-0.84;0.77;0.56;283.0;-0.153809;0.002293;5.75;6.75;2.0;3.0;1.5;2.75;0.25;1.0;3.0;0.25;1.25;0.75;1.0;2.25;0.5;0.25;-0.246094;0.037109;0.974609;-0.7;-0.98;0.84;371.0;-0.131227;-0.046642
2.88;5.75;4.25;3.5;2.5;0.5;0.5;0.25;0.5;2.5;0.5;0.5;0.75;0.5;1.75;0.25;0.25;-0.20459;0.022461;0.992676;-0.63;0.56;0.49;286.0;-0.149033;0.0017;6.0;6.75;2.0;3.0;1.5;2.75;0.25;1.0;3.0;0.25;1.5;0.75;1.0;2.25;0.5;0.25;-0.242188;0.038086;0.97998;-0.63;-0.98;0.7;377.0;-0.130559;-0.046
2.89;5.5;4.0;3.5;2.5;0.5;0.75;0.25;0.5;2.5;0.5;0.75;0.75;0.5;1.75;0.5;0.5;-0.202148;0.014648;0.990234;-0.63;0.49;0.56;291.0;-0.132511;-0.004284;6.0;7.0;2.0;3.0;1.25;2.5;0.25;1.0;3.0;0.25;1.5;0.75;1.0;2.5;0.5;0.25;-0.242676;0.033203;0.974121;-0.56;-0.91;0.84;376.0;-0.128992;-0.044485
2.9;5.5;4.5;3.25;2.75;0.5;0.75;0.25;0.5;2.5;0.5;0.75;0.5;0.5;1.75;0.5;0.25;-0.19873;0.013672;0.992676;-0.56;0.56;0.49;292.0;-0.143501;-0.005875;6.25;6.75;1.75;3.0;1.25;2.5;0.25;1.0;3.25;0.5;1.25;0.75;1.25;2.25;0.5;0.25;-0.244629;0.040039;0.980469;-0.63;-1.05;0.77;377.0;-0.125742;-0.043191
2.91;5.75;4.25;3.5;2.5;0.5;0.5;0.25;0.5;2.75;0.5;0.75;0.5;0.5;2.0;0.25;0.25;-0.200684;0.02002;0.989746;-0.63;0.56;0.63;292.0;-0.139458;0.008225;6.25;6.75;1.75;3.25;1.25;2.5;0.25;1.0;3.25;0.5;1.25;0.75;1.25;2.0;0.75;0.25;-0.24707;0.039551;0.97998;-0.56;-1.05;0.77;380.0;-0.126283;-0.046268
2.92;5.75;4.0;3.25;2.5;0.5;1.0;0.25;0.5;2.75;0.5;1.0;0.5;0.5;2.25;0.25;0.25;-0.202637;0.016113;0.988281;-0.7;0.63;0.56;297.0;-0.128252;0.00338;6.25;7.0;2.0;3.0;1.25;2.5;0.25;1.0;3.25;0.5;1.25;0.75;1.25;2.0;0.25;0.25;-0.244629;0.040527;0.976074;-0.63;-0.98;0.77;377.0;-0.13619;-0.044006
2.93;5.5;4.0;3.25;2.5;0.5;0.75;0.25;0.5;2.5;0.5;1.0;0.5;0.5;1.75;0.25;0.25;-0.203613;0.020996;0.991699;-0.77;0.7;0.63;283.0;-0.138967;-0.001048;6.25;6.75;2.0;3.0;1.25;2.5;0.25;1.0;3.0;0.25;1.25;0.75;1.0;2.25;0.25;0.25;-0.245117;0.041992;0.979492;-0.63;-1.05;0.84;368.0;-0.139487;-0.043026
2.94;5.75;4.5;3.5;2.5;0.5;0.75;0.25;0.5;2.5;0.5;0.5;0.5;0.5;1.5;0.0;0.25;-0.20459;0.02002;0.989258;-0.77;0.63;0.56;283.0;-0.165309;-0.000241;6.25;7.0;2.0;3.25;1.5;2.5;0.25;1.0;3.0;0.25;1.5;0.75;1.0;2.25;0.25;0.25;-0.244141;0.041992;0.973633;-0.7;-1.05;0.91;379.0;-0.139631;-0.045005
2.95;5.5;4.5;3.5;2.5;0.5;0.75;0.25;0.5;2.5;0.5;0.5;0.5;0.5;1.5;0.0;0.25;-0.203125;0.013184;0.98584;-0.7;0.63;0.56;281.0;-0.162911;-0.001342;6.25;7.0;2.0;3.25;1.25;2.5;0.25;1.0;3.25;0.25;1.5;1.0;1.25;2.0;0.25;0.25;-0.24707;0.041504;0.977539;-0.56;-0.91;0.84;383.0;-0.134871;-0.048655
2.96;5.25;4.5;3.75;2.75;0.5;0.75;0.25;0.5;2.5;0.5;0.5;0.5;0.25;1.5;0.25;0.25;-0.204102;0.021973;0.994141;-0.7;0.56;0.63;284.0;-0.159935;-0.000827;6.25;7.0;2.0;3.25;1.5;2.5;0.25;1.0;2.5;0.5;1.5;0.75;1.25;1.75;0.5;0.25;-0.246582;0.03418;0.981934;-0.63;-1.05;0.77;376.0;-0.145008;-0.05591
2.97;5.5;4.0;3.75;3.0;0.5;0.75;0.25;0.5;2.75;0.75;0.5;0.75;0.5;1.75;0.25;0.5;-0.208984;0.012695;0.988281;-0.77;0.56;0.49;301.0;-0.13736;-0.001972;6.25;6.75;2.0;3.25;1.5;2.5;0.25;1.0;3.0;0.5;1.5;0.75;1.25;2.25;0.5;0.25;-0.244629;0.041016;0.974609;-0.63;-0.98;0.77;385.0;-0.129043;-0.046233
2.98;5.75;4.0;3.75;3.0;0.5;0.75;0.25;0.5;3.0;0.5;0.5;0.5;0.5;1.75;0.25;0.5;-0.202637;0.01416;0.986816;-0.7;0.49;0.56;301.0;-0.142056;0.004538;6.0;6.75;2.0;3.0;1.25;2.5;0.25;1.25;3.0;0.5;1.25;0.75;1.25;2.25;0.5;0.25;-0.245605;0.039062;0.974609;-0.56;-0.91;0.77;377.0;-0.127161;-0.050116
2.99;5.5;4.25;3.5;2.5;0.5;0.75;0.25;0.5;2.75;0.25;0.5;0.5;0.5;1.75;0.25;0.5;-0.20459;0.018066;0.991211;-0.7;0.63;0.63;286.0;-0.146315;0.00194;6.25;7.0;2.0;3.0;1.5;2.75;0.25;1.25;3.25;0.5;1.25;0.75;1.0;2.25;0.5;0.25;-0.246582;0.041016;0.971191;-0.7;-1.05;0.84;390.0;-0.129485;-0.045093
3.0;5.75;4.25;3.25;2.5;0.75;0.5;0.25;0.5;2.5;0.25;0.75;0.5;0.25;1.75;0.25;0.5;-0.204102;0.015137;0.990723;-0.84;0.7;0.49;282.0;-0.15128;0.004818;6.25;6.75;2.0;3.0;1.5;3.0;0.25;1.25;3.25;0.25;1.25;0.75;1.5;2.25;0.5;0.25;-0.244629;0.039551;0.970215;-0.77;-1.05;0.7;392.0;-0.126904;-0.051834
3.01;5.5;4.25;3.5;2.5;1.0;0.5;0.25;0.5;2.75;0.5;0.75;0.5;0.25;1.75;0.25;0.5;-0.203613;0.021484;0.998535;-0.77;0.63;0.49;292.0;-0.140956;0.00915;6.5;6.75;2.0;3.0;1.25;3.0;0.25;1.25;3.25;0.25;1.5;0.75;1.25;2.25;0.5;0.25;-0.242188;0.037109;0.976562;-0.77;-0.98;0.84;393.0;-0.128115;-0.04955
3.02;5.75;4.75;3.5;2.75;0.75;0.75;0.25;0.5;2.75;0.5;0.75;0.75;0.5;1.75;0.25;0.5;-0.208008;0.02002;0.989746;-0.7;0.63;0.56;308.0;-0.143922;-0.004765;6.25;6.75;2.0;3.0;1.5;2.75;0.25;1.25;3.25;0.5;1.5;0.75;1.0;2.0;0.5;0.25;-0.249023;0.037598;0.977051;-0.77;-0.98;0.84;388.0;-0.128243;-0.046162
3.03;5.75;4.75;3.25;2.5;0.5;0.75;0.25;0.5;3.0;0.5;0.75;0.5;0.5;2.0;0.25;0.25;-0.208496;0.015625;0.994141;-0.7;0.7;0.56;300.0;-0.138243;0.004863;6.25;6.75;2.0;3.0;1.5;2.75;0.25;1.0;3.0;0.5;1.25;1.0;1.25;2.25;0.25;0.25;-0.244141;0.041016;0.976562;-0.7;-0.98;0.84;382.0;-0.132118;-0.047686
3.04;5.75;4.25;3.5;2.5;0.5;0.5;0.25;0.5;2.75;0.5;0.75;0.5;0.5;1.5;0.25;0.0;-0.206055;0.016602;0.988281;-0.63;0.77;0.56;286.0;-0.151016;0.00714;5.5;6.75;1.75;3.0;1.5;2.5;0.25;1.0;3.0;0.5;1.5;0.75;1.25;2.25;0.25;0.5;-0.24707;0.046387;0.979004;-0.63;-0.98;0.7;369.0;-0.122525;-0.050263
3.05;5.5;4.0;3.5;2.75;0.5;0.5;0.25;0.25;2.75;0.5;1.0;0.5;0.25;1.25;0.25;0.0;-0.206543;0.020508;0.992676;-0.63;0.84;0.49;277.0;-0.153138;0.012437;6.25;6.75;1.75;3.0;1.75;2.5;0.25;1.25;3.0;0.5;1.25;1.0;1.25;2.0;0.5;0.25;-0.244141;0.040527;0.973145;-0.63;-0.91;0.77;384.0;-0.128811;-0.051531
3.06;5.75;4.0;3.5;2.75;0.5;0.5;0.25;0.5;2.75;0.5;0.75;0.5;0.25;1.75;0.25;0.25;-0.205078;0.022949;0.990723;-0.63;0.7;0.56;288.0;-0.145555;0.009801;5.75;6.25;1.75;3.0;1.5;2.5;0.25;1.0;3.0;0.5;1.25;1.0;1.25;2.25;0.5;0.0;-0.243652;0.036621;0.971191;-0.49;-0.84;0.77;367.0;-0.12052;-0.046982
3.07;5.25;4.0;3.25;2.5;0.5;0.5;0.25;0.5;2.75;0.5;0.75;0.5;0.5;1.75;0.0;0.5;-0.206055;0.01709;0.991699;-0.56;0.56;0.56;277.0;-0.137776;0.004656;5.5;6.0;2.25;3.0;1.25;2.5;0.25;1.0;3.25;0.25;1.5;0.75;1.25;2.25;0.5;0.0;-0.244141;0.042969;0.97168;-0.56;-0.77;0.77;365.0;-0.117671;-0.042273
3.08;5.0;4.25;3.5;2.5;0.5;0.75;0.25;0.5;2.75;0.5;0.75;0.5;0.5;1.75;0.0;0.5;-0.202148;0.019043;0.993652;-0.56;0.84;0.49;283.0;-0.139136;8.3e-05;5.75;6.75;2.0;3.0;1.25;2.5;0.25;1.0;3.25;0.25;1.5;0.75;1.25;2.25;0.5;0.0;-0.236816;0.046387;0.974121;-0.35;-0.84;0.77;372.0;-0.124697;-0.044717
3.09;5.5;4.0;3.25;2.5;0.5;0.5;0.25;0.5;2.75;0.5;0.75;0.5;0.5;1.5;0.25;0.25;-0.205078;0.019043;0.995605;-0.7;0.77;0.49;279.0;-0.14209;0.005072;5.5;5.75;2.0;3.0;1.25;2.5;0.25;1.25;3.0;0.25;1.25;0.75;1.25;2.25;0.5;0.25;-0.241699;0.043945;0.980469;-0.49;-0.77;0.7;359.0;-0.117586;-0.050266
3.1;5.75;4.25;3.5;2.75;0.5;0.75;0.25;0.5;2.75;0.5;0.75;0.5;0.5;1.5;0.5;0.0;-0.20166;0.022461;0.98584;-0.7;0.7;0.56;295.0;-0.146982;0.001084;5.0;5.75;1.75;2.75;1.5;2.5;0.25;1.0;3.0;0.25;1.25;0.75;1.25;2.25;0.5;0.25;-0.248535;0.040527;0.981934;-0.56;-0.7;0.7;346.0;-0.11147;-0.047507
3.11;5.5;4.25;3.75;2.5;0.5;0.75;0.25;0.5;2.75;0.5;0.75;0.5;0.25;1.75;0.25;0.25;-0.20166;0.017578;0.994629;-0.63;0.91;0.49;290.0;-0.14526;0.00767;5.25;5.75;1.75;2.75;1.25;2.5;0.25;1.0;3.0;0.25;1.25;1.0;1.25;2.25;0.5;0.25;-0.241211;0.04248;0.98291;-0.56;-0.77;0.7;349.0;-0.111075;-0.049227
3.12;5.5;4.0;2.5;2.5;0.5;0.5;0.25;0.5;2.5;0.5;0.75;0.5;0.5;1.5;0.25;0.25;-0.204102;0.016113;0.990723;-0.7;0.77;0.56;266.0;-0.1432;-0.00144;4.75;5.75;2.0;2.75;1.25;2.5;0.25;1.0;3.0;0.25;1.5;0.75;1.0;2.25;0.5;0.25;-0.245605;0.041992;0.975098;-0.49;-0.77;0.77;344.0;-0.109432;-0.046263
3.13;5.0;4.0;3.25;2.5;0.5;0.5;0.25;0.25;2.75;0.75;0.75;0.5;0.5;1.5;0.5;0.25;-0.201172;0.020996;0.989746;-0.63;0.7;0.49;275.0;-0.128987;0.008645;4.75;5.5;1.75;2.75;1.5;2.5;0.25;1.0;3.0;0.25;1.5;0.75;1.0;2.25;0.5;0.25;-0.245117;0.04248;0.976074;-0.42;-0.7;0.7;341.0;-0.105906;-0.045643
3.14;5.25;4.0;3.25;2.5;0.5;0.5;0.25;0.5;2.75;0.75;0.75;0.5;0.25;1.5;0.5;0.25;-0.205078;0.021973;0.992188;-0.63;0.98;0.49;279.0;-0.13254;0.007657;4.5;5.75;1.75;2.75;1.25;2.5;0.25;1.0;3.0;0.5;1.5;0.75;1.25;2.75;0.5;0.25;-0.240234;0.037109;0.979492;-0.42;-0.77;0.91;348.0;-0.093948;-0.047637
3.15;5.5;4.0;3.25;2.5;0.75;0.5;0.25;0.5;2.75;0.5;0.75;0.5;0.25;1.5;0.25;0.25;-0.206055;0.018066;0.995605;-0.56;0.7;0.49;280.0;-0.144533;0.009607;4.5;5.5;1.75;2.75;1.25;2.5;0.25;1.0;3.0;0.5;1.5;0.75;1.5;2.25;0.5;0.25;-0.245117;0.040039;0.979492;-0.35;-0.84;0.84;343.0;-0.096628;-0.05266
3.16;4.5;3.75;3.5;2.25;0.5;0.5;0.25;0.5;2.75;0.5;0.75;0.75;0.25;1.5;0.25;0.25;-0.205078;0.01709;0.993164;-0.63;0.84;0.56;266.0;-0.127094;0.006705;4.75;5.5;1.75;2.75;1.25;2.25;0.25;1.0;3.0;0.5;1.5;1.0;1.5;2.0;0.5;0.25;-0.237793;0.037598;0.977539;-0.49;-0.77;0.84;343.0;-0.099556;-0.053019
3.17;4.75;4.0;3.5;2.5;0.5;0.5;0.25;0.5;2.75;0.5;0.75;0.75;0.5;1.75;0.25;0.25;-0.201172;0.020996;0.989746;-0.63;0.7;0.56;279.0;-0.12724;0.001157;4.75;5.25;1.75;2.75;1.5;2.5;0.25;1.25;3.0;0.25;1.75;1.25;1.0;2.25;0.5;0.25;-0.23877;0.042969;0.972168;-0.56;-0.77;0.77;351.0;-0.094711;-0.053553
3.18;5.25;4.0;3.5;2.5;0.5;0.5;0.25;0.5;2.75;0.75;0.5;0.5;0.5;1.5;0.5;0.25;-0.202148;0.024414;0.990723;-0.56;0.63;0.56;282.0;-0.135093;0.005874;4.5;5.25;1.75;2.5;1.5;2.5;0.25;1.25;3.0;0.25;1.25;1.0;1.5;2.25;0.75;0.25;-0.248047;0.040527;0.974609;-0.7;-1.05;0.77;345.0;-0.090567;-0.056152
3.19;5.25;4.0;3.0;2.5;0.5;0.5;0.25;0.5;2.75;0.75;0.5;0.5;0.5;2.0;0.5;0.25;-0.203125;0.025879;0.993164;-0.63;0.63;0.56;281.0;-0.123191;0.006905;4.5;5.5;1.75;2.5;1.25;2.5;0.25;1.0;3.25;0.25;1.5;0.75;1.5;2.25;0.75;0.25;-0.250488;0.042969;0.979004;-0.63;-0.98;0.84;343.0;-0.089865;-0.048962
3.2;4.75;3.75;3.25;2.25;0.5;0.5;0.25;0.5;2.5;0.75;0.5;0.5;0.5;2.25;0.5;0.25;-0.203125;0.012695;0.998047;-0.56;0.7;0.49;271.0;-0.114821;0.00781;4.5;5.25;1.75;2.75;1.25;2.25;0.25;1.25;3.0;0.25;1.75;0.75;1.25;2.25;0.75;0.25;-0.241211;0.04248;0.97998;-0.7;-0.91;0.84;342.0;-0.090469;-0.052966
3.21;5.0;4.0;2.75;2.5;0.5;0.5;0.25;0.5;2.5;0.75;0.75;0.5;0.5;1.75;0.5;0.25;-0.206543;0.018555;0.987305;-0.56;0.7;0.7;272.0;-0.124577;-0.001356;4.5;5.0;1.75;2.75;1.25;2.25;0.25;1.25;3.0;0.5;1.75;1.0;1.5;2.25;0.5;0.25;-0.244141;0.041992;0.977051;-0.77;-0.98;0.77;345.0;-0.085224;-0.055753
3.22;5.25;4.0;3.5;2.5;0.5;0.5;0.25;0.5;2.5;0.5;0.5;0.5;0.25;2.0;0.25;0.25;-0.20459;0.017578;0.990723;-0.49;0.77;0.56;275.0;-0.143083;0.009604;4.75;5.25;1.75;2.75;1.25;2.5;0.25;1.0;3.0;0.5;1.25;0.75;1.0;2.5;0.25;0.25;-0.243652;0.036133;0.970703;-0.84;-0.98;0.84;335.0;-0.10409;-0.042305
3.23;5.0;4.0;3.5;2.25;0.5;0.5;0.25;0.5;2.25;0.5;0.5;0.5;0.25;2.0;0.25;0.25;-0.20752;0.015625;0.990723;-0.56;0.63;0.49;266.0;-0.14406;0.007629;4.5;5.5;1.75;2.5;1.5;2.5;0.25;1.0;3.0;0.5;1.75;0.75;1.25;2.25;0.25;0.25;-0.246582;0.039062;0.976562;-0.84;-1.05;0.77;340.0;-0.098575;-0.047593
3.24;5.0;4.0;3.5;2.25;0.5;0.5;0.0;0.5;2.5;0.5;0.5;0.5;0.5;2.0;0.25;0.25;-0.206055;0.02002;0.992676;-0.35;0.63;0.63;267.0;-0.1394;0.003445;4.75;5.5;1.75;2.5;1.25;2.25;0.25;1.0;3.0;0.5;1.5;0.75;1.25;2.5;0.5;0.25;-0.239746;0.04248;0.973145;-0.84;-0.98;0.84;340.0;-0.095373;-0.043456
3.25;4.75;4.0;3.5;2.5;0.5;0.5;0.0;0.5;2.75;0.5;0.5;0.25;0.5;2.0;0.25;0.25;-0.210449;0.018066;0.989258;-0.49;0.7;0.7;268.0;-0.136735;0.006609;4.75;5.5;1.75;2.5;1.25;2.5;0.25;1.0;3.0;0.5;1.25;0.75;1.5;2.25;0.5;0.25;-0.247559;0.039062;0.978027;-0.91;-0.98;0.77;340.0;-0.100211;-0.049264
3.26;5.0;3.75;3.0;2.25;0.5;0.5;0.0;0.5;2.75;0.5;0.5;0.25;0.5;1.75;0.25;0.25;-0.205078;0.01709;0.986816;-0.49;0.63;0.49;257.0;-0.13707;0.008621;4.5;5.5;1.75;2.5;1.25;2.5;0.25;1.25;3.0;0.5;1.5;0.75;1.25;2.25;0.25;0.25;-0.243652;0.043945;0.979492;-0.77;-0.91;0.77;339.0;-0.100019;-0.052212
3.27;5.0;3.75;2.75;2.25;0.5;0.5;0.0;0.5;2.75;0.5;0.5;0.5;0.5;1.5;0.5;0.5;-0.20459;0.018555;0.994141;-0.56;0.63;0.56;259.0;-0.127766;-8e-05;4.25;5.25;1.75;2.75;1.25;2.5;0.25;1.25;3.25;0.5;1.75;0.75;1.0;2.25;0.25;0.25;-0.244629;0.042969;0.981445;-0.77;-0.98;0.77;340.0;-0.09219;-0.048501
3.28;4.75;3.75;3.25;2.25;0.25;0.75;0.0;0.25;2.75;0.5;0.5;0.5;0.25;2.0;0.5;0.25;-0.204102;0.018555;0.991699;-0.42;0.49;0.56;259.0;-0.125972;0.012466;4.5;5.25;1.5;2.5;1.25;2.25;0.25;1.25;3.25;0.5;1.75;1.0;1.25;2.25;0.5;0.25;-0.24707;0.041504;0.969238;-0.77;-0.84;0.77;342.0;-0.082469;-0.050137
3.29;4.75;3.75;3.25;2.25;0.5;0.5;0.25;0.5;2.5;0.5;0.5;0.5;0.25;1.75;0.5;0.25;-0.201172;0.020508;0.988281;-0.56;0.77;0.56;261.0;-0.130621;0.00841;4.5;5.0;1.75;2.5;1.25;2.25;0.25;1.0;3.25;0.75;1.75;1.0;1.5;2.25;0.5;0.25;-0.243164;0.039551;0.974121;-0.84;-0.91;0.77;344.0;-0.0781;-0.04579
3.3;5.25;3.75;3.5;2.25;0.25;0.5;0.25;0.5;2.5;0.5;0.5;0.5;0.25;2.5;0.5;0.5;-0.205566;0.02002;0.98877;-0.49;0.63;0.49;275.0;-0.121398;0.013341;4.25;5.0;1.75;2.75;1.25;2.5;0.25;1.0;3.25;0.75;1.75;1.25;1.25;2.25;0.5;0.25;-0.248047;0.040039;0.978516;-0.84;-0.91;0.77;348.0;-0.077198;-0.049792
3.31;5.0;3.75;3.25;2.25;0.25;0.5;0.25;0.5;2.5;0.25;0.5;0.5;0.5;1.5;0.5;0.25;-0.205078;0.02002;0.987793;-0.56;0.7;0.49;258.0;-0.139898;0.002479;4.25;5.0;1.75;2.5;1.25;2.25;0.25;1.25;3.25;0.5;1.5;1.0;1.25;2.5;0.5;0.25;-0.249023;0.041992;0.974609;-0.7;-0.98;0.84;340.0;-0.078174;-0.047238
3.32;4.5;4.0;3.0;2.25;0.5;0.5;0.0;0.5;2.75;0.25;0.5;0.5;0.5;1.5;0.5;0.25;-0.20459;0.023926;0.990234;-0.7;0.7;0.49;255.0;-0.133103;-0.001966;4.5;5.0;1.75;2.75;1.25;2.5;0.25;1.25;3.25;0.5;1.5;1.0;1.25;2.5;0.5;0.25;-0.246094;0.041992;0.967773;-0.63;-0.84;0.84;348.0;-0.083248;-0.049426
3.33;4.75;3.75;2.75;2.25;0.5;0.5;0.0;0.5;2.5;0.25;0.5;0.5;0.25;2.0;0.5;0.25;-0.211426;0.01709;0.993652;-0.56;0.56;0.56;251.0;-0.12998;0.003532;4.25;4.75;1.5;2.5;1.25;2.25;0.25;1.0;3.25;0.5;1.75;1.0;1.5;2.25;0.5;0.25;-0.248535;0.039062;0.966797;-0.63;-0.98;0.84;333.0;-0.073775;-0.048369
3.34;5.0;3.75;3.0;2.5;0.75;0.5;0.25;0.5;2.5;0.5;0.5;0.5;0.25;2.25;0.25;0.25;-0.20752;0.026367;0.991211;-0.63;0.42;0.49;269.0;-0.130006;0.010429;4.0;5.0;1.5;2.5;1.25;2.5;0.25;1.0;3.25;0.5;1.75;1.0;1.0;2.75;0.5;0.25;-0.25;0.042969;0.976562;-0.63;-0.98;0.84;335.0;-0.07095;-0.043639
3.35;5.25;3.75;3.25;2.5;0.5;0.5;0.25;0.5;2.75;0.5;0.5;0.75;0.25;1.75;0.5;0.5;-0.208496;0.018066;0.992188;-0.49;0.63;0.63;278.0;-0.126751;0.006488;4.0;5.0;1.5;2.75;1.5;2.5;0.25;0.75;3.25;0.25;2.0;1.0;1.0;2.5;0.75;0.25;-0.244629;0.043457;0.978516;-0.63;-0.91;0.77;338.0;-0.073447;-0.043388
3.36;5.0;3.75;3.25;2.5;0.5;0.5;0.25;0.5;2.75;0.25;0.5;0.75;0.5;1.75;0.5;0.5;-0.202148;0.022461;0.994629;-0.49;0.49;0.56;275.0;-0.125163;0.000825;4.0;5.25;1.75;2.75;1.5;2.25;0.25;1.25;3.25;0.25;1.5;1.0;1.25;2.25;0.75;0.25;-0.245605;0.040039;0.976074;-0.63;-1.12;0.77;343.0;-0.082125;-0.052737
3.37;4.75;3.75;3.0;2.25;0.5;0.5;0.25;0.5;2.75;0.5;0.75;0.5;0.5;1.5;0.5;0.5;-0.202637;0.013672;0.988281;-0.56;0.56;0.56;266.0;-0.119397;0.002295;4.25;5.0;1.75;2.75;1.75;2.75;0.25;1.25;3.25;0.5;1.5;1.0;1.25;2.5;0.75;0.25;-0.245605;0.041016;0.974121;-0.56;-0.84;0.77;357.0;-0.078056;-0.050941
3.38;5.5;3.75;3.0;2.5;0.5;0.5;0.25;0.5;2.75;0.5;0.75;0.5;0.5;1.5;0.5;0.5;-0.208984;0.015625;0.994141;-0.63;0.56;0.56;278.0;-0.129888;0.003101;3.75;5.0;1.75;2.5;1.25;3.0;0.25;1.5;3.25;0.5;1.5;1.0;1.25;2.5;0.75;0.25;-0.245117;0.037109;0.97998;-0.56;-0.91;0.77;350.0;-0.070042;-0.059904
3.39;5.5;3.75;3.25;2.5;0.5;0.75;0.0;0.5;2.75;0.5;0.25;0.5;0.5;1.75;0.25;0.5;-0.200684;0.013672;0.989258;-0.63;0.56;0.56;273.0;-0.143288;0.002317;3.5;5.0;1.5;2.5;1.25;2.5;0.25;1.25;3.25;0.5;1.75;1.0;1.0;2.25;0.5;0.25;-0.244629;0.04541;0.976562;-0.56;-0.91;0.91;329.0;-0.071319;-0.053785
3.4;4.75;3.75;3.25;2.25;0.5;0.75;0.0;0.5;2.75;0.5;0.25;0.5;0.5;1.5;0.0;0.5;-0.20459;0.016602;0.991699;-0.56;0.63;0.56;257.0;-0.144188;0.000803;3.75;5.0;1.75;2.5;1.25;2.5;0.25;1.25;3.25;0.5;1.75;1.0;1.5;2.25;0.5;0.5;-0.238281;0.035645;0.970215;-0.49;-0.91;0.77;341.0;-0.07061;-0.057913
3.41;5.0;3.75;3.0;2.25;0.5;0.75;0.0;0.5;2.75;0.5;0.5;0.5;0.5;1.5;0.25;0.5;-0.200195;0.019531;0.991211;-0.49;0.56;0.63;262.0;-0.1355;-0.001239;4.25;4.5;1.75;2.5;1.25;2.5;0.25;1.25;3.0;0.5;1.75;0.75;1.5;2.25;0.5;0.25;-0.245605;0.041016;0.977051;-0.63;-0.98;0.84;334.0;-0.078841;-0.053827
3.42;5.25;4.0;3.5;2.5;0.75;0.75;0.0;0.5;2.75;0.5;0.5;0.5;0.25;1.5;0.25;0.5;-0.206055;0.016602;0.989746;-0.42;0.56;0.56;277.0;-0.147771;0.002545;4.0;4.75;1.5;2.5;1.25;2.5;0.25;1.25;3.25;0.5;1.75;1.25;1.5;2.25;0.25;0.25;-0.239258;0.040527;0.974121;-0.56;-0.98;0.84;337.0;-0.072626;-0.057739
3.43;5.0;3.75;3.75;2.5;0.5;0.5;0.0;0.5;2.75;0.75;0.5;0.75;0.25;2.5;0.5;0.25;-0.203613;0.014648;0.989258;-0.49;0.56;0.56;285.0;-0.115671;0.010248;3.75;4.75;1.75;2.5;1.5;2.5;0.25;1.25;3.25;0.5;1.75;1.0;1.5;2.25;0.5;0.25;-0.245117;0.043945;0.973633;-0.63;-0.98;0.84;340.0;-0.070403;-0.054947
3.44;4.75;3.75;3.0;2.5;0.5;0.5;0.25;0.5;2.75;0.5;0.75;0.5;0.5;2.25;0.25;0.25;-0.200684;0.021973;0.991211;-0.49;0.77;0.56;272.0;-0.115791;0.006896;3.75;4.75;1.5;2.5;1.5;2.5;0.25;1.25;3.25;0.75;1.75;1.0;1.5;2.5;0.75;0.25;-0.243164;0.040039;0.979492;-0.56;-0.98;0.77;345.0;-0.058902;-0.053905
3.45;4.75;3.25;2.75;2.5;0.5;0.5;0.25;0.5;2.75;0.5;0.5;0.5;0.5;2.0;0.25;0.25;-0.200195;0.020508;0.991211;-0.49;0.63;0.56;259.0;-0.116685;0.009122;4.0;4.75;1.75;2.5;1.25;2.75;0.25;1.5;3.25;0.75;1.5;1.25;1.5;2.75;0.5;0.25;-0.24707;0.044922;0.978027;-0.63;-0.98;0.77;355.0;-0.063909;-0.057873
3.46;4.75;3.75;2.75;2.25;0.5;0.5;0.25;0.5;2.75;0.5;0.5;0.5;0.5;1.75;0.25;0.25;-0.203125;0.018066;0.990234;-0.49;0.77;0.56;258.0;-0.125314;0.006903;3.75;4.75;1.5;2.5;1.25;2.5;0.25;1.25;3.25;0.75;1.5;1.0;1.5;2.5;0.5;0.25;-0.243164;0.040039;0.978027;-0.7;-1.19;0.84;337.0;-0.064706;-0.054165
3.47;5.0;3.75;3.0;2.25;0.5;0.75;0.0;0.5;2.5;0.5;0.5;0.5;0.5;1.75;0.25;0.25;-0.203613;0.01709;0.990723;-0.56;0.77;0.42;259.0;-0.138828;-0.001653;3.75;5.0;1.75;2.5;1.5;2.5;0.25;1.75;3.25;0.75;1.75;0.75;1.25;2.75;0.5;0.25;-0.242676;0.044922;0.975098;-0.63;-1.12;0.77;353.0;-0.066526;-0.054993
3.48;5.0;3.0;2.75;2.25;0.5;0.75;0.0;0.5;2.5;0.5;0.75;0.5;0.25;1.75;0.25;0.25;-0.204102;0.021484;0.994141;-0.42;0.56;0.63;249.0;-0.127581;0.005256;4.0;5.0;1.5;2.5;1.25;3.0;0.25;1.75;3.25;0.5;1.75;1.0;1.5;2.75;0.75;0.25;-0.242676;0.039062;0.978516;-0.7;-0.98;0.77;361.0;-0.063329;-0.065201
3.49;4.5;3.5;2.75;2.25;0.5;0.75;0.25;0.5;3.0;0.5;0.75;0.5;0.25;1.5;0.25;0.25;-0.202148;0.019043;0.996094;-0.56;0.63;0.56;258.0;-0.118068;0.009336;4.0;5.0;1.5;2.5;1.25;2.5;0.25;1.5;3.25;0.5;1.75;1.25;1.5;2.75;0.5;0.25;-0.248047;0.04541;0.974121;-0.49;-0.98;0.91;351.0;-0.064044;-0.059564
3.5;4.75;3.25;3.25;2.25;0.5;0.75;0.25;0.5;2.75;0.5;0.75;0.5;0.25;2.25;0.25;0.25;-0.20459;0.020508;0.989258;-0.56;0.7;0.56;267.0;-0.112821;0.014707;3.75;4.75;1.5;2.25;1.25;2.5;0.25;1.5;3.25;0.5;1.75;0.75;1.5;2.75;0.5;0.25;-0.246582;0.038574;0.978516;-0.56;-0.77;0.77;337.0;-0.06123;-0.054674
3.51;4.5;3.5;2.75;2.25;0.5;0.75;0.25;0.5;2.75;0.5;0.75;0.75;0.5;2.25;0.25;0.25;-0.202637;0.020996;0.987305;-0.56;0.77;0.56;266.0;-0.103139;0.002714;3.5;4.75;1.5;2.25;1.5;2.75;0.25;1.5;3.25;0.5;1.75;0.75;1.5;2.75;0.75;0.25;-0.241211;0.038574;0.974121;-0.63;-0.84;0.84;343.0;-0.055842;-0.05713
3.52;4.5;3.0;2.75;2.5;0.5;0.75;0.25;0.5;3.0;0.5;0.5;0.75;0.5;2.5;0.25;0.5;-0.201172;0.019531;0.988281;-0.56;0.77;0.49;269.0;-0.091027;0.007985;3.75;4.5;1.25;2.5;1.25;2.5;0.25;1.5;3.25;0.75;1.75;1.0;1.5;2.5;0.5;0.25;-0.251465;0.041992;0.978027;-0.63;-0.84;0.77;338.0;-0.057164;-0.059306
3.53;4.5;3.0;2.75;2.25;0.5;0.5;0.25;0.5;2.75;0.5;0.75;1.0;0.5;2.0;0.5;0.5;-0.204102;0.016602;0.984863;-0.63;0.7;0.56;263.0;-0.089548;0.001544;3.75;4.5;1.5;2.5;1.25;2.5;0.25;1.5;3.25;0.5;1.25;1.0;1.5;2.5;0.5;0.25;-0.239746;0.044434;0.97998;-0.77;-0.91;0.91;332.0;-0.066492;-0.058022
3.54;4.5;2.5;2.75;2.25;0.5;0.5;0.25;0.5;3.0;0.5;0.75;0.75;0.5;1.75;0.5;0.5;-0.201172;0.019531;0.990723;-0.56;0.56;0.49;257.0;-0.086191;0.010389;3.5;4.5;1.5;2.75;1.25;2.5;0.25;1.5;3.0;0.5;1.5;1.25;1.5;2.5;0.5;0.25;-0.241211;0.039062;0.977539;-0.7;-1.12;0.77;335.0;-0.064211;-0.067017
3.55;4.25;3.0;2.75;2.25;0.5;0.5;0.25;0.5;3.0;0.25;0.5;0.75;0.5;2.75;0.5;0.25;-0.205566;0.018066;0.986816;-0.56;0.49;0.49;261.0;-0.080894;0.014509;3.5;4.75;1.5;2.5;1.5;3.0;0.25;1.5;3.25;0.5;1.75;1.25;1.5;2.75;0.75;0.5;-0.244141;0.038086;0.977539;-0.84;-1.05;0.77;356.0;-0.052596;-0.065265
3.56;4.5;3.0;2.75;2.25;0.5;0.5;0.25;0.5;3.0;0.25;0.5;0.5;0.5;2.25;0.5;0.25;-0.203613;0.019043;0.987793;-0.56;0.49;0.49;256.0;-0.096656;0.016086;3.5;4.75;1.5;2.5;1.5;2.5;0.25;1.5;3.25;0.75;1.25;1.25;1.5;2.75;0.75;0.25;-0.245117;0.039551;0.97998;-0.77;-1.12;0.84;346.0;-0.054847;-0.058735
3.57;4.75;2.5;2.75;2.25;0.5;0.5;0.25;0.5;3.0;0.5;0.75;0.5;0.5;2.0;0.5;0.25;-0.202637;0.018555;0.989746;-0.56;0.42;0.56;257.0;-0.091044;0.018279;3.75;4.75;1.5;2.5;1.5;2.5;0.25;1.25;3.25;0.5;1.75;1.25;1.5;3.0;0.75;0.25;-0.244629;0.036133;0.975586;-0.63;-1.12;0.77;350.0;-0.052876;-0.05378
3.58;4.75;2.75;2.75;2.25;0.5;0.5;0.25;0.5;3.0;0.5;0.75;0.75;0.5;2.0;0.25;0.25;-0.206543;0.01709;0.992676;-0.56;0.63;0.56;260.0;-0.096383;0.014113;4.0;4.5;1.5;2.5;1.5;2.5;0.25;1.5;3.25;0.5;1.75;1.25;1.75;2.75;0.5;0.25;-0.253418;0.047363;0.976562;-0.7;-1.05;0.77;352.0;-0.057947;-0.059697
3.59;4.5;3.25;2.75;2.25;0.5;0.5;0.25;0.5;3.0;0.5;0.75;0.75;0.5;1.75;0.25;0.5;-0.20166;0.021973;0.987793;-0.49;0.56;0.56;261.0;-0.101175;0.006295;3.75;4.75;1.5;2.75;1.25;2.75;0.25;1.25;3.25;0.5;1.75;1.0;1.5;2.5;0.75;0.25;-0.246582;0.04248;0.977051;-0.63;-0.98;0.77;345.0;-0.063578;-0.059246
3.6;4.5;3.0;3.0;2.25;0.5;0.75;0.25;0.5;3.0;0.75;1.0;0.75;0.5;1.75;0.5;0.25;-0.202637;0.016113;0.988281;-0.56;0.7;0.63;272.0;-0.090786;0.005897;3.5;4.75;1.5;2.75;1.5;2.5;0.25;1.25;3.25;0.25;1.5;1.25;1.75;2.75;0.75;0.25;-0.244629;0.04541;0.975586;-0.7;-0.98;0.84;344.0;-0.058395;-0.061408
3.61;4.5;3.0;2.75;2.25;0.5;0.75;0.25;0.5;3.0;0.5;0.5;1.0;0.75;1.75;0.5;0.5;-0.206055;0.02002;0.989746;-0.63;0.7;0.63;267.0;-0.091075;-0.002219;3.75;4.75;1.75;2.5;1.5;2.5;0.25;1.5;3.25;0.5;1.75;1.25;1.5;2.75;0.75;0.25;-0.25;0.039551;0.976074;-0.7;-0.98;0.84;355.0;-0.057274;-0.058031
3.62;5.0;3.0;2.75;2.25;0.5;0.75;0.25;0.5;3.0;0.5;0.5;0.75;0.5;1.75;0.5;0.5;-0.205078;0.016602;0.98584;-0.63;0.77;0.56;267.0;-0.103205;0.007345;3.5;4.75;1.5;2.25;1.25;2.5;0.25;1.25;3.25;0.5;1.75;1.25;1.75;2.5;0.75;0.25;-0.245117;0.037109;0.972168;-0.63;-1.05;0.84;339.0;-0.052068;-0.060649
3.63;4.25;3.0;2.75;2.25;0.5;0.5;0.25;0.5;3.0;0.5;0.5;1.0;0.5;2.0;0.5;0.5;-0.203125;0.019043;0.994629;-0.7;0.84;0.42;261.0;-0.084868;0.005403;3.5;4.75;1.5;2.5;1.5;2.75;0.25;1.25;3.25;0.5;1.75;1.25;1.5;2.5;0.75;0.5;-0.244141;0.043945;0.976074;-0.77;-1.05;0.84;347.0;-0.055339;-0.061191
3.64;4.25;3.25;2.75;2.25;0.5;0.75;0.25;0.5;3.0;0.5;0.5;1.0;0.5;2.25;0.5;0.5;-0.201172;0.023926;0.993164;-0.56;0.77;0.63;269.0;-0.084426;0.002205;3.5;4.5;1.5;2.5;1.25;2.75;0.25;1.5;3.25;0.5;1.5;1.25;1.25;2.25;0.5;0.5;-0.246582;0.042969;0.975586;-0.77;-1.12;0.84;335.0;-0.062645;-0.063801
3.65;4.25;3.25;2.75;2.25;0.5;0.5;0.25;0.5;3.0;0.5;0.75;1.0;0.5;1.75;0.5;0.25;-0.205566;0.017578;0.990723;-0.63;0.7;0.49;263.0;-0.091573;0.002713;3.75;4.75;1.5;2.5;1.25;2.75;0.25;1.25;3.25;0.5;1.75;1.5;1.5;2.25;0.5;0.25;-0.244629;0.04834;0.975098;-0.77;-0.98;0.84;343.0;-0.064215;-0.063182
3.66;4.5;3.25;2.75;2.25;0.5;0.75;0.25;0.5;3.0;0.5;0.75;0.5;0.5;1.75;0.5;0.5;-0.206543;0.022461;0.993164;-0.56;0.56;0.56;264.0;-0.099605;0.005489;3.75;4.75;1.5;2.5;1.25;2.5;0.25;1.5;3.25;0.5;2.0;1.5;1.5;2.25;0.75;0.25;-0.246094;0.038574;0.976562;-0.77;-1.05;0.77;350.0;-0.056611;-0.065896
3.67;4.5;3.0;2.75;2.25;0.5;0.75;0.25;0.5;3.25;0.5;0.75;0.5;0.25;2.0;0.25;0.5;-0.202148;0.019043;0.989746;-0.77;0.56;0.56;262.0;-0.095132;0.017477;4.0;4.75;1.5;2.5;1.25;2.5;0.25;1.5;3.25;0.5;1.75;1.25;1.5;2.75;0.5;0.25;-0.241211;0.041504;0.978027;-0.63;-0.98;0.84;349.0;-0.061496;-0.058794
3.68;4.5;3.0;2.75;2.25;0.5;0.75;0.25;0.75;3.0;0.5;0.75;0.75;0.5;2.25;0.25;0.5;-0.202637;0.022461;0.992188;-0.56;0.7;0.56;270.0;-0.088608;0.001646;3.75;5.0;1.5;2.5;1.25;3.0;0.25;1.5;3.25;0.75;1.75;1.0;1.75;2.5;0.5;0.5;-0.247559;0.039551;0.972656;-0.77;-1.05;0.84;356.0;-0.062394;-0.066837
3.69;4.5;3.25;3.0;2.25;0.5;0.5;0.25;0.5;2.75;0.75;0.75;0.5;0.5;2.25;0.5;0.5;-0.206055;0.020508;0.993652;-0.7;0.56;0.56;268.0;-0.093181;0.009546;3.75;4.75;1.5;2.5;1.25;2.75;0.25;1.75;3.25;0.75;1.75;1.25;1.5;2.25;0.75;0.5;-0.244629;0.038086;0.968262;-0.84;-1.05;0.84;356.0;-0.0572;-0.069174
3.7;5.0;3.25;2.75;2.25;0.5;0.5;0.25;0.5;3.0;0.5;1.0;0.5;0.5;2.5;0.5;0.25;-0.197754;0.020996;0.988281;-0.84;0.84;0.49;275.0;-0.091405;0.01544;4.0;4.75;1.5;2.5;1.25;2.5;0.25;1.5;3.25;0.25;1.75;1.25;1.5;2.5;0.25;0.5;-0.249512;0.043945;0.976074;-0.84;-1.12;0.91;342.0;-0.069327;-0.062324
3.71;4.5;3.25;2.75;2.25;0.5;0.75;0.25;0.5;2.75;0.5;1.0;0.5;0.5;1.75;0.25;0.25;-0.202637;0.018555;0.98877;-0.7;0.7;0.49;259.0;-0.109166;0.003232;4.0;5.0;1.75;2.5;1.5;2.5;0.25;1.5;3.25;0.25;1.75;1.0;1.5;2.75;0.25;0.25;-0.243652;0.041992;0.973633;-0.84;-1.12;0.91;349.0;-0.074943;-0.056091
3.72;4.75;3.5;2.75;2.25;0.5;0.75;0.25;0.5;3.0;0.5;1.0;0.5;0.5;1.75;0.25;0.25;-0.20166;0.018066;0.990723;-0.63;0.63;0.56;268.0;-0.110283;0.006372;3.5;5.0;1.5;2.5;1.25;2.75;0.25;1.5;3.25;0.5;1.5;1.0;1.5;2.75;0.5;0.25;-0.24707;0.040527;0.97168;-0.77;-1.05;0.77;343.0;-0.06392;-0.06174
3.73;4.75;3.25;3.0;2.25;0.5;0.75;0.25;0.5;2.75;0.5;1.0;0.5;0.5;2.5;0.25;0.25;-0.20166;0.017578;0.98877;-0.7;0.77;0.49;272.0;-0.100614;0.009765;3.75;5.0;1.5;2.75;1.5;3.0;0.25;1.75;3.25;0.5;1.75;1.25;1.5;2.25;0.5;0.5;-0.240234;0.044922;0.979492;-0.77;-0.98;0.77;361.0;-0.068993;-0.072678
3.74;4.75;3.5;2.75;2.25;0.5;0.75;0.25;0.5;2.75;0.5;0.75;0.5;0.5;2.0;0.25;0.25;-0.201172;0.018066;0.991211;-0.63;0.84;0.49;264.0;-0.114296;0.005573;3.75;5.0;1.5;2.5;1.25;3.0;0.25;1.25;3.25;0.5;1.75;1.25;1.5;2.25;0.5;0.25;-0.241699;0.04248;0.980469;-0.7;-0.91;0.77;346.0;-0.069815;-0.0638
3.75;4.5;3.0;2.75;2.25;0.5;0.75;0.0;0.5;2.5;0.25;0.75;0.5;0.5;1.75;0.25;0.25;-0.200684;0.01416;0.990234;-0.7;0.84;0.63;243.0;-0.122592;-0.002362;3.75;5.0;1.5;2.5;1.25;2.75;0.25;1.5;3.25;0.5;1.75;1.5;1.5;2.75;0.75;0.25;-0.245117;0.044922;0.974121;-0.77;-1.05;0.7;357.0;-0.056109;-0.064761
3.76;4.25;3.0;2.75;2.25;0.5;0.75;0.25;0.5;3.0;0.25;0.75;0.5;0.25;1.75;0.25;0.25;-0.202637;0.019531;0.989258;-0.7;0.84;0.63;249.0;-0.10794;0.0127;4.0;5.0;1.5;2.5;1.25;3.0;0.25;1.5;3.25;0.5;1.75;1.25;1.5;2.5;0.5;0.25;-0.243164;0.041016;0.974121;-0.77;-1.12;0.84;355.0;-0.068641;-0.064692
3.77;4.25;3.0;2.75;2.25;0.5;0.75;0.25;0.5;3.0;0.25;0.75;0.5;0.25;2.0;0.5;0.25;-0.199707;0.013184;0.986816;-0.7;0.84;0.56;254.0;-0.097382;0.013137;4.0;5.0;1.5;2.5;1.5;3.0;0.25;1.5;3.0;0.5;1.75;1.25;1.75;2.5;0.5;0.25;-0.240723;0.044434;0.974121;-0.77;-1.05;0.84;357.0;-0.070803;-0.069652
3.78;4.5;3.25;2.75;2.25;0.5;0.75;0.25;0.5;2.75;0.25;1.0;0.5;0.5;2.0;0.25;0.25;-0.205078;0.019531;0.990723;-0.63;0.84;0.63;259.0;-0.108324;0.004132;3.75;4.75;1.75;2.75;1.75;2.75;0.25;1.5;3.25;0.5;1.75;1.25;1.5;2.5;0.5;0.25;-0.25;0.041016;0.977539;-0.7;-1.05;0.84;359.0;-0.067314;-0.061542
3.79;4.5;3.25;2.75;2.25;0.5;0.5;0.25;0.5;3.0;0.25;0.75;0.75;0.5;2.0;0.25;0.5;-0.208008;0.025879;0.988281;-0.7;0.84;0.49;261.0;-0.100324;0.007193;4.0;5.0;1.75;2.5;1.5;2.5;0.25;1.75;3.25;0.5;1.75;1.0;1.5;2.25;0.5;0.25;-0.24707;0.037109;0.977539;-0.7;-0.98;0.84;354.0;-0.074161;-0.062354
3.8;4.5;3.25;2.75;2.25;0.5;0.75;0.25;0.5;3.0;0.25;0.5;0.5;0.5;1.75;0.25;0.5;-0.206543;0.013184;0.994629;-0.7;0.84;0.56;256.0;-0.112719;0.00718;4.25;5.0;1.5;2.5;1.25;2.75;0.25;1.5;3.25;0.5;1.5;1.25;1.5;2.5;0.25;0.25;-0.247559;0.043457;0.975586;-0.77;-1.05;0.77;349.0;-0.076967;-0.060948
3.81;5.0;3.25;2.75;2.25;0.75;0.5;0.25;0.5;2.75;0.25;0.5;0.75;0.5;1.75;0.25;0.25;-0.20459;0.013672;0.985352;-0.63;0.7;0.56;259.0;-0.12298;0.00802;4.25;4.75;1.75;2.75;1.25;3.0;0.25;1.25;3.25;0.5;1.75;1.25;1.75;2.75;0.25;0.5;-0.25;0.040039;0.978027;-0.77;-1.12;0.84;360.0;-0.070342;-0.060787
3.82;5.0;3.5;3.0;2.25;0.5;0.5;0.25;0.5;3.0;0.5;0.5;0.75;0.5;1.75;0.25;0.25;-0.208008;0.015625;0.98877;-0.63;0.7;0.56;268.0;-0.118423;0.010855;4.25;5.0;1.75;2.75;1.25;3.0;0.25;1.25;3.25;0.25;2.0;1.25;1.5;2.25;0.25;0.25;-0.242188;0.040039;0.98291;-0.84;-1.05;0.84;354.0;-0.082626;-0.062385
3.83;4.75;3.5;3.0;2.25;0.25;0.5;0.25;0.5;3.0;0.5;0.5;0.75;0.5;1.75;0.25;0.5;-0.208008;0.016113;0.990234;-0.56;0.63;0.56;264.0;-0.112603;0.007406;4.25;5.25;1.5;2.75;1.25;2.75;0.25;1.5;3.25;0.5;1.75;1.25;1.75;2.5;0.25;0.25;-0.242188;0.04248;0.976562;-0.63;-1.05;0.77;360.0;-0.077079;-0.06611
3.84;5.0;3.0;2.75;2.25;0.5;0.5;0.25;0.5;2.75;0.5;0.5;0.5;0.25;1.75;0.25;0.5;-0.202148;0.016113;0.993164;-0.63;0.7;0.63;253.0;-0.119609;0.015709;4.25;5.0;1.5;2.5;1.25;2.75;0.25;1.75;3.0;0.5;1.75;1.25;1.75;2.75;0.25;0.5;-0.246094;0.041992;0.969727;-0.84;-1.05;0.77;359.0;-0.07053;-0.0707
3.85;4.5;3.0;3.0;2.25;0.5;0.5;0.25;0.5;2.75;0.25;0.5;0.5;0.25;1.75;0.25;0.5;-0.202148;0.021973;0.98877;-0.56;0.7;0.63;247.0;-0.119058;0.013929;4.25;5.0;1.5;2.5;1.5;2.75;0.25;1.75;3.0;0.5;1.75;1.25;1.5;2.5;0.5;0.5;-0.244629;0.043457;0.975098;-0.84;-1.12;0.77;360.0;-0.071866;-0.068734
3.86;4.75;3.0;3.25;2.5;0.5;0.5;0.25;0.5;3.0;0.25;0.75;0.75;0.25;1.75;0.25;0.5;-0.198242;0.019531;0.991211;-0.63;0.84;0.63;265.0;-0.113341;0.011854;4.25;4.75;1.75;2.75;1.5;3.0;0.25;2.0;3.25;0.5;1.75;1.25;1.5;2.5;0.75;0.25;-0.248047;0.039062;0.975586;-0.84;-1.05;0.91;375.0;-0.067739;-0.069113
3.87;5.0;3.0;3.25;2.5;0.5;0.5;0.25;0.5;2.75;0.25;0.75;0.75;0.5;2.25;0.25;0.25;-0.207031;0.015625;0.989258;-0.63;0.84;0.56;270.0;-0.112362;0.009906;4.25;5.0;1.75;2.75;1.5;3.0;0.25;1.75;3.25;0.5;1.75;1.25;1.5;2.25;0.75;0.25;-0.237793;0.041016;0.973633;-0.7;-1.05;0.7;371.0;-0.07373;-0.067697
3.88;5.0;3.5;3.25;2.25;0.5;0.5;0.25;0.5;2.75;0.5;0.75;0.75;0.5;2.25;0.25;0.25;-0.203613;0.019531;0.98877;-0.7;0.7;0.7;275.0;-0.112382;0.009797;4.0;5.0;1.75;2.5;1.5;3.0;0.25;1.5;3.25;0.5;1.75;1.25;1.5;2.25;0.75;0.25;-0.247559;0.04248;0.977539;-0.77;-0.98;0.77;361.0;-0.070086;-0.064042
3.89;4.25;3.25;3.0;2.25;0.5;0.5;0.0;0.5;2.25;0.5;0.75;0.25;0.5;2.0;0.25;0.5;-0.205078;0.016113;0.986816;-0.63;0.63;0.56;243.0;-0.121008;-0.000888;4.25;5.0;1.75;2.5;1.5;3.0;0.25;1.5;3.25;0.5;1.75;1.25;1.5;2.5;0.5;0.25;-0.25;0.039551;0.975098;-0.84;-1.05;0.77;364.0;-0.073361;-0.061012
3.9;4.25;3.5;2.75;2.25;0.5;0.5;0.25;0.5;2.5;0.5;1.0;0.25;0.25;1.75;0.25;0.5;-0.201172;0.017578;0.991211;-0.56;0.77;0.56;248.0;-0.117209;0.0057;4.25;5.0;1.75;2.5;1.25;3.0;0.25;1.75;3.25;0.5;1.75;1.25;1.5;2.25;0.5;0.5;-0.242188;0.039551;0.978027;-0.91;-1.12;0.84;364.0;-0.073571;-0.068352
3.91;4.5;3.25;2.75;2.25;0.5;0.5;0.25;0.5;2.5;0.5;1.0;0.5;0.5;1.5;0.25;0.5;-0.203613;0.015137;0.991211;-0.56;0.84;0.56;252.0;-0.115901;-0.000831;4.25;5.0;1.5;2.5;1.25;2.75;0.25;1.5;3.25;0.5;1.75;0.75;1.75;2.5;0.75;0.5;-0.23877;0.041016;0.977539;-0.77;-1.05;0.84;356.0;-0.067889;-0.061633
3.92;4.5;3.5;2.75;2.25;0.5;0.5;0.25;0.5;2.75;0.5;0.75;0.5;0.25;1.75;0.25;0.25;-0.208008;0.015625;0.994141;-0.56;0.77;0.56;253.0;-0.118089;0.010452;4.25;5.25;1.5;2.5;1.25;3.0;0.25;1.5;3.25;0.5;1.75;0.75;1.5;2.25;0.5;0.5;-0.243652;0.044922;0.97998;-0.7;-1.05;0.84;354.0;-0.079676;-0.062896
3.93;5.25;3.5;2.75;2.25;0.5;0.5;0.0;0.5;2.5;0.5;0.75;0.5;0.25;2.0;0.25;0.25;-0.203125;0.019043;0.991699;-0.56;0.63;0.56;257.0;-0.131126;0.007818;4.25;5.0;1.5;2.5;1.25;3.0;0.25;1.5;3.25;0.5;1.75;1.25;1.5;2.75;0.5;0.25;-0.245117;0.040527;0.975586;-0.77;-0.98;0.84;360.0;-0.068166;-0.061766
3.94;5.0;3.0;2.75;2.25;0.5;0.75;0.0;0.5;2.5;0.5;0.75;0.25;0.25;1.5;0.25;0.5;-0.206543;0.015137;0.98584;-0.63;0.7;0.56;246.0;-0.133689;0.005236;4.5;5.0;1.75;2.5;1.5;3.0;0.25;1.5;3.25;0.5;1.75;1.25;1.5;2.75;0.25;0.25;-0.248047;0.041016;0.980957;-0.77;-0.98;0.91;366.0;-0.076594;-0.058019
3.95;4.5;3.5;3.0;2.25;0.5;0.75;0.0;0.5;2.5;0.5;0.75;0.25;0.25;1.0;0.25;0.25;-0.203613;0.023438;0.987793;-0.56;0.63;0.56;242.0;-0.148452;-0.001058;4.25;5.0;1.5;2.75;1.5;3.0;0.25;1.5;3.0;0.5;1.5;1.0;1.75;2.5;0.25;0.25;-0.244141;0.040039;0.975098;-0.77;-0.98;0.84;354.0;-0.083844;-0.067225
3.96;4.75;3.25;2.75;2.25;0.25;0.75;0.25;0.5;2.5;0.5;0.75;0.5;0.25;1.75;0.25;0.25;-0.206543;0.021973;0.990723;-0.63;0.49;0.56;250.0;-0.12398;0.005591;4.25;5.0;1.5;2.75;1.5;3.0;0.25;1.75;3.0;0.5;1.5;1.25;1.75;2.75;0.5;0.25;-0.242188;0.043457;0.980469;-0.84;-0.98;0.84;366.0;-0.073734;-0.071278
3.97;4.75;3.5;2.75;2.25;0.5;0.5;0.0;0.5;2.5;0.5;0.5;0.5;0.25;1.5;0.0;0.25;-0.203125;0.021484;0.991211;-0.56;0.7;0.56;241.0;-0.145888;0.004702;4.25;5.0;1.75;2.75;1.25;3.0;0.25;1.75;3.25;0.75;1.75;1.25;1.75;2.25;0.5;0.5;-0.24707;0.041992;0.97998;-0.84;-1.05;0.77;372.0;-0.071358;-0.07109
3.98;5.0;3.5;2.75;2.25;0.5;0.5;0.0;0.5;2.75;0.5;0.5;0.5;0.25;1.5;0.25;0.25;-0.206055;0.019531;0.986328;-0.63;0.7;0.56;250.0;-0.136692;0.008746;4.25;5.5;1.75;2.75;1.5;3.25;0.25;1.5;3.25;0.5;1.75;1.25;1.75;2.25;0.5;0.5;-0.237793;0.037109;0.977539;-0.91;-1.05;0.77;376.0;-0.080061;-0.070374
3.99;4.75;3.25;3.0;2.25;0.5;0.5;0.25;0.5;2.25;0.5;0.5;0.5;0.5;1.5;0.5;0.5;-0.208496;0.013184;0.989746;-0.56;0.56;0.63;251.0;-0.128066;-0.000726;4.25;5.25;1.75;2.75;1.75;3.0;0.25;1.5;3.25;0.5;1.75;1.25;1.5;2.25;0.5;0.5;-0.242676;0.043457;0.975098;-0.91;-1.05;0.91;371.0;-0.079147;-0.064558
4.0;5.0;3.75;2.75;2.25;0.25;0.75;0.25;0.5;2.5;0.5;0.5;0.5;0.5;1.75;0.5;0.5;-0.20459;0.01416;0.990234;-0.63;0.63;0.56;262.0;-0.125255;-0.002239;4.5;5.25;1.75;2.75;1.5;3.0;0.25;1.5;3.25;0.75;1.75;1.0;1.5;2.25;0.25;0.5;-0.248047;0.04248;0.97998;-0.84;-0.98;0.77;368.0;-0.084831;-0.061316
4.01;4.5;3.75;3.0;2.25;0.25;0.5;0.25;0.5;2.5;0.5;0.5;0.5;0.5;1.75;0.25;0.5;-0.199707;0.016602;0.992188;-0.63;0.63;0.63;253.0;-0.126448;0.000462;4.5;5.0;1.75;2.75;1.5;3.0;0.25;1.5;3.25;0.75;1.75;1.0;1.5;2.5;0.25;0.5;-0.243652;0.040527;0.976074;-0.77;-1.05;0.84;368.0;-0.079423;-0.059091
4.02;5.0;3.75;3.0;2.25;0.25;0.5;0.25;0.25;2.5;0.25;0.5;0.5;0.5;1.75;0.25;0.25;-0.20459;0.016602;0.991699;-0.56;0.77;0.56;251.0;-0.141634;0.010566;4.25;5.0;1.75;2.75;1.5;3.0;0.25;1.5;3.25;0.75;1.75;1.0;1.5;2.5;0.5;0.5;-0.241699;0.043457;0.979004;-0.77;-1.05;0.84;368.0;-0.073143;-0.060562
4.03;4.5;3.75;2.75;2.25;0.5;0.5;0.25;0.25;2.5;0.5;0.5;0.5;0.5;1.5;0.25;0.25;-0.20166;0.019531;0.993164;-0.7;0.77;0.56;245.0;-0.134679;0.006978;4.25;5.0;1.5;2.75;1.5;3.0;0.25;1.5;3.25;0.5;1.75;1.0;1.5;2.25;0.5;0.25;-0.245117;0.040039;0.975586;-0.77;-0.98;0.77;358.0;-0.078928;-0.063321
4.04;4.75;3.5;2.75;2.25;0.5;0.5;0.25;0.25;2.75;0.25;0.75;0.5;0.5;1.75;0.0;0.25;-0.203125;0.021973;0.989258;-0.42;0.56;0.63;249.0;-0.130537;0.014292;4.5;5.0;1.75;2.5;1.5;2.5;0.25;1.5;3.25;0.5;1.75;1.25;1.5;2.25;0.5;0.25;-0.242676;0.040039;0.975098;-0.84;-1.05;0.84;358.0;-0.077804;-0.057699
4.05;4.75;3.5;3.0;2.25;0.5;0.5;0.25;0.5;2.5;0.25;0.5;0.5;0.5;1.75;0.25;0.25;-0.207031;0.021484;0.988281;-0.56;0.56;0.56;252.0;-0.133627;0.005194;4.25;5.0;1.5;2.5;1.5;2.5;0.25;1.5;3.25;0.5;1.5;1.25;1.5;2.25;0.75;0.25;-0.248047;0.044434;0.977051;-0.84;-1.05;0.77;352.0;-0.072084;-0.060035
4.06;5.25;3.75;3.0;2.25;0.5;0.5;0.25;0.25;2.5;0.25;0.5;0.5;0.5;1.75;0.25;0.25;-0.20752;0.019043;0.992188;-0.7;0.56;0.63;256.0;-0.144329;0.012245;4.25;5.0;1.75;2.5;1.5;2.75;0.25;1.5;3.25;0.5;1.75;1.25;1.5;2.25;0.75;0.25;-0.246094;0.035645;0.970215;-0.91;-1.12;0.7;361.0;-0.072018;-0.060969
4.07;5.0;3.75;3.0;2.25;0.5;0.5;0.25;0.25;2.5;0.25;0.5;0.25;0.25;1.75;0.25;0.25;-0.19873;0.018066;0.990723;-0.7;0.7;0.63;248.0;-0.148451;0.019214;4.25;5.0;1.75;2.75;1.5;3.0;0.25;1.75;3.25;0.75;1.75;1.25;1.5;2.25;0.75;0.25;-0.242188;0.041016;0.979004;-0.77;-0.98;0.77;374.0;-0.071344;-0.066698
4.08;5.0;3.75;3.25;2.25;0.5;0.5;0.25;0.5;2.5;0.5;0.5;0.25;0.5;2.0;0.25;0.25;-0.206543;0.015625;0.999023;-0.56;0.56;0.63;263.0;-0.135653;0.011099;4.25;5.5;1.75;2.75;1.25;2.75;0.25;1.75;3.25;0.5;1.75;1.25;1.75;2.5;0.75;0.25;-0.246094;0.04541;0.973145;-0.84;-0.98;0.77;375.0;-0.072766;-0.069379
4.09;5.0;3.5;3.0;2.5;0.5;0.5;0.25;0.5;2.5;0.5;0.5;0.5;0.5;1.75;0.25;0.5;-0.20166;0.019531;0.981445;-0.56;0.56;0.56;263.0;-0.131454;0.002521;4.5;5.5;1.75;2.75;1.25;2.5;0.25;1.5;3.25;0.5;1.75;1.25;1.75;2.75;0.5;0.5;-0.241211;0.041016;0.981445;-0.7;-0.98;0.77;372.0;-0.07427;-0.062116
4.1;5.0;3.75;2.75;2.25;0.5;0.5;0.25;0.5;2.5;0.5;0.5;0.25;0.5;2.0;0.25;0.25;-0.202148;0.018555;0.991211;-0.56;0.7;0.56;257.0;-0.13257;0.009244;4.5;5.5;1.5;2.5;1.25;3.0;0.25;1.5;3.25;0.5;1.75;1.25;1.5;2.75;0.5;0.5;-0.24707;0.038086;0.978027;-0.77;-1.05;0.77;369.0;-0.07377;-0.062893
4.11;5.0;3.75;3.0;2.25;0.5;0.5;0.25;0.5;2.5;0.25;0.5;0.25;0.25;2.25;0.25;0.0;-0.202148;0.012695;0.990723;-0.63;0.77;0.56;256.0;-0.138991;0.017328;4.25;5.25;1.75;2.75;1.25;3.0;0.25;1.5;3.25;0.5;1.75;0.75;1.5;2.5;0.75;0.5;-0.249512;0.047852;0.974121;-0.84;-1.12;0.77;365.0;-0.075975;-0.061576
4.12;5.0;3.25;2.75;2.25;0.5;0.25;0.25;0.5;2.5;0.25;0.5;0.5;0.25;1.75;0.25;0.25;-0.206543;0.016113;0.993652;-0.63;0.7;0.56;244.0;-0.134878;0.014998;4.5;5.5;1.75;2.75;1.5;3.0;0.25;1.5;3.25;0.5;1.75;0.75;1.75;2.75;0.75;0.5;-0.242676;0.041504;0.975098;-0.7;-0.98;0.77;378.0;-0.076556;-0.061045
