Time;left pressure 1[N/cm²];left pressure 2[N/cm²];left pressure 3[N/cm²];left pressure 4[N/cm²];left pressure 5[N/cm²];left pressure 6[N/cm²];left pressure 7[N/cm²];left pressure 8[N/cm²];left pressure 9[N/cm²];left pressure 10[N/cm²];left pressure 11[N/cm²];left pressure 12[N/cm²];left pressure 13[N/cm²];left pressure 14[N/cm²];left pressure 15[N/cm²];left pressure 16[N/cm²];left acceleration X[g];left acceleration Y[g];left acceleration Z[g];left angular X[dps];left angular Y[dps];left angular Z[dps];left total force[N];left center of pressure X[-0.5...+0.5];left center of pressure Y[-0.5...+0.5];right pressure 1[N/cm²];right pressure 2[N/cm²];right pressure 3[N/cm²];right pressure 4[N/cm²];right pressure 5[N/cm²];right pressure 6[N/cm²];right pressure 7[N/cm²];right pressure 8[N/cm²];right pressure 9[N/cm²];right pressure 10[N/cm²];right pressure 11[N/cm²];right pressure 12[N/cm²];right pressure 13[N/cm²];right pressure 14[N/cm²];right pressure 15[N/cm²];right pressure 16[N/cm²];right acceleration X[g];right acceleration Y[g];right acceleration Z[g];right angular X[dps];right angular Y[dps];right angular Z[dps];right total force[N];right center of pressure X[-0.5...+0.5];right center of pressure Y[-0.5...+0.5]
0.0;4.0;4.0;1.25;3.5;0.75;3.75;0.5;4.0;1.25;2.5;3.75;3.5;3.5;1.5;1.0;2.0;-0.206543;0.047363;0.994141;-0.35;3.36;0.98;395.0;-0.019582;-0.15536;0.0;0.0;0.0;0.0;0.0;0.0;0.0;0.75;0.75;1.75;1.25;1.25;1.0;0.5;0.75;1.25;-0.263184;-0.010742;0.978516;1.61;0.0;-2.03;86.0;0.228716;-0.129323
0.01;4.0;4.0;1.25;3.5;0.75;3.75;0.5;4.0;1.25;2.5;3.75;3.5;3.5;1.5;1.0;2.0;-0.206543;0.047363;0.994141;-0.35;3.36;0.98;395.0;-0.019582;-0.15536;0.0;0.0;0.0;0.0;0.0;0.0;0.0;0.75;0.5;1.75;1.5;1.5;1.0;0.5;0.75;1.0;-0.25;-0.004883;0.97998;0.84;-0.77;0.07;86.0;0.225178;-0.144971
0.02;2.75;4.0;1.25;3.5;1.0;3.75;0.25;4.0;1.5;2.75;3.5;3.5;3.5;1.5;1.0;2.5;-0.20459;0.044434;0.98584;-0.77;3.22;0.77;387.0;-0.004787;-0.162203;0.5;0.0;0.0;0.25;0.25;0.0;0.0;0.5;0.25;1.5;1.5;1.5;1.25;0.5;1.0;1.25;-0.249023;-0.000488;0.976074;-0.21;-2.52;1.26;93.0;0.182585;-0.145673
0.03;2.5;4.5;1.5;4.0;1.0;3.5;0.25;4.0;1.25;2.75;3.25;3.25;3.5;1.75;1.25;2.5;-0.203613;0.046875;0.992676;-0.77;2.94;0.84;391.0;-0.011297;-0.162959;0.5;0.0;0.0;0.25;0.0;0.0;0.0;0.5;0.0;1.5;1.0;0.75;0.75;0.25;0.5;1.0;-0.23877;0.006348;0.978516;-0.84;-3.71;1.4;63.0;0.158156;-0.150493
0.04;2.75;4.25;1.5;3.25;0.75;3.0;0.25;4.0;1.0;2.75;4.0;3.25;3.75;1.75;1.25;2.25;-0.205566;0.051758;0.989258;-1.19;2.94;0.7;381.0;-0.001346;-0.163691;0.0;0.0;0.25;0.0;0.0;0.0;0.0;0.75;0.0;1.25;1.0;0.75;0.75;0.5;0.5;1.0;-0.239746;0.001953;0.972168;-1.4;-4.76;1.26;61.0;0.197256;-0.169001
0.05;2.75;4.0;1.0;2.75;0.75;2.75;0.25;4.0;0.75;2.75;4.0;3.5;3.5;1.5;1.25;2.0;-0.203613;0.042969;0.98584;-1.4;2.66;0.7;361.0;0.004666;-0.169853;0.0;0.0;0.25;0.0;0.0;0.0;0.0;0.5;0.5;1.0;1.0;0.75;1.0;0.5;0.75;1.0;-0.237305;0.00293;0.973633;-1.05;-4.41;1.12;66.0;0.218964;-0.131097
0.06;2.75;3.25;0.75;3.0;0.75;3.25;0.25;4.0;0.75;3.25;2.5;3.5;3.75;1.5;1.0;2.0;-0.204102;0.045898;0.983887;-1.75;2.38;0.7;349.0;0.002189;-0.174986;0.25;0.0;0.0;0.5;0.0;0.25;0.0;0.75;0.25;1.25;0.5;1.0;1.0;0.75;0.5;1.0;-0.234863;0.004883;0.977051;-1.19;-4.48;0.91;73.0;0.15482;-0.16463
0.07;2.5;3.5;1.0;3.25;0.5;3.0;0.25;3.75;1.0;3.25;3.0;3.25;3.25;1.25;1.0;2.0;-0.203125;0.046875;0.991211;-1.89;2.52;0.63;345.0;0.000125;-0.167234;0.25;0.25;0.0;0.25;0.0;0.25;0.0;0.5;0.0;1.25;0.25;0.75;1.0;0.75;0.5;1.0;-0.23877;0.000977;0.984375;-1.47;-4.48;0.77;62.0;0.152986;-0.167513
0.08;2.0;4.0;1.0;3.5;0.5;2.25;0.25;3.25;1.0;2.5;3.5;3.0;2.75;1.5;0.75;1.5;-0.203125;0.04834;0.991211;-2.24;2.38;0.49;321.0;-0.006832;-0.161572;0.25;0.25;0.25;0.25;0.25;0.25;0.0;0.5;0.25;1.5;0.75;0.75;1.0;0.5;0.75;0.75;-0.236816;0.003906;0.985352;-2.31;-4.9;0.35;76.0;0.139177;-0.127227
0.09;2.0;3.5;1.0;3.25;0.5;2.25;0.25;3.0;0.5;2.5;3.25;3.0;3.0;1.5;0.75;1.75;-0.207031;0.045898;0.985352;-2.73;2.59;0.42;305.0;-0.003148;-0.16985;0.25;0.25;0.5;0.25;0.25;0.0;0.0;0.75;0.25;1.5;1.25;1.0;1.25;0.5;0.75;0.75;-0.231445;0.000488;0.978027;-3.43;-5.25;-0.0;89.0;0.136996;-0.138749
0.1;2.5;3.5;1.25;2.75;0.5;2.0;0.25;3.0;0.5;1.75;3.0;3.0;2.25;1.5;1.0;1.5;-0.199219;0.044922;0.98291;-3.36;2.59;0.07;291.0;-0.015351;-0.160038;0.25;0.5;0.5;0.5;0.25;0.25;0.0;0.75;0.25;1.5;0.75;0.75;1.0;0.5;0.75;0.75;-0.228516;0.004883;0.981445;-4.27;-5.6;-0.07;87.0;0.09535;-0.135232
0.11;1.25;3.5;0.5;3.0;0.5;2.25;0.25;2.5;0.5;2.5;2.25;3.0;2.75;1.75;1.0;1.5;-0.202637;0.04541;0.982422;-3.5;2.38;0.07;275.0;0.010544;-0.171615;0.75;0.75;0.75;0.75;0.5;0.0;0.0;0.75;0.0;1.5;0.5;0.75;0.75;0.5;0.5;0.5;-0.236328;-0.001465;0.986328;-4.62;-5.46;-0.07;88.0;0.012177;-0.115272
0.12;1.25;3.0;0.25;2.25;0.5;2.0;0.25;2.25;0.5;2.5;2.5;2.25;2.75;1.75;1.25;1.5;-0.205078;0.04248;0.986328;-2.8;2.38;0.28;253.0;0.031432;-0.163803;1.5;1.0;1.0;0.75;0.5;0.25;0.0;1.0;0.0;1.0;0.5;0.5;0.75;0.75;0.5;0.5;-0.228516;-0.005371;0.989258;-4.55;-4.9;0.14;100.0;-0.0461;-0.107202
0.13;1.75;3.5;0.75;3.0;0.75;2.0;0.25;2.25;0.5;2.75;3.0;2.25;2.25;1.75;1.0;1.5;-0.208496;0.039551;0.983398;-2.45;2.52;0.49;277.0;0.00157;-0.147796;1.5;1.0;1.0;0.5;0.75;0.5;0.0;1.0;0.0;1.0;0.75;0.25;0.75;0.5;0.75;0.5;-0.225586;-0.002441;0.982422;-4.41;-4.27;0.07;103.0;-0.042412;-0.104835
0.14;1.75;4.0;0.75;3.25;0.75;2.0;0.25;2.5;0.25;2.75;3.5;2.5;2.0;1.5;0.75;1.75;-0.20166;0.036621;0.991699;-1.89;2.66;0.77;287.0;-0.010268;-0.15812;2.0;1.25;1.25;0.5;0.75;0.5;0.0;1.0;0.0;1.25;0.75;0.5;0.75;0.5;0.5;0.5;-0.229004;-0.003418;0.996094;-3.64;-3.01;0.42;115.0;-0.067454;-0.093814
0.15;2.25;3.0;0.75;2.5;0.75;2.0;0.25;2.25;0.5;2.5;2.5;2.25;2.25;1.5;0.75;1.5;-0.203125;0.042969;0.986328;-1.4;2.8;1.12;261.0;-0.006585;-0.146918;2.25;1.75;1.75;0.75;0.75;0.5;0.0;1.0;0.25;0.75;0.5;0.75;0.75;0.5;0.5;0.75;-0.229004;-0.001953;0.98584;-2.73;-2.31;0.42;128.0;-0.097242;-0.090507
0.16;2.75;3.25;0.75;2.75;0.5;2.25;0.25;2.25;0.75;2.5;2.5;2.25;2.0;0.5;1.0;1.5;-0.20752;0.041992;0.983887;-1.33;2.94;1.33;266.0;-0.026673;-0.148238;2.5;2.0;1.75;0.75;0.75;0.25;0.0;1.0;0.25;0.75;0.5;0.75;0.75;0.75;0.5;0.5;-0.228516;0.001465;0.984375;-1.89;-1.61;0.56;131.0;-0.103611;-0.078548
0.17;2.75;3.5;0.75;2.75;0.75;2.0;0.25;2.0;0.75;2.75;2.5;2.75;2.0;0.5;1.0;1.75;-0.202148;0.041016;0.983398;-0.98;3.01;1.54;273.0;-0.021386;-0.143724;2.5;2.5;1.75;1.0;0.5;0.5;0.0;1.0;0.0;0.75;0.75;0.75;1.0;0.75;0.5;0.5;-0.226074;0.00293;0.98877;-1.47;-1.26;0.7;139.0;-0.115024;-0.103542
0.18;2.75;4.0;0.75;2.5;0.5;2.0;0.25;2.25;0.5;3.25;2.25;2.75;2.25;1.25;1.0;1.25;-0.20459;0.045898;0.990723;-0.77;3.29;1.54;281.0;-0.017503;-0.143465;2.5;2.5;1.75;1.0;0.5;0.75;0.0;1.0;0.0;1.25;1.75;0.75;1.0;0.75;0.25;0.75;-0.230469;-0.002441;0.98584;-0.98;-0.84;0.91;155.0;-0.087936;-0.10391
0.19;2.25;4.0;0.75;3.0;0.5;1.75;0.25;2.25;0.5;3.25;2.5;2.25;2.25;1.25;0.5;1.25;-0.205566;0.049316;0.986328;-0.91;3.22;1.54;271.0;-0.02396;-0.146331;2.25;2.75;1.75;1.0;0.5;1.0;0.0;1.0;0.0;1.25;1.0;0.75;1.0;1.0;0.0;0.5;-0.224609;-0.000977;0.987793;-0.91;-0.77;0.91;148.0;-0.109106;-0.105326
0.2;1.0;3.5;0.75;2.75;0.5;1.75;0.25;2.25;0.25;2.5;2.5;2.5;2.25;0.5;0.5;1.75;-0.19873;0.039551;0.989746;-1.19;3.22;1.4;242.0;-0.011397;-0.180135;2.5;3.0;1.75;1.25;0.5;0.5;0.0;1.0;0.0;1.25;0.5;1.0;0.75;1.0;0.25;0.5;-0.231934;-0.003418;0.982422;-0.91;-0.77;0.84;148.0;-0.120724;-0.096754
0.21;3.0;3.0;0.75;2.75;0.5;1.5;0.25;2.25;0.25;2.0;2.5;2.0;2.25;0.25;0.5;1.75;-0.201172;0.047852;0.98291;-1.47;2.94;1.26;242.0;-0.04625;-0.162236;2.75;2.75;1.75;1.25;0.5;0.5;0.0;1.0;0.0;1.25;0.75;0.75;0.75;0.75;0.5;0.5;-0.228027;-0.003418;0.984375;-0.98;-0.77;0.7;149.0;-0.119227;-0.092956
0.22;2.5;1.75;1.0;2.5;0.5;1.5;0.25;2.0;0.5;2.25;2.5;2.0;1.25;0.75;0.75;1.25;-0.206055;0.04541;0.984375;-1.68;2.8;1.12;225.0;-0.014002;-0.133399;2.5;4.25;1.75;1.25;0.5;0.5;0.0;1.25;0.25;1.25;1.0;0.75;0.75;0.5;0.25;0.5;-0.22998;0.002441;0.984375;-1.33;-0.91;0.84;164.0;-0.137984;-0.104871
0.23;2.25;3.25;1.25;2.25;0.5;2.0;0.0;1.75;0.5;2.75;2.5;2.0;2.0;0.75;0.75;1.0;-0.208008;0.047852;0.983887;-1.75;2.52;1.05;243.0;-0.027595;-0.142035;3.25;4.25;1.75;1.25;0.5;0.5;0.0;1.25;0.25;1.5;1.0;1.0;0.75;0.5;0.0;0.75;-0.230957;-0.000977;0.983887;-1.61;-0.77;0.63;174.0;-0.142808;-0.098315
0.24;3.5;3.75;0.75;3.5;0.5;1.75;0.0;1.75;0.5;2.0;2.5;2.5;1.25;0.5;0.75;1.25;-0.202148;0.044434;0.979492;-2.1;2.38;0.98;255.0;-0.067431;-0.142671;3.5;3.75;2.5;1.5;0.5;0.5;0.0;1.25;0.5;1.5;1.0;1.0;0.75;0.75;0.25;0.5;-0.231445;0.0;0.984863;-1.82;-1.05;0.63;189.0;-0.131095;-0.077898
0.25;2.75;3.5;0.25;3.25;0.5;1.25;0.0;1.75;0.25;1.5;2.25;1.5;1.75;0.75;0.75;1.25;-0.203613;0.044434;0.985352;-2.38;2.24;0.91;219.0;-0.061999;-0.158809;3.25;3.75;2.5;2.0;0.75;0.5;0.0;1.0;0.25;1.0;1.25;1.0;0.75;0.5;0.25;0.5;-0.224609;-0.001953;0.980957;-2.1;-1.12;0.63;183.0;-0.151135;-0.089122
0.26;2.0;3.5;0.5;3.0;0.25;2.0;0.0;1.75;0.25;1.75;2.25;1.5;1.5;0.75;0.25;1.25;-0.202148;0.038574;0.990234;-2.52;2.31;0.84;213.0;-0.062258;-0.167002;4.0;3.5;2.5;1.5;0.75;0.5;0.0;0.75;0.25;1.0;0.75;1.0;0.75;0.5;0.25;0.5;-0.228516;-0.001953;0.984375;-2.1;-1.05;0.56;175.0;-0.167338;-0.069524
0.27;2.25;2.5;1.0;3.0;0.25;1.5;0.0;1.5;0.25;1.5;2.25;1.75;1.5;0.75;0.5;1.25;-0.206543;0.044922;0.984375;-2.87;2.45;0.7;206.0;-0.0502;-0.15431;4.0;4.0;2.25;1.25;0.75;0.5;0.0;0.75;0.0;1.0;0.75;0.75;0.75;0.75;0.0;0.5;-0.223145;-0.007324;0.98877;-2.17;-1.19;0.42;168.0;-0.18474;-0.071858
0.28;2.5;2.75;0.75;3.0;0.5;1.25;0.25;1.25;0.5;1.5;2.0;1.5;2.0;1.0;0.5;1.0;-0.204102;0.039551;0.983398;-2.94;2.31;0.7;210.0;-0.049094;-0.134476;3.75;4.0;2.5;1.75;0.75;0.5;0.0;1.0;0.0;1.0;0.5;0.75;0.75;1.0;0.0;0.5;-0.225098;0.001953;0.983887;-2.45;-1.4;0.56;176.0;-0.181465;-0.079245
0.29;2.75;3.0;0.75;3.0;0.5;1.25;0.25;1.25;0.25;1.5;2.25;1.75;1.5;1.25;0.5;1.0;-0.196777;0.035645;0.985352;-3.01;2.24;0.7;215.0;-0.054763;-0.130487;4.0;3.75;2.75;2.0;0.75;0.5;0.0;0.5;0.0;0.75;0.5;0.75;0.75;0.75;0.25;0.5;-0.222168;-0.00293;0.984863;-2.59;-1.54;0.49;173.0;-0.195507;-0.067582
0.3;3.0;3.25;1.0;2.75;0.5;1.25;0.25;1.25;0.25;2.0;2.5;2.0;1.25;1.25;0.25;1.25;-0.20166;0.041992;0.980957;-3.36;2.24;0.7;226.0;-0.054207;-0.120883;4.0;4.25;2.5;2.0;1.0;0.75;0.0;1.0;0.0;0.5;0.5;0.75;0.75;0.5;0.25;0.5;-0.233398;-0.001953;0.98584;-2.87;-1.61;0.49;182.0;-0.203292;-0.089797
0.31;2.0;3.25;0.75;2.75;0.5;1.0;0.25;1.0;0.5;2.25;2.25;1.5;1.0;0.5;0.5;1.25;-0.204102;0.040527;0.993652;-3.15;2.31;0.7;200.0;-0.046378;-0.120456;4.0;4.25;2.75;2.25;1.0;1.0;0.0;0.75;0.25;0.75;0.5;0.75;0.75;0.5;0.25;0.5;-0.226074;-0.002441;0.987793;-2.94;-1.4;0.63;192.0;-0.195341;-0.078486
0.32;1.75;3.25;0.5;3.25;0.5;1.0;0.25;1.0;0.5;1.75;2.25;1.5;1.0;0.5;0.5;1.25;-0.20459;0.041016;0.980957;-3.15;2.03;0.77;196.0;-0.052359;-0.133126;4.25;4.5;2.5;2.5;0.75;1.0;0.0;0.75;0.5;0.5;0.75;0.75;0.75;0.75;0.5;0.5;-0.220215;-0.004395;0.98877;-2.8;-1.54;0.49;201.0;-0.181508;-0.077335
0.33;2.75;4.0;0.5;2.25;0.25;0.75;0.25;1.0;0.5;1.75;2.0;1.5;0.5;0.5;0.5;1.25;-0.204102;0.041504;0.986816;-3.29;1.89;0.84;190.0;-0.075422;-0.111383;4.25;4.5;3.25;2.75;0.75;1.0;0.0;0.75;0.25;0.75;0.5;0.75;0.25;0.75;0.25;0.25;-0.227051;-0.004395;0.980957;-2.66;-1.54;0.7;200.0;-0.209889;-0.066755
0.34;1.75;3.25;0.25;2.25;0.25;0.75;0.0;0.75;0.5;1.5;1.5;1.75;0.5;1.0;0.25;0.75;-0.203613;0.041016;0.986328;-3.36;2.03;0.84;159.0;-0.055773;-0.122623;4.5;4.5;3.75;3.25;1.25;1.0;0.0;0.75;0.0;1.25;0.5;0.75;0.25;0.5;0.25;0.0;-0.229004;-0.00293;0.986816;-2.52;-1.54;0.84;217.0;-0.218605;-0.064474
0.35;1.5;3.0;0.25;2.5;0.5;0.5;0.0;0.75;0.75;1.5;1.5;1.25;0.5;1.0;0.5;0.75;-0.205566;0.045898;0.991211;-3.29;2.59;0.91;158.0;-0.044069;-0.108395;4.75;5.0;3.75;3.5;1.25;1.0;0.0;0.5;0.0;1.0;0.75;1.0;0.5;0.75;0.5;0.25;-0.227051;-0.005371;0.986816;-2.45;-1.61;0.84;232.0;-0.205324;-0.068528
0.36;2.0;3.0;0.75;2.0;0.5;0.25;0.25;0.5;0.5;1.5;1.0;0.5;0.25;1.0;0.5;1.0;-0.20459;0.03418;0.990723;-3.36;2.94;1.05;144.0;-0.078459;-0.067232;5.0;5.0;3.5;3.5;1.0;1.0;0.0;0.75;0.0;1.25;0.5;0.75;0.75;1.0;0.5;0.25;-0.225586;-0.004395;0.987793;-1.96;-1.75;1.05;234.0;-0.200475;-0.071768
0.37;1.75;3.25;1.0;2.0;0.0;0.5;0.25;0.5;0.5;1.25;1.0;0.5;0.5;1.5;0.25;0.75;-0.210449;0.039062;0.984863;-3.36;3.5;1.12;144.0;-0.081493;-0.075449;5.0;4.75;4.25;3.75;1.25;1.0;0.0;0.75;0.0;0.75;0.75;0.5;0.5;0.5;0.5;0.5;-0.224609;-0.014648;0.982422;-1.61;-2.03;1.12;236.0;-0.219864;-0.068912
0.38;1.0;2.5;1.0;1.75;0.0;0.5;0.25;0.5;0.25;1.25;1.25;0.5;0.5;1.5;0.5;0.75;-0.208496;0.040527;0.989746;-3.36;4.06;1.12;130.0;-0.03658;-0.087183;5.25;5.25;4.25;4.25;1.5;1.0;0.0;1.0;0.0;0.25;1.0;0.25;0.25;0.25;0.75;0.25;-0.225586;-0.010742;0.985352;-1.12;-1.96;1.4;246.0;-0.236239;-0.07375
0.39;1.5;2.0;0.75;2.0;0.0;0.25;0.0;0.25;0.25;1.25;1.0;0.5;0.25;0.75;0.5;0.5;-0.202148;0.045898;0.98877;-3.43;4.13;1.19;109.0;-0.078272;-0.083676;5.25;5.5;5.25;4.5;1.75;1.25;0.0;1.0;0.5;0.5;1.0;0.5;0.5;0.5;0.75;0.25;-0.227539;-0.008789;0.974609;-0.98;-2.03;1.47;280.0;-0.211565;-0.064728
0.4;1.75;2.5;0.25;1.25;0.25;0.25;0.0;0.25;0.5;1.25;0.5;0.75;0.25;0.75;0.25;0.5;-0.209473;0.032227;0.987305;-3.15;4.62;1.26;104.0;-0.085174;-0.070551;5.5;5.75;5.5;4.75;1.5;1.5;0.0;1.5;0.5;0.5;0.5;0.5;0.5;0.5;0.25;0.5;-0.225586;-0.009277;0.989746;-0.98;-1.96;1.47;288.0;-0.226364;-0.074791
0.41;1.0;2.5;0.25;1.0;0.0;0.0;0.0;0.25;0.5;1.0;0.5;0.5;0.25;0.5;0.25;0.5;-0.203613;0.04248;0.991211;-3.36;5.25;1.26;83.0;-0.078164;-0.08238;5.5;5.75;5.25;4.75;1.75;2.0;0.0;1.25;0.5;0.5;0.5;0.75;0.75;0.5;0.25;0.5;-0.227051;-0.00293;0.97998;-0.98;-1.68;1.54;294.0;-0.220182;-0.079091
0.42;0.75;2.25;0.25;1.25;0.0;0.25;0.0;0.25;0.25;0.5;0.75;0.25;0.5;0.75;0.25;0.5;-0.20752;0.037598;0.986328;-3.5;5.67;1.26;79.0;-0.08139;-0.116291;5.5;6.25;5.5;5.25;1.75;2.75;0.0;1.0;0.25;0.5;0.25;0.75;0.5;0.5;0.0;0.5;-0.224121;-0.004395;0.980469;-0.91;-1.68;1.4;300.0;-0.241114;-0.083178
0.43;0.5;2.25;0.25;1.25;0.25;0.25;0.0;0.0;0.25;0.5;1.0;0.5;0.5;1.0;0.0;0.5;-0.208496;0.03418;0.988281;-3.85;6.09;1.33;80.0;-0.061059;-0.104683;6.0;6.75;5.5;5.5;1.75;3.0;0.0;1.25;0.0;0.5;0.25;0.75;0.5;0.5;0.0;0.5;-0.22998;-0.001953;0.985352;-0.98;-1.54;1.33;315.0;-0.247777;-0.090841
0.44;1.0;2.0;0.0;1.25;0.0;0.25;0.0;0.0;0.0;0.75;0.5;0.5;0.25;0.5;0.0;0.25;-0.210938;0.038574;0.992188;-3.99;6.58;1.26;65.0;-0.132052;-0.113596;6.5;7.0;5.5;5.75;2.0;2.75;0.0;1.25;0.0;0.5;0.25;0.75;0.75;0.5;0.5;0.25;-0.22168;-0.007324;0.98877;-0.98;-1.4;1.26;329.0;-0.241362;-0.088213
0.45;1.5;1.5;0.25;1.0;0.0;0.25;0.0;0.0;0.25;0.5;0.25;0.5;0.25;0.25;0.0;0.25;-0.204102;0.038574;0.977051;-4.41;6.93;1.33;62.0;-0.159132;-0.077393;6.25;7.0;6.0;6.0;2.0;3.0;0.0;1.25;0.5;0.25;0.5;0.75;0.75;0.5;0.25;0.25;-0.225098;0.000488;0.984375;-0.91;-1.47;1.26;341.0;-0.236221;-0.084208
0.46;1.0;1.5;0.0;0.5;0.0;0.25;0.0;0.0;0.0;0.5;0.25;0.25;0.25;0.25;0.0;0.25;-0.210449;0.037598;0.994141;-4.69;7.0;1.12;44.0;0.0;0.0;6.5;7.25;6.0;6.0;2.0;3.0;0.0;1.5;0.5;0.5;0.5;0.75;0.75;0.5;0.25;0.5;-0.22168;-0.014648;0.985352;-0.98;-1.4;1.05;352.0;-0.23088;-0.086248
0.47;1.0;1.75;0.25;0.5;0.25;0.0;0.0;0.0;0.0;0.5;0.25;0.5;0.0;0.25;0.25;0.25;-0.211914;0.033691;1.003906;-5.18;7.63;1.26;52.0;-0.143809;-0.073382;6.5;7.5;6.0;7.0;2.0;3.25;0.0;1.5;0.5;1.0;0.5;0.75;0.75;0.75;0.75;0.0;-0.223145;-0.000488;0.981934;-1.12;-1.4;0.98;376.0;-0.219342;-0.086799
0.48;0.5;0.75;0.25;0.25;0.0;0.0;0.0;0.0;0.0;0.25;0.5;0.25;0.0;0.25;0.25;0.25;-0.219727;0.036621;1.005859;-7.0;8.4;0.7;31.0;0.0;0.0;7.0;7.5;6.25;7.0;2.5;2.75;0.0;1.5;0.5;0.5;0.5;0.75;0.5;0.5;0.5;0.0;-0.226562;-0.009766;0.984863;-1.12;-1.4;0.98;372.0;-0.236963;-0.079951
0.49;0.5;0.5;0.0;0.25;0.0;0.0;0.0;0.0;0.0;0.25;0.25;0.25;0.0;0.0;0.0;0.0;-0.232422;0.036133;0.98877;-9.8;7.35;-0.98;19.0;0.0;0.0;7.0;7.75;6.75;7.5;2.5;3.25;0.0;1.5;0.25;0.5;0.75;0.5;0.5;0.5;0.25;0.25;-0.223633;-0.007812;0.984863;-1.05;-1.54;0.98;385.0;-0.243738;-0.084927
0.5;0.5;0.75;0.25;0.5;0.0;0.0;0.0;0.0;0.0;0.25;0.25;0.0;0.0;0.0;0.25;0.25;-0.290527;-0.01416;0.999023;-10.22;2.45;-2.52;27.0;0.0;0.0;7.25;8.0;6.75;7.75;2.25;3.5;0.25;1.5;0.25;0.5;0.5;0.5;0.5;0.5;0.0;0.5;-0.221191;-0.005371;0.989746;-0.84;-1.26;0.98;392.0;-0.248158;-0.084861
0.51;0.25;0.5;0.0;0.5;0.0;0.0;0.0;0.0;0.0;0.0;0.25;0.0;0.0;0.0;0.25;0.25;-0.717285;-0.029785;0.842285;1.33;-5.88;-18.9;18.0;0.0;0.0;7.75;8.5;7.0;7.75;2.5;3.75;0.0;1.5;0.5;0.5;0.5;0.5;0.5;0.75;0.25;0.5;-0.223633;-0.003906;0.983887;-0.84;-1.12;1.05;413.0;-0.242591;-0.081537
0.52;0.5;0.5;0.0;0.5;0.0;0.0;0.0;0.0;0.0;0.0;0.0;0.0;0.0;0.0;0.0;0.0;-0.515625;-0.052246;0.900879;10.71;-12.88;-58.799999;14.0;0.0;0.0;8.25;8.5;7.0;7.75;2.5;3.75;0.0;1.5;0.0;0.75;0.75;0.5;0.5;0.5;0.0;0.5;-0.223633;-0.008301;0.98877;-0.77;-1.05;1.05;412.0;-0.253098;-0.085107
0.53;0.5;0.75;0.0;0.5;0.0;0.0;0.0;0.0;0.0;0.0;0.0;0.0;0.0;0.0;0.0;0.0;-0.526855;-0.078125;0.913574;15.61;-12.32;-76.93;16.0;0.0;0.0;8.25;8.75;7.0;7.75;2.5;4.0;0.25;1.5;0.0;1.0;0.75;0.75;0.5;0.5;0.0;0.75;-0.219727;-0.000977;0.98584;-0.49;-0.77;1.05;426.0;-0.243411;-0.084952
0.54;0.5;0.75;0.0;0.25;0.0;0.0;0.0;0.0;0.0;0.0;0.0;0.0;0.0;0.0;0.0;0.0;-0.318848;0.041016;0.934082;14.14;-10.01;-78.540001;14.0;0.0;0.0;7.75;8.75;7.0;7.75;2.5;4.0;0.25;1.5;0.0;0.5;0.5;0.75;0.5;0.5;0.0;0.5;-0.220215;-0.008789;0.990723;-0.84;-0.84;0.91;413.0;-0.251704;-0.08802
0.55;0.5;0.5;0.0;0.5;0.0;0.0;0.0;0.0;0.0;0.0;0.0;0.0;0.0;0.0;0.0;0.0;-0.312012;0.104492;0.907715;12.32;-7.77;-74.690002;14.0;0.0;0.0;7.75;9.0;7.0;7.75;2.5;4.5;0.25;1.5;0.0;0.5;0.5;0.75;0.75;0.5;0.25;0.5;-0.224609;-0.008789;0.991211;-0.63;-0.7;0.84;424.0;-0.245625;-0.0923
0.56;0.25;0.25;0.0;0.25;0.0;0.0;0.0;0.0;0.0;0.0;0.0;0.0;0.0;0.0;0.0;0.0;-0.214355;0.096191;0.914551;5.53;-2.59;-53.200001;7.0;0.0;0.0;8.25;8.75;7.0;8.0;2.5;4.0;0.25;1.75;0.0;1.0;0.5;0.75;0.25;0.5;0.25;0.5;-0.224121;-0.005859;0.98584;-0.56;-0.63;0.77;429.0;-0.244432;-0.085653
0.57;0.5;0.0;0.25;0.25;0.0;0.0;0.0;0.0;0.0;0.0;0.0;0.0;0.0;0.0;0.0;0.0;-0.064941;0.161133;0.94043;0.49;1.26;-34.23;10.0;0.0;0.0;8.25;9.0;7.0;8.0;2.25;4.25;0.0;1.5;0.5;1.5;0.75;0.75;0.0;0.5;0.25;0.5;-0.220703;-0.009277;0.986328;-0.35;-0.56;0.84;435.0;-0.236994;-0.079997
0.58;0.5;0.5;0.0;0.25;0.0;0.0;0.0;0.0;0.0;0.0;0.0;0.0;0.0;0.0;0.0;0.0;0.043457;0.160645;1.011719;-1.68;4.76;-15.68;11.0;0.0;0.0;7.75;9.0;7.0;8.0;2.0;3.75;0.0;1.5;0.5;0.75;0.75;0.5;0.25;0.5;0.0;0.25;-0.217773;-0.004883;0.987793;-0.28;-0.35;0.91;411.0;-0.251311;-0.08306
0.59;0.5;0.75;0.0;0.25;0.0;0.0;0.0;0.0;0.0;0.0;0.0;0.0;0.0;0.0;0.0;0.0;0.166504;0.101074;1.01416;-0.98;6.58;-2.59;14.0;0.0;0.0;7.75;8.75;7.0;7.75;2.25;3.75;0.0;1.5;0.5;0.5;0.5;0.5;0.25;0.75;0.0;0.25;-0.22168;-0.004883;0.987793;-0.35;-0.42;0.84;406.0;-0.251951;-0.080276
0.6;0.25;0.75;0.0;0.0;0.0;0.0;0.0;0.0;0.0;0.0;0.0;0.0;0.0;0.0;0.0;0.0;0.25293;-0.024414;1.032227;0.7;9.8;3.99;9.0;0.0;0.0;7.75;7.75;7.0;7.75;2.25;3.75;0.0;1.5;0.5;0.5;0.75;0.25;0.5;0.75;0.0;0.5;-0.22168;-0.007812;0.98877;-0.42;-0.28;0.56;401.0;-0.244417;-0.080013
0.61;0.75;0.5;0.0;0.25;0.0;0.0;0.0;0.0;0.0;0.0;0.0;0.0;0.0;0.0;0.0;0.0;-0.330566;0.002441;0.93457;-0.63;12.81;4.62;14.0;0.0;0.0;7.75;8.5;6.75;7.75;2.5;4.0;0.0;1.5;0.5;0.75;0.75;0.25;0.75;0.75;0.0;0.5;-0.224609;-0.005859;0.979004;-0.49;-0.42;0.63;414.0;-0.240863;-0.083681
0.62;0.5;0.75;0.0;0.5;0.0;0.0;0.0;0.0;0.0;0.25;0.0;0.0;0.0;0.0;0.0;0.0;-0.200684;0.053711;0.949219;-4.69;17.710001;0.91;18.0;0.0;0.0;7.75;8.75;7.25;7.75;2.25;4.0;0.0;1.5;0.25;1.0;0.75;0.5;0.5;0.5;0.0;0.5;-0.220215;-0.005371;0.983398;-0.28;-0.49;0.56;417.0;-0.245989;-0.085223
0.63;0.5;1.0;0.25;0.75;0.0;0.0;0.0;0.0;0.0;0.0;0.25;0.0;0.0;0.0;0.0;0.0;-0.271973;-0.095215;1.163086;-0.77;15.05;2.38;26.0;0.0;0.0;7.75;8.75;7.5;7.75;2.25;3.5;0.0;1.75;0.0;0.5;0.75;0.75;0.5;0.5;0.25;0.5;-0.223145;-0.008789;0.981445;-0.21;-0.42;0.77;415.0;-0.248026;-0.089974
0.64;0.5;1.5;0.25;0.75;0.0;0.0;0.0;0.0;0.0;0.0;0.25;0.25;0.0;0.0;0.0;0.0;-0.223145;0.007324;1.018555;5.25;-1.47;2.73;32.0;0.0;0.0;7.75;8.5;7.25;7.75;2.0;3.5;0.0;1.75;0.25;0.5;1.0;0.75;0.5;0.75;0.25;0.0;-0.227051;-0.005371;0.991211;0.14;-0.28;0.7;413.0;-0.241957;-0.086506
0.65;1.5;1.75;0.25;1.0;0.0;0.0;0.0;0.0;0.0;0.5;0.5;0.25;0.0;0.0;0.0;0.0;-0.235352;0.024902;0.997559;4.69;-3.5;2.38;53.0;-0.23747;-0.072825;7.5;8.5;7.0;7.75;2.25;3.25;0.0;1.5;0.25;1.0;1.0;0.75;0.5;0.5;0.25;0.25;-0.217773;-0.005371;0.978516;-0.07;-0.28;0.7;408.0;-0.238327;-0.084299
0.66;1.75;2.75;0.25;1.25;0.0;0.0;0.0;0.0;0.25;0.5;0.5;0.0;0.0;0.0;0.0;0.0;-0.223145;0.026855;0.987793;3.99;-4.41;2.94;67.0;-0.261625;-0.060355;7.5;8.5;7.0;7.75;2.25;3.25;0.0;1.5;0.5;1.0;0.75;0.75;0.5;0.5;0.25;0.5;-0.220703;-0.00293;0.98584;-0.21;-0.21;0.63;410.0;-0.235604;-0.082196
0.67;2.0;3.0;0.25;1.75;0.0;0.0;0.0;0.0;0.25;0.5;0.75;0.5;0.0;0.0;0.0;0.0;-0.208984;0.029785;0.993652;3.08;-4.41;2.94;84.0;-0.230127;-0.08315;7.5;8.5;7.0;7.75;2.5;3.25;0.0;1.25;0.5;1.25;0.5;0.5;0.5;0.5;0.0;0.25;-0.220215;-0.011719;0.983398;-0.28;-0.14;0.56;403.0;-0.245132;-0.075578
0.68;2.0;3.5;0.75;2.0;0.0;0.25;0.0;0.0;0.25;0.5;0.75;0.5;0.0;0.25;0.0;0.25;-0.205078;0.033691;0.990234;2.66;-3.92;2.38;102.0;-0.219528;-0.083888;7.25;8.0;6.75;7.5;1.75;3.5;0.0;1.5;0.5;1.25;0.5;0.75;0.5;0.5;0.0;0.25;-0.220215;-0.010254;0.987305;-0.35;-0.07;0.77;392.0;-0.23879;-0.08387
0.69;2.5;4.0;0.75;2.0;0.0;0.25;0.0;0.0;0.25;0.5;0.75;0.25;0.0;0.0;0.0;0.0;-0.200195;0.037598;0.980469;2.66;-3.43;2.1;105.0;-0.264269;-0.075755;7.25;8.0;6.75;7.5;2.25;3.5;0.0;1.25;0.0;0.5;0.25;0.5;0.5;0.5;0.0;0.25;-0.224609;-0.008301;0.984863;-0.28;0.0;0.91;376.0;-0.262175;-0.086027
0.7;2.75;4.0;0.75;2.0;0.0;0.5;0.0;0.25;0.25;0.75;0.75;0.5;0.0;0.0;0.0;0.25;-0.199219;0.033203;0.987793;2.52;-2.24;2.03;119.0;-0.23116;-0.089568;7.25;7.75;6.25;7.25;1.75;3.25;0.0;1.0;0.0;0.5;0.25;0.75;0.5;0.5;0.0;0.5;-0.223633;-0.007812;0.983398;-0.21;0.21;0.91;359.0;-0.260806;-0.087085
0.71;2.75;4.0;1.0;2.5;0.25;0.25;0.0;0.25;0.0;0.75;1.0;0.5;0.0;0.25;0.0;0.25;-0.208008;0.035156;0.991211;2.03;-1.19;1.75;128.0;-0.226551;-0.089707;7.0;7.5;6.0;7.0;1.5;3.25;0.0;1.25;0.25;0.5;0.5;0.5;0.5;0.25;0.0;0.25;-0.21875;-0.005859;0.98584;-0.49;0.35;0.84;350.0;-0.258647;-0.088663
0.72;2.5;4.0;1.0;2.5;0.25;0.0;0.0;0.25;0.0;1.0;0.5;0.25;0.0;0.25;0.0;0.25;-0.203125;0.035156;0.992676;1.75;-0.21;1.61;119.0;-0.242357;-0.081496;7.0;7.5;6.0;6.5;1.5;2.75;0.0;1.25;0.5;0.25;0.5;0.25;0.5;0.5;0.0;0.25;-0.217285;-0.010254;0.984863;-0.56;0.49;0.77;340.0;-0.258202;-0.078841
0.73;2.75;4.0;1.25;2.25;0.25;0.0;0.0;0.0;0.0;1.25;0.5;1.0;0.0;0.0;0.0;0.5;-0.206055;0.033203;0.986816;1.05;0.63;1.4;126.0;-0.220487;-0.078922;6.5;7.5;6.0;6.0;1.5;3.0;0.0;1.0;0.25;0.25;0.0;0.5;0.25;0.5;0.25;0.25;-0.225586;-0.000488;0.98584;-0.84;0.7;0.77;325.0;-0.263539;-0.079451
0.74;2.75;4.0;0.5;2.25;0.0;0.5;0.0;0.25;0.0;1.25;0.25;0.5;0.25;0.0;0.0;0.5;-0.207031;0.034668;0.98877;0.42;1.26;1.4;119.0;-0.230495;-0.106737;6.5;7.25;5.5;6.0;1.5;2.5;0.0;0.75;0.0;0.5;0.25;0.5;0.25;0.5;0.0;0.25;-0.22168;-0.008789;0.984863;-0.98;0.63;0.7;308.0;-0.2697;-0.0776
0.75;2.75;4.0;0.25;3.0;0.0;0.5;0.0;0.0;0.0;1.0;0.25;0.5;0.0;0.25;0.0;0.5;-0.198242;0.028809;0.98291;0.42;1.47;1.4;119.0;-0.245349;-0.102867;6.25;6.5;5.25;5.75;1.25;2.25;0.0;1.0;0.0;0.75;0.5;0.5;0.0;0.5;0.0;0.25;-0.223145;-0.005859;0.983887;-0.98;0.7;0.56;296.0;-0.259419;-0.077207
0.76;3.25;4.25;0.75;3.25;0.0;0.5;0.0;0.25;0.25;0.75;0.5;0.5;0.0;0.0;0.0;0.25;-0.202148;0.03418;0.98584;0.42;1.4;1.4;136.0;-0.253231;-0.095851;5.5;6.5;5.25;5.5;1.25;1.75;0.0;1.0;0.0;0.75;0.5;0.75;0.0;0.25;0.0;0.25;-0.225098;-0.001953;0.991699;-1.19;0.63;0.35;282.0;-0.258077;-0.080762
0.77;2.75;4.25;0.75;3.75;0.25;0.5;0.0;0.25;0.0;0.75;0.5;0.0;0.0;0.25;0.0;0.5;-0.202637;0.03418;0.984863;0.21;1.26;1.47;134.0;-0.259412;-0.104064;5.5;6.25;4.25;5.0;1.5;1.75;0.0;1.0;0.5;0.5;0.5;0.25;0.0;0.25;0.0;0.5;-0.220215;-0.007324;0.983398;-1.12;0.7;0.49;267.0;-0.253201;-0.073081
0.78;2.5;4.25;1.25;3.5;0.5;0.5;0.0;0.25;0.0;0.75;0.5;0.25;0.0;0.25;0.0;0.25;-0.203613;0.039062;0.985352;0.35;1.05;1.33;138.0;-0.25165;-0.096825;5.5;5.75;4.25;4.5;1.5;2.0;0.0;1.0;0.5;0.5;0.5;0.25;0.25;0.5;0.0;0.5;-0.222656;-0.004395;0.988281;-1.54;0.56;0.56;264.0;-0.240884;-0.071677
0.79;2.0;4.0;0.25;3.25;0.25;0.75;0.0;0.25;0.25;1.0;0.75;1.0;0.0;0.0;0.0;0.25;-0.20166;0.037109;0.977539;0.21;1.12;1.33;132.0;-0.19779;-0.125415;5.5;5.75;4.5;4.75;1.5;1.75;0.0;1.0;0.25;0.75;0.5;0.0;0.5;0.5;0.5;0.5;-0.227539;-0.01123;0.982422;-1.54;0.42;0.56;271.0;-0.233055;-0.073428
0.8;2.0;4.25;0.25;3.0;0.25;0.5;0.0;0.25;0.0;0.75;0.75;0.5;0.0;0.25;0.25;0.25;-0.199707;0.032715;0.979004;-0.07;1.05;1.33;123.0;-0.214531;-0.122164;5.25;5.75;4.5;4.75;1.25;1.5;0.0;1.0;0.0;1.0;0.5;0.25;0.5;0.5;0.25;0.5;-0.229004;-0.007324;0.983887;-1.4;0.42;0.49;263.0;-0.236431;-0.079152
0.81;2.5;4.0;0.25;3.0;0.25;0.5;0.0;0.0;0.0;0.5;0.75;0.5;0.0;0.0;0.25;0.0;-0.203125;0.03418;0.980469;-0.28;1.05;1.19;117.0;-0.250503;-0.110723;5.25;5.5;4.5;4.5;1.5;1.5;0.0;0.75;0.25;0.75;0.5;0.5;0.5;0.5;0.25;0.5;-0.223145;-0.004883;0.979004;-1.26;0.28;0.7;260.0;-0.230957;-0.070754
0.82;3.0;4.25;0.5;3.5;0.25;0.5;0.0;0.25;0.25;1.0;0.75;0.5;0.0;0.0;0.25;0.0;-0.19873;0.036133;0.985352;-0.42;1.12;1.05;142.0;-0.226726;-0.097605;5.25;5.5;4.25;4.5;1.0;2.0;0.0;0.75;0.0;1.0;0.25;0.5;0.5;0.5;0.5;0.5;-0.22168;-0.002441;0.984375;-1.19;0.28;0.98;257.0;-0.230727;-0.081304
0.83;3.5;4.5;1.0;3.75;0.5;0.75;0.0;0.0;0.0;1.25;0.75;0.75;0.0;0.25;0.0;0.0;-0.201172;0.032715;0.98584;-0.42;1.26;1.05;160.0;-0.235857;-0.086656;5.0;5.5;4.0;4.25;1.5;2.0;0.0;0.5;0.25;1.0;0.25;0.5;0.25;0.5;0.25;0.25;-0.223145;-0.001465;0.990723;-1.12;0.28;0.84;248.0;-0.235595;-0.067671
0.84;3.0;4.5;1.0;3.75;0.25;1.0;0.0;0.25;0.0;1.25;1.0;0.25;0.25;0.25;0.0;0.5;-0.201172;0.033691;0.987793;-0.7;1.26;0.84;160.0;-0.21867;-0.106595;5.0;5.5;4.0;4.25;1.5;1.75;0.0;1.0;0.5;1.0;0.5;0.75;0.0;0.75;0.0;0.25;-0.227051;-0.004883;0.984863;-1.19;0.35;0.84;258.0;-0.220482;-0.068002
0.85;3.5;4.5;1.25;3.75;0.25;0.5;0.0;0.5;0.0;1.25;1.25;0.25;0.25;0.0;0.25;0.25;-0.20166;0.035156;0.990723;-0.91;1.54;0.98;168.0;-0.218592;-0.100064;5.0;5.5;4.25;4.25;1.5;1.25;0.0;0.75;0.25;0.75;0.5;0.75;0.25;0.75;0.0;0.5;-0.228027;-0.004883;0.987793;-0.98;0.21;0.84;250.0;-0.229273;-0.067535
0.86;4.0;4.5;0.5;4.0;0.0;0.75;0.0;0.5;0.0;0.75;1.0;0.25;0.25;0.25;0.5;0.25;-0.206543;0.035645;0.994141;-0.91;1.47;0.84;165.0;-0.226262;-0.110799;4.75;5.25;4.25;4.25;1.25;1.25;0.0;0.5;0.0;0.5;1.0;0.5;0.25;0.75;0.25;0.5;-0.224121;-0.006836;0.97998;-0.98;0.21;0.84;239.0;-0.229778;-0.069453
0.87;3.75;4.75;0.5;4.0;0.0;1.0;0.0;0.25;0.25;1.0;1.0;0.0;0.25;0.25;0.25;0.25;-0.20166;0.030762;0.98291;-0.7;1.61;0.84;164.0;-0.229722;-0.09931;4.5;5.25;3.75;4.25;0.75;1.5;0.0;0.5;0.25;0.75;0.75;0.5;0.25;0.75;0.25;0.5;-0.222656;-0.005859;0.984375;-0.91;0.21;0.77;232.0;-0.222263;-0.073496
0.88;3.75;4.75;0.75;4.0;0.25;0.5;0.0;0.25;0.25;0.75;1.0;0.25;0.0;0.5;0.0;0.25;-0.202148;0.036621;0.986328;-0.63;1.75;0.84;161.0;-0.238106;-0.086249;4.5;5.0;4.0;4.25;1.5;1.5;0.0;0.75;0.25;1.0;0.5;0.5;0.25;0.75;0.25;0.25;-0.221191;-0.002441;0.987305;-0.98;0.28;0.63;242.0;-0.217891;-0.068345
0.89;4.0;4.75;1.25;4.0;0.0;0.75;0.0;0.25;0.0;0.75;0.5;0.5;0.25;0.5;0.0;0.5;-0.202148;0.036133;0.979492;-0.63;1.82;0.84;167.0;-0.248073;-0.097947;4.5;5.25;3.75;4.0;1.25;1.5;0.0;0.5;0.0;1.25;0.5;0.25;0.25;0.75;0.0;0.25;-0.228027;-0.006836;0.986816;-1.05;0.14;0.7;228.0;-0.235178;-0.066352
0.9;4.25;4.75;1.25;4.0;0.0;1.25;0.0;0.5;0.25;1.0;0.75;0.75;0.25;0.5;0.0;0.25;-0.200684;0.032227;0.98584;-0.84;1.68;0.84;187.0;-0.220854;-0.098773;4.5;5.25;3.25;4.0;1.0;1.5;0.0;0.5;0.0;1.0;0.75;0.5;0.25;0.75;0.0;0.5;-0.230469;-0.009277;0.981934;-1.19;0.07;0.56;224.0;-0.227731;-0.077097
0.91;4.25;4.5;1.25;3.75;0.0;1.0;0.0;0.5;0.5;1.25;0.75;1.25;0.0;0.5;0.0;0.0;-0.198242;0.035645;0.98291;-0.98;1.82;0.84;186.0;-0.202057;-0.085701;4.5;5.0;3.75;4.0;0.75;1.5;0.0;0.5;0.0;1.0;0.75;0.5;0.25;1.0;0.0;0.25;-0.225098;-0.006348;0.984375;-1.26;0.0;0.56;225.0;-0.225673;-0.070513
0.92;4.25;4.5;1.0;4.0;0.25;1.0;0.25;0.5;0.5;0.75;0.75;0.5;0.25;0.5;0.0;0.25;-0.197754;0.035156;0.985352;-1.05;1.82;0.98;184.0;-0.21574;-0.083026;4.75;5.0;3.25;4.0;0.75;0.5;0.0;0.5;0.25;0.75;0.75;0.5;0.25;0.5;0.25;0.25;-0.222656;-0.006836;0.981934;-1.26;0.07;0.49;212.0;-0.233134;-0.064188
0.93;4.25;4.5;1.25;4.0;0.25;1.0;0.25;0.5;0.0;0.5;1.25;0.25;0.0;0.5;0.0;0.5;-0.201172;0.038086;0.984863;-0.84;1.82;0.91;179.0;-0.232442;-0.089859;4.5;5.0;3.0;4.0;0.75;0.5;0.0;0.5;0.25;0.75;0.75;0.5;0.25;0.5;0.25;0.25;-0.228516;-0.004395;0.984375;-1.26;0.0;0.42;207.0;-0.230784;-0.068067
0.94;4.0;4.5;1.25;4.0;0.5;1.25;0.25;0.5;0.0;1.0;1.25;0.5;0.25;0.0;0.0;0.5;-0.196289;0.035156;0.979492;-0.98;1.89;0.98;187.0;-0.219253;-0.101053;4.75;5.0;3.25;4.0;1.0;0.5;0.0;0.5;0.0;1.0;0.5;0.5;0.25;0.5;0.25;0.25;-0.225098;-0.010254;0.988281;-1.33;0.0;0.49;211.0;-0.238664;-0.065466
0.95;3.75;4.5;1.0;4.0;0.25;0.5;0.25;0.5;0.25;0.75;0.5;0.75;0.25;0.25;0.25;0.5;-0.196289;0.037109;0.980469;-0.91;1.89;0.98;173.0;-0.215024;-0.096128;4.25;4.75;3.0;3.5;1.0;1.0;0.0;0.5;0.25;1.5;0.5;0.25;0.5;0.5;0.5;0.5;-0.220215;-0.010254;0.982422;-1.33;0.0;0.49;213.0;-0.202441;-0.066374
0.96;4.0;4.5;1.0;4.0;0.0;0.5;0.25;0.5;0.25;0.75;0.25;0.5;0.0;0.75;0.0;0.5;-0.201172;0.033691;0.986816;-0.84;2.1;0.91;167.0;-0.230385;-0.081877;4.5;4.75;3.25;3.5;0.75;0.5;0.0;0.75;0.25;1.25;0.75;0.0;0.5;0.5;0.5;0.0;-0.227539;-0.012207;0.981445;-1.33;0.0;0.63;209.0;-0.216085;-0.060957
0.97;4.0;4.5;1.25;4.0;0.25;1.25;0.0;0.5;0.25;0.75;0.5;0.25;0.5;0.5;0.0;0.5;-0.199219;0.036133;0.988281;-0.84;2.17;0.84;178.0;-0.230129;-0.100657;4.0;5.0;3.25;3.5;1.0;0.5;0.0;0.75;0.25;1.0;0.5;0.0;0.5;0.25;0.5;0.25;-0.225098;-0.002441;0.98291;-1.33;-0.07;0.7;203.0;-0.225737;-0.06916
0.98;4.0;4.5;1.25;4.0;0.25;1.0;0.0;0.5;0.5;0.5;0.5;0.25;0.5;0.5;0.0;0.5;-0.201172;0.035645;0.978516;-0.91;2.1;0.91;176.0;-0.229318;-0.094082;4.5;4.5;3.5;3.5;0.75;0.75;0.0;0.75;0.5;1.25;0.5;0.0;0.25;0.5;0.0;0.25;-0.224121;-0.008789;0.981445;-1.33;0.07;0.7;207.0;-0.226971;-0.052249
0.99;4.25;4.5;1.5;4.0;0.5;0.75;0.0;0.5;0.25;0.5;0.5;0.5;0.25;0.5;0.25;0.5;-0.200195;0.044922;0.983398;-1.12;2.1;0.91;181.0;-0.229807;-0.088802;4.0;4.5;3.25;2.5;0.75;1.0;0.0;0.75;0.0;1.25;0.75;0.5;0.25;0.25;0.0;0.25;-0.225098;-0.006836;0.982422;-1.33;0.07;0.7;191.0;-0.22292;-0.071472
1.0;3.75;4.5;1.5;4.0;0.5;1.0;0.0;0.75;0.25;0.5;1.0;0.75;0.25;0.25;0.25;0.5;-0.202637;0.037109;0.980469;-1.05;2.24;0.91;188.0;-0.209784;-0.107965;4.0;4.5;2.75;3.5;0.75;0.75;0.0;0.5;0.25;1.0;0.5;0.75;0.25;0.5;0.0;0.25;-0.228516;-0.006348;0.98291;-1.4;0.0;0.77;193.0;-0.221872;-0.07137
1.01;3.75;4.5;1.75;4.0;0.5;1.25;0.0;0.5;0.5;1.0;0.75;0.5;0.25;0.5;0.0;0.5;-0.196777;0.037598;0.987305;-0.84;2.17;0.98;192.0;-0.207055;-0.087053;4.0;4.5;3.0;3.75;0.75;1.0;0.0;0.5;0.25;1.0;0.5;0.75;0.5;0.5;0.0;0.25;-0.224609;-0.015625;0.991211;-1.33;-0.07;0.63;202.0;-0.21852;-0.077577
1.02;4.0;4.75;1.0;4.0;0.0;1.25;0.0;0.5;0.0;1.25;0.75;0.0;0.0;0.5;0.0;0.5;-0.199219;0.031738;0.987305;-0.91;2.24;0.98;173.0;-0.237901;-0.097742;4.0;4.5;3.25;3.5;0.75;0.75;0.0;0.5;0.25;1.25;0.5;0.25;0.5;0.5;0.25;0.25;-0.226562;-0.01123;0.985352;-1.33;0.0;0.7;200.0;-0.216378;-0.064257
1.03;4.0;4.5;1.0;4.0;0.25;1.25;0.0;0.5;0.0;0.5;0.75;0.25;0.0;0.5;0.0;0.25;-0.198242;0.033691;0.980957;-0.91;2.38;0.98;167.0;-0.252367;-0.102624;4.0;4.5;3.25;3.5;1.0;0.75;0.0;0.5;0.5;1.25;0.5;0.25;0.25;0.5;0.0;0.5;-0.225586;-0.015625;0.989258;-1.4;-0.07;0.56;202.0;-0.215938;-0.055082
1.04;4.25;4.25;1.25;4.0;0.5;1.25;0.0;0.5;0.25;0.5;1.0;0.5;0.25;0.5;0.25;0.25;-0.202637;0.032227;0.981934;-0.98;2.38;0.98;185.0;-0.217293;-0.094516;4.25;4.5;3.5;3.0;0.75;0.5;0.0;0.5;0.5;1.0;0.75;0.25;0.25;0.25;0.25;0.5;-0.226074;-0.007324;0.986816;-1.26;0.0;0.49;197.0;-0.217696;-0.050473
1.05;3.0;4.25;1.5;4.0;0.5;1.25;0.0;0.5;0.25;0.5;1.0;1.0;0.25;0.5;0.0;0.5;-0.198242;0.034668;0.98291;-0.84;2.45;0.91;179.0;-0.198625;-0.11241;3.5;4.5;3.25;2.5;1.0;1.0;0.0;0.5;0.75;1.0;1.0;0.25;0.5;0.25;0.25;0.5;-0.221191;-0.008301;0.98584;-1.26;-0.07;0.7;198.0;-0.189342;-0.057781
1.06;3.25;4.25;1.25;4.0;0.5;0.75;0.0;0.5;0.25;0.5;1.25;1.0;0.25;0.5;0.0;0.5;-0.196777;0.033203;0.983398;-0.84;2.31;1.05;177.0;-0.195955;-0.107888;3.25;4.5;3.25;3.0;1.25;0.75;0.0;0.75;0.25;1.25;1.25;0.0;0.5;0.5;0.0;0.25;-0.222656;-0.012695;0.980957;-1.33;-0.07;0.63;198.0;-0.198753;-0.06779
1.07;3.75;4.5;1.25;4.0;0.5;1.0;0.0;0.75;0.5;1.0;1.0;1.0;0.5;0.5;0.0;0.5;-0.201172;0.036621;0.97998;-0.91;2.52;1.05;197.0;-0.183509;-0.103922;3.5;4.5;3.25;3.25;1.25;0.5;0.0;0.5;0.25;1.25;0.75;0.0;0.5;0.5;0.0;0.25;-0.225586;-0.012695;0.982422;-1.12;-0.14;0.63;192.0;-0.21696;-0.057965
1.08;4.0;4.75;1.5;4.0;0.5;0.5;0.25;0.5;0.25;0.75;1.0;1.0;0.25;0.5;0.0;0.5;-0.196289;0.035645;0.983887;-0.77;2.31;0.98;191.0;-0.204815;-0.087747;4.0;4.0;3.0;3.5;1.0;0.75;0.0;0.5;0.5;1.25;0.75;0.25;0.25;0.5;0.0;0.0;-0.229492;-0.012207;0.98584;-1.05;-0.07;0.63;195.0;-0.212916;-0.052012
1.09;4.0;4.5;1.0;4.0;0.5;0.5;0.0;0.5;0.0;0.75;0.75;1.0;0.25;0.5;0.0;0.5;-0.201172;0.02832;0.984863;-0.77;2.52;0.98;175.0;-0.219921;-0.104317;4.0;4.5;3.0;3.0;0.75;0.5;0.0;0.5;0.25;1.5;1.0;0.0;0.25;0.5;0.25;0.25;-0.229492;-0.011719;0.980469;-0.98;-0.07;0.91;192.0;-0.207375;-0.052083
1.1;4.0;4.0;0.75;4.0;0.5;0.75;0.0;0.5;0.0;1.0;0.75;1.25;0.5;0.75;0.0;0.5;-0.196777;0.036621;0.98584;-0.98;2.38;0.98;180.0;-0.190712;-0.10919;4.0;4.5;3.25;2.75;0.75;0.5;0.0;0.5;0.0;1.25;0.75;0.25;0.5;0.5;0.5;0.25;-0.229492;-0.012207;0.98291;-0.91;0.07;0.84;191.0;-0.208407;-0.061397
1.11;4.0;4.25;1.25;4.0;0.5;0.75;0.0;0.75;0.0;1.25;1.0;0.75;0.5;0.25;0.0;0.5;-0.197266;0.035645;0.989746;-1.12;2.45;0.98;187.0;-0.204103;-0.108733;4.0;4.5;3.25;3.0;1.0;0.5;0.0;0.75;0.25;1.5;1.0;0.25;0.5;1.0;0.25;0.25;-0.226074;-0.010254;0.983887;-0.91;0.0;0.84;209.0;-0.183887;-0.057068
1.12;4.0;4.25;1.25;3.75;0.5;0.5;0.0;0.5;0.0;1.25;0.75;0.75;0.5;0.5;0.25;0.5;-0.195801;0.040527;0.98584;-1.12;2.45;0.91;180.0;-0.198193;-0.095827;4.0;4.0;3.0;3.5;1.25;0.5;0.0;0.75;0.5;1.5;0.5;0.25;0.5;1.0;0.0;0.5;-0.227539;-0.008789;0.990723;-0.84;0.07;0.98;207.0;-0.186675;-0.054387
1.13;2.75;4.0;1.0;3.5;0.25;0.5;0.0;0.5;0.25;1.25;0.75;1.0;0.25;0.75;0.0;0.5;-0.19873;0.041016;0.990723;-1.12;2.52;0.98;162.0;-0.170706;-0.101776;3.75;4.5;2.5;3.0;0.75;1.0;0.0;0.5;0.5;1.5;0.5;0.0;0.5;1.0;0.25;0.25;-0.226562;-0.013184;0.984375;-0.77;0.0;0.77;194.0;-0.189219;-0.056406
1.14;3.5;4.0;0.25;3.5;0.5;0.75;0.0;0.5;0.5;1.25;1.0;1.0;0.25;1.0;0.0;0.5;-0.19873;0.037109;0.985352;-1.19;2.59;0.91;173.0;-0.155698;-0.092236;3.75;4.5;2.5;2.5;0.75;0.75;0.0;0.5;0.75;1.5;0.5;0.25;0.25;1.0;0.25;0.25;-0.228516;-0.012207;0.983887;-0.77;-0.07;0.84;190.0;-0.178787;-0.042687
1.15;4.0;4.0;0.25;4.0;0.5;0.75;0.0;0.75;0.25;1.25;0.25;0.75;0.25;0.5;0.0;0.5;-0.200195;0.035156;0.985352;-1.33;2.38;0.98;170.0;-0.205144;-0.105441;3.75;4.5;2.5;2.75;0.75;0.5;0.0;0.75;0.75;1.5;0.75;0.5;0.5;0.75;0.0;0.25;-0.231445;-0.005859;0.98291;-0.63;0.0;0.77;196.0;-0.177415;-0.058288
1.16;4.0;4.5;1.0;3.75;0.5;1.0;0.0;0.75;0.25;1.25;0.25;1.0;0.0;0.25;0.25;0.5;-0.196289;0.038086;0.979004;-1.26;2.66;0.98;183.0;-0.20782;-0.100659;4.0;4.5;1.5;3.25;1.0;0.75;0.0;0.75;0.5;1.5;1.0;0.25;0.5;0.75;0.25;0.25;-0.229492;-0.012207;0.979492;-0.84;-0.14;0.7;197.0;-0.176639;-0.072471
1.17;4.25;4.0;1.0;3.5;0.75;1.25;0.25;0.75;0.25;1.25;0.25;1.0;0.25;0.5;0.5;0.5;-0.196777;0.046387;0.984863;-1.26;2.66;0.91;193.0;-0.179802;-0.089659;4.0;4.5;2.5;2.5;1.25;1.0;0.0;1.25;0.5;1.5;1.0;0.25;0.25;1.25;0.5;0.25;-0.223633;-0.008301;0.986328;-0.84;-0.28;0.7;216.0;-0.156849;-0.062553
1.18;4.25;4.25;0.5;3.5;0.5;1.25;0.0;0.5;0.0;1.25;0.5;0.5;0.5;0.25;0.5;0.75;-0.200195;0.035156;0.984863;-1.19;2.73;0.98;177.0;-0.200648;-0.108134;4.0;4.5;2.5;3.0;1.25;1.0;0.0;0.75;0.5;1.5;1.0;0.5;0.25;0.5;0.25;0.5;-0.225098;-0.006348;0.987305;-0.84;-0.28;0.77;210.0;-0.179878;-0.06618
1.19;3.5;4.0;1.0;3.75;0.5;1.25;0.0;0.5;0.0;1.25;0.75;0.5;0.5;0.5;0.0;0.75;-0.200684;0.038086;0.983398;-1.12;2.59;0.98;175.0;-0.197054;-0.10979;4.25;4.5;2.75;3.25;1.25;1.25;0.0;0.5;0.5;1.5;0.5;0.5;0.5;0.5;0.25;0.5;-0.223633;-0.010742;0.987793;-0.91;-0.28;0.77;213.0;-0.192893;-0.063929
1.2;4.25;4.0;1.25;3.5;0.5;1.25;0.0;0.5;0.0;1.25;0.5;1.0;0.5;0.5;0.25;0.75;-0.200195;0.036621;0.984375;-1.33;2.66;0.98;187.0;-0.191729;-0.101566;4.25;4.25;3.25;3.0;1.25;1.0;0.0;0.5;0.25;1.5;0.5;0.75;0.25;1.0;0.25;0.5;-0.231934;-0.007324;0.988281;-0.91;-0.28;0.63;213.0;-0.185827;-0.054125
1.21;3.5;4.0;1.25;3.75;0.5;0.5;0.0;0.5;0.0;1.25;1.25;1.25;0.25;0.5;0.25;0.5;-0.200195;0.035156;0.987793;-1.26;2.59;0.98;181.0;-0.172249;-0.102191;3.75;4.25;2.75;3.0;1.5;0.75;0.0;0.75;0.25;1.5;0.5;0.75;0.25;1.25;0.25;0.5;-0.222656;-0.010742;0.983887;-0.84;-0.35;0.7;208.0;-0.170102;-0.0608
1.22;3.0;4.0;1.0;3.5;0.5;0.5;0.0;0.75;0.25;1.25;1.0;1.25;0.25;0.5;0.0;0.5;-0.203125;0.034668;0.990234;-1.33;2.73;0.91;173.0;-0.165841;-0.108415;3.25;4.5;2.5;3.0;1.25;1.0;0.0;0.5;0.75;1.75;0.5;0.25;0.5;0.75;0.25;0.5;-0.222656;-0.01123;0.982422;-0.91;-0.42;0.63;201.0;-0.168542;-0.057751
1.23;3.5;4.25;1.0;3.5;0.25;1.0;0.0;0.75;0.25;1.0;1.0;1.0;0.5;0.5;0.0;0.5;-0.197754;0.040039;0.98291;-1.4;2.59;0.98;179.0;-0.18195;-0.113997;4.0;4.25;3.0;3.5;0.75;1.0;0.0;0.5;0.75;1.5;0.75;0.5;0.25;0.5;0.5;0.25;-0.224609;-0.009277;0.98584;-0.98;-0.28;0.56;211.0;-0.181103;-0.056192
1.24;3.5;4.0;1.25;3.5;0.25;1.25;0.0;0.5;0.25;1.0;0.5;0.75;0.25;0.75;0.25;0.5;-0.196289;0.03125;0.984375;-1.33;2.73;1.05;174.0;-0.189128;-0.096826;4.0;4.25;2.5;2.75;1.0;1.0;0.0;0.5;0.75;1.5;1.0;0.5;0.25;0.75;0.5;0.5;-0.219727;-0.012695;0.983887;-0.77;-0.28;0.63;207.0;-0.160853;-0.05225
1.25;2.5;4.0;1.25;3.25;0.25;1.0;0.0;0.5;0.25;1.25;0.5;0.5;0.25;0.25;0.5;0.5;-0.203613;0.040527;0.984863;-1.26;2.8;1.05;158.0;-0.180676;-0.105458;3.75;4.25;2.5;2.5;1.25;1.0;0.0;0.5;0.75;1.5;0.75;0.25;0.5;0.75;0.75;0.5;-0.224121;-0.007812;0.982422;-0.84;-0.35;0.77;204.0;-0.154994;-0.051326
1.26;3.25;4.0;0.75;2.5;0.25;0.75;0.0;0.5;0.25;1.25;0.25;0.5;0.5;0.25;0.25;0.5;-0.197266;0.033691;0.982422;-1.12;2.8;1.05;147.0;-0.19502;-0.097969;3.75;4.25;3.0;2.5;1.25;1.25;0.0;1.25;0.75;1.5;1.0;0.5;0.5;0.75;0.5;0.5;-0.227539;-0.010742;0.986328;-0.84;-0.28;0.77;224.0;-0.148916;-0.069411
1.27;3.5;4.0;0.75;2.75;0.5;0.75;0.0;0.75;0.5;1.25;0.5;1.0;0.5;0.5;0.0;0.5;-0.206055;0.036133;0.979492;-1.12;2.87;0.98;168.0;-0.170418;-0.096969;4.0;4.5;3.25;3.0;1.25;1.5;0.0;1.0;0.75;1.5;0.75;0.75;0.5;0.75;0.5;0.5;-0.226562;-0.005859;0.987793;-0.7;-0.49;0.77;235.0;-0.160292;-0.069311
1.28;3.5;4.0;1.0;3.0;0.5;1.25;0.0;0.5;0.5;0.5;0.5;1.25;0.5;0.5;0.25;0.5;-0.20166;0.036621;0.98584;-1.05;3.15;1.05;172.0;-0.179824;-0.104452;4.0;4.25;2.5;3.5;1.25;1.5;0.0;0.75;0.75;1.5;1.0;0.75;0.75;0.75;0.25;0.5;-0.22168;-0.005859;0.981934;-0.77;-0.49;0.84;229.0;-0.158527;-0.076005
1.29;3.5;4.0;1.0;3.0;0.25;1.25;0.0;0.5;0.5;0.5;0.5;1.0;0.75;0.25;0.0;0.5;-0.199707;0.040527;0.984863;-1.05;3.08;0.98;165.0;-0.197758;-0.112179;4.0;4.5;2.5;3.5;1.25;1.0;0.0;0.75;0.25;1.5;1.25;0.75;0.25;1.25;0.25;0.75;-0.22168;-0.010254;0.989258;-0.7;-0.49;0.7;224.0;-0.161063;-0.072298
1.3;3.75;4.0;0.75;2.5;0.0;1.0;0.0;0.75;0.5;0.5;0.25;0.5;0.5;0.25;0.25;0.5;-0.20166;0.041016;0.98877;-0.98;3.01;0.98;151.0;-0.20942;-0.104046;3.75;4.5;3.0;3.0;1.5;0.75;0.0;1.0;0.5;1.75;1.25;0.5;0.25;0.75;0.5;0.75;-0.229004;-0.012207;0.979004;-0.63;-0.49;0.77;226.0;-0.153537;-0.06441
1.31;2.75;3.75;1.0;2.5;0.25;1.0;0.0;0.5;0.25;0.5;0.5;0.5;0.5;0.25;0.0;0.5;-0.200195;0.035645;0.981934;-1.12;3.15;0.98;138.0;-0.210766;-0.112657;3.75;4.5;3.0;3.25;1.5;1.0;0.0;0.75;0.0;1.5;1.25;0.5;0.5;0.75;0.75;1.0;-0.22998;-0.008301;0.98877;-0.63;-0.49;0.7;225.0;-0.160528;-0.078894
1.32;2.25;3.75;1.25;3.0;0.5;0.5;0.0;0.5;0.25;0.75;1.0;0.75;0.5;0.25;0.5;0.5;-0.203125;0.035156;0.979492;-1.19;2.87;0.91;153.0;-0.161898;-0.111033;4.0;4.5;3.25;3.5;1.5;1.0;0.25;1.25;0.25;1.5;1.0;0.75;0.5;1.0;0.5;0.75;-0.225586;-0.012695;0.986816;-0.7;-0.42;0.7;244.0;-0.156354;-0.075304
1.33;2.5;4.0;1.25;2.75;0.5;0.5;0.0;0.75;0.25;1.25;0.75;0.75;0.5;0.5;0.5;0.75;-0.200684;0.03418;0.984863;-1.12;2.94;0.91;164.0;-0.146723;-0.105734;3.75;4.5;3.25;3.0;1.5;1.25;0.0;0.75;0.5;1.5;1.25;0.75;0.5;1.25;0.5;0.25;-0.222656;-0.012207;0.985352;-0.7;-0.42;0.77;234.0;-0.15038;-0.062676
1.34;2.75;2.75;1.25;3.0;0.5;0.25;0.0;0.75;0.0;1.25;0.5;0.75;0.5;0.5;0.25;0.5;-0.20752;0.039062;0.982422;-1.19;2.87;0.91;147.0;-0.161555;-0.103348;3.75;4.5;3.0;3.0;1.25;1.5;0.0;0.75;0.5;1.5;1.25;0.75;0.75;1.25;0.5;0.25;-0.226562;-0.010254;0.983398;-0.63;-0.42;0.56;233.0;-0.146677;-0.071326
1.35;3.0;3.0;1.25;3.0;0.5;0.25;0.0;0.75;0.5;1.25;1.25;1.0;0.5;0.75;0.25;0.5;-0.196289;0.033691;0.985352;-1.19;2.87;0.98;169.0;-0.124867;-0.087786;4.0;4.25;3.25;3.5;1.25;1.5;0.0;0.75;0.75;1.75;1.25;0.75;0.75;1.25;0.5;0.5;-0.224121;-0.009277;0.988281;-0.77;-0.49;0.7;248.0;-0.139771;-0.066
1.36;3.5;3.5;1.25;3.0;0.25;0.75;0.0;0.5;0.5;1.5;1.5;1.25;0.5;0.5;0.5;0.5;-0.202637;0.039062;0.990234;-1.19;2.94;0.91;184.0;-0.126622;-0.089686;3.75;4.25;3.25;3.75;1.5;1.0;0.0;0.75;0.75;1.5;0.5;0.75;0.75;1.25;0.5;0.5;-0.222656;-0.010742;0.986328;-0.7;-0.35;0.77;236.0;-0.153251;-0.063515
1.37;3.0;2.75;1.25;2.25;0.25;0.5;0.0;0.5;0.25;1.0;1.5;1.25;0.5;0.5;0.5;0.5;-0.197754;0.035156;0.982422;-1.12;2.94;0.98;156.0;-0.116829;-0.094856;4.0;4.5;3.0;3.75;1.75;0.75;0.0;0.75;0.75;1.5;0.5;0.75;0.75;1.25;0.5;0.5;-0.223145;-0.010254;0.98584;-0.77;-0.21;0.7;238.0;-0.15658;-0.060839
1.38;2.75;2.5;1.25;2.25;0.25;0.5;0.25;0.5;0.25;1.25;1.25;1.25;0.5;0.75;0.25;0.5;-0.202637;0.037598;0.979492;-1.19;2.8;1.05;154.0;-0.105185;-0.083342;4.0;4.5;3.25;3.5;1.5;0.75;0.0;1.0;0.75;1.0;0.5;0.5;0.75;1.5;0.5;0.75;-0.228516;-0.013184;0.984375;-0.63;-0.21;0.63;235.0;-0.15888;-0.063135
1.39;1.75;3.25;1.25;2.25;0.25;0.5;0.25;0.5;0.25;1.25;1.25;1.0;0.25;0.75;0.0;0.25;-0.204102;0.033203;0.985352;-1.19;2.66;0.98;143.0;-0.121066;-0.088884;3.75;4.5;3.25;3.25;1.75;1.0;0.0;1.25;0.75;2.0;0.25;0.5;0.5;1.25;0.5;0.25;-0.225586;-0.009277;0.97998;-0.56;-0.21;0.84;239.0;-0.15335;-0.05924
1.4;1.5;3.5;1.25;2.5;0.25;0.5;0.25;0.5;0.25;1.25;0.75;0.75;0.25;0.5;0.0;0.25;-0.199707;0.038574;0.98584;-1.33;2.38;1.05;136.0;-0.149548;-0.095243;3.75;4.0;2.25;3.25;1.5;1.0;0.0;1.0;0.25;2.0;0.5;0.75;0.5;1.0;0.75;0.25;-0.231445;-0.010254;0.983398;-0.42;-0.14;0.77;218.0;-0.14752;-0.074992
1.41;1.75;3.25;0.5;2.5;0.5;0.5;0.0;0.5;0.5;1.25;0.5;0.75;0.25;0.25;0.0;0.5;-0.20459;0.03418;0.981934;-1.33;2.24;1.05;127.0;-0.149829;-0.104778;3.75;4.25;2.5;3.5;1.5;1.25;0.0;0.75;0.25;1.75;0.5;0.75;0.5;1.0;0.75;0.5;-0.223633;-0.01123;0.987793;-0.63;-0.21;0.63;223.0;-0.156439;-0.075744
1.42;2.0;3.5;0.5;2.75;0.5;0.5;0.0;0.5;0.5;1.25;0.75;1.0;0.25;0.5;0.0;0.25;-0.202148;0.038086;0.982422;-1.26;2.17;1.05;140.0;-0.14469;-0.101917;3.5;4.25;2.5;3.5;1.5;1.5;0.0;1.0;0.25;1.75;0.75;0.75;0.5;1.25;0.75;0.5;-0.227539;-0.012695;0.980957;-0.56;-0.35;0.77;231.0;-0.142921;-0.08279
1.43;2.5;3.5;0.5;3.5;0.5;0.5;0.25;0.5;0.5;1.25;0.75;1.0;0.5;0.75;0.25;0.25;-0.199219;0.036133;0.98877;-1.4;2.24;0.98;162.0;-0.135227;-0.094824;2.75;4.5;2.75;3.25;1.5;1.5;0.0;1.25;0.25;2.0;0.75;0.5;0.75;1.25;0.75;0.5;-0.224609;-0.012695;0.981445;-0.56;-0.28;0.56;231.0;-0.13228;-0.090169
1.44;3.0;3.75;0.75;3.5;0.5;0.5;0.25;0.5;0.5;1.25;0.5;1.0;0.5;0.75;0.5;0.5;-0.20166;0.037598;0.989746;-1.33;2.31;0.98;173.0;-0.141769;-0.0885;3.75;4.25;2.75;2.75;1.0;1.0;0.0;1.25;0.5;1.75;0.75;0.5;0.5;1.25;0.75;0.5;-0.226562;-0.008301;0.984863;-0.56;-0.42;0.7;222.0;-0.138798;-0.070686
1.45;2.75;3.75;0.5;2.25;0.5;1.0;0.25;0.5;0.5;1.25;0.5;1.0;0.5;1.0;0.5;0.25;-0.20459;0.037598;0.989746;-1.4;2.1;1.12;161.0;-0.122087;-0.084319;4.25;4.5;2.75;3.75;0.75;1.0;0.0;1.25;0.5;1.0;1.25;0.5;0.25;1.0;0.25;0.5;-0.223145;-0.010742;0.977539;-0.77;-0.35;0.63;226.0;-0.177136;-0.079797
1.46;2.5;3.5;0.5;3.5;0.5;1.0;0.0;0.5;0.5;1.5;1.25;1.0;0.5;0.5;0.0;0.5;-0.201172;0.037109;0.979492;-1.33;2.24;1.05;168.0;-0.135074;-0.110467;4.25;4.5;3.0;3.5;1.0;1.25;0.0;1.25;0.75;1.0;0.75;0.75;0.25;1.0;0.5;0.75;-0.229492;-0.010742;0.982422;-0.77;-0.35;0.63;235.0;-0.165966;-0.075184
1.47;3.5;4.0;0.75;2.75;0.5;0.75;0.0;0.75;0.5;1.75;1.0;1.0;0.25;0.25;0.0;0.5;-0.199219;0.037109;0.985352;-1.26;2.24;1.12;173.0;-0.158668;-0.091974;3.5;4.5;3.0;3.5;1.25;1.25;0.0;1.25;0.75;1.5;0.5;0.75;0.25;1.25;0.5;0.25;-0.225586;-0.008301;0.981445;-0.77;-0.35;0.63;232.0;-0.154781;-0.071379
1.48;2.5;4.0;1.0;2.25;0.5;0.75;0.25;0.75;0.5;2.0;1.0;1.25;0.25;0.5;0.25;0.5;-0.205566;0.040039;0.985352;-1.33;2.45;1.05;174.0;-0.113608;-0.08724;4.0;4.5;3.25;3.0;1.25;1.25;0.0;1.25;0.75;1.5;1.0;0.75;0.5;1.25;0.75;0.25;-0.227051;-0.009766;0.974609;-0.7;-0.28;0.7;244.0;-0.142332;-0.067209
1.49;2.25;4.0;1.0;2.5;0.5;0.75;0.25;0.75;0.5;1.25;1.25;0.5;0.5;0.25;0.25;0.5;-0.201172;0.034668;0.98877;-1.26;2.24;1.12;162.0;-0.139871;-0.097797;4.0;4.5;3.0;2.75;1.5;1.5;0.0;1.25;0.75;1.5;0.75;0.75;0.5;1.25;0.0;0.25;-0.223145;-0.013184;0.988281;-0.77;-0.28;0.56;234.0;-0.160137;-0.067072
1.5;2.75;3.5;0.75;2.75;0.5;0.75;0.25;0.75;0.5;1.0;1.0;0.5;0.5;0.25;0.5;0.5;-0.204102;0.033691;0.984375;-1.47;2.1;1.12;160.0;-0.143555;-0.096761;3.75;4.5;3.0;2.75;1.25;1.5;0.0;1.25;0.75;1.75;0.75;0.75;0.5;1.25;0.0;0.25;-0.222168;-0.009277;0.982422;-0.84;-0.35;0.7;232.0;-0.153914;-0.068919
1.51;2.75;3.5;0.75;3.25;0.5;1.25;0.25;0.75;0.5;1.25;0.5;1.25;0.5;0.25;0.0;0.5;-0.19873;0.038574;0.983887;-1.54;2.03;1.05;170.0;-0.153723;-0.111757;3.5;4.25;2.5;3.25;1.0;1.75;0.0;1.25;0.75;1.5;1.0;0.75;0.5;1.5;0.25;0.5;-0.228027;-0.008301;0.982422;-0.63;-0.42;0.77;233.0;-0.136499;-0.081497
1.52;2.75;4.0;1.0;3.25;0.5;1.25;0.25;0.75;0.75;1.25;1.0;0.5;0.25;0.5;0.0;0.75;-0.200195;0.037109;0.981934;-1.47;2.17;1.05;179.0;-0.152981;-0.090726;4.0;4.25;3.0;3.25;1.25;1.5;0.0;1.25;0.75;1.5;1.25;0.75;0.5;1.25;0.25;0.25;-0.223633;-0.013672;0.992188;-0.77;-0.42;0.7;242.0;-0.147588;-0.071939
1.53;2.5;4.0;1.0;3.5;0.5;1.25;0.25;0.75;0.5;1.25;1.25;0.5;0.5;0.5;0.0;0.5;-0.201172;0.03418;0.988281;-1.47;2.24;1.05;179.0;-0.153322;-0.104258;3.5;4.25;3.0;3.25;1.0;1.5;0.0;1.0;0.75;1.5;0.75;0.75;0.5;1.25;0.5;0.25;-0.229004;-0.009766;0.986816;-0.77;-0.56;0.77;229.0;-0.146558;-0.07147
1.54;2.75;4.0;0.75;3.0;0.5;1.25;0.25;0.75;0.5;2.75;1.5;0.25;0.5;0.5;0.0;0.5;-0.199219;0.029785;0.982422;-1.54;2.45;0.98;188.0;-0.121311;-0.085928;4.0;4.25;3.25;3.25;1.0;1.5;0.0;1.0;0.5;2.0;0.75;0.75;0.5;1.25;0.25;0.5;-0.221191;-0.008789;0.977539;-0.63;-0.49;0.7;236.0;-0.153276;-0.068947
1.55;3.75;4.0;0.75;3.25;0.5;1.25;0.25;1.0;0.25;1.75;1.25;0.5;0.5;0.5;0.25;0.5;-0.202637;0.038574;0.979004;-1.33;2.31;1.05;194.0;-0.152517;-0.098828;3.5;4.5;3.25;3.25;1.25;1.75;0.0;1.0;0.75;2.0;1.0;0.75;0.75;1.5;0.25;0.5;-0.226074;-0.010742;0.984375;-0.63;-0.42;0.77;248.0;-0.134797;-0.071418
1.56;3.5;4.0;1.0;3.0;0.5;1.25;0.25;1.0;0.25;1.25;1.25;0.5;0.25;0.75;0.0;0.5;-0.199707;0.039551;0.977051;-1.4;2.52;1.05;184.0;-0.164018;-0.094729;4.0;4.5;3.0;3.5;1.25;1.0;0.0;1.0;0.75;1.5;0.75;0.75;0.25;1.25;0.5;0.5;-0.231445;-0.013184;0.987793;-0.42;-0.42;0.63;235.0;-0.155306;-0.062601
1.57;4.0;4.0;1.25;3.25;0.5;1.25;0.25;0.75;0.25;1.75;0.75;0.25;0.5;0.75;0.25;0.5;-0.201172;0.030762;0.982422;-1.19;2.45;1.12;192.0;-0.16936;-0.080275;4.25;4.5;3.25;3.5;1.25;1.0;0.0;1.25;0.75;1.5;1.0;0.75;0.25;1.25;0.5;0.5;-0.224609;-0.005371;0.98291;-0.35;-0.28;0.63;245.0;-0.1531;-0.064551
1.58;3.75;4.0;1.25;2.75;0.5;1.25;0.25;0.75;0.25;1.5;0.75;0.5;0.5;0.75;0.0;0.5;-0.205566;0.037598;0.986328;-1.26;2.45;1.12;182.0;-0.171048;-0.083453;4.25;4.5;3.25;3.5;1.0;1.25;0.0;1.0;0.75;1.5;1.5;0.75;0.25;1.25;0.75;0.75;-0.223145;-0.01123;0.989746;-0.28;-0.35;0.7;250.0;-0.140112;-0.065733
1.59;2.75;4.0;0.75;2.75;0.5;1.25;0.0;0.5;0.5;1.25;0.5;0.5;0.5;1.0;0.0;0.5;-0.201172;0.039551;0.984375;-1.26;2.66;1.05;161.0;-0.160233;-0.092509;4.25;4.5;2.75;3.5;1.0;0.75;0.0;1.0;0.75;1.25;1.5;0.5;0.5;1.25;0.25;0.75;-0.224121;-0.011719;0.98291;-0.42;-0.21;0.7;233.0;-0.153318;-0.066697
1.6;2.75;4.0;0.75;3.5;0.75;0.75;0.0;0.5;0.25;1.25;0.75;1.0;0.25;0.5;0.0;0.75;-0.205078;0.036133;0.985352;-1.19;2.66;1.12;166.0;-0.170462;-0.10723;4.0;4.5;2.5;3.25;1.25;1.0;0.0;1.0;0.5;1.25;1.25;0.5;0.5;0.75;0.0;0.75;-0.230469;-0.010254;0.983398;-0.28;-0.21;0.7;219.0;-0.173497;-0.077808
1.61;2.25;3.5;0.5;3.25;0.75;1.0;0.0;0.5;0.25;1.5;1.25;0.5;0.5;0.5;0.0;0.75;-0.197266;0.04541;0.987305;-1.05;2.59;1.19;159.0;-0.142449;-0.112441;4.0;4.5;2.75;3.25;1.25;1.0;0.0;1.0;0.5;2.0;1.25;0.75;0.5;0.75;0.25;0.5;-0.224121;-0.008301;0.97998;-0.35;-0.28;0.7;232.0;-0.154615;-0.072649
1.62;2.25;3.25;0.25;3.0;0.5;1.25;0.0;0.5;0.5;1.5;1.25;0.5;0.5;0.75;0.25;0.5;-0.200684;0.037109;0.982422;-1.26;2.45;1.12;158.0;-0.116009;-0.105505;4.0;4.25;2.5;3.5;1.25;1.0;0.0;1.25;0.5;1.75;1.5;0.25;0.5;1.0;0.0;0.75;-0.225586;-0.008789;0.982422;-0.42;-0.21;0.63;229.0;-0.156329;-0.076356
1.63;2.5;3.75;0.5;3.0;0.75;1.0;0.25;0.75;0.25;1.25;1.0;1.0;0.75;0.5;0.5;0.25;-0.204102;0.035156;0.987793;-1.26;2.59;1.12;172.0;-0.128943;-0.114673;3.75;4.25;2.75;3.25;1.5;1.5;0.0;1.25;0.75;1.75;1.5;0.5;0.75;0.75;0.25;0.75;-0.225098;-0.007324;0.978027;-0.42;-0.21;0.7;242.0;-0.140845;-0.080622
1.64;2.0;4.0;1.0;3.0;0.75;1.0;0.25;0.75;0.5;1.25;1.0;1.0;0.5;0.5;0.5;0.5;-0.20459;0.031738;0.980957;-1.19;2.66;1.19;177.0;-0.122349;-0.106277;4.0;4.5;3.0;3.25;1.25;1.25;0.0;1.0;0.75;1.5;1.5;0.75;0.5;0.5;0.25;0.5;-0.224609;-0.013184;0.982422;-0.42;-0.28;0.7;236.0;-0.159383;-0.073872
1.65;2.25;3.75;0.75;3.0;0.5;1.25;0.25;0.75;0.5;1.25;1.5;1.0;0.5;0.75;0.25;0.25;-0.20166;0.035645;0.981934;-1.26;2.66;1.12;177.0;-0.116243;-0.106225;4.25;4.5;3.25;3.25;1.0;1.5;0.0;1.25;0.75;1.5;0.5;0.5;0.5;0.5;0.25;0.5;-0.220215;-0.006348;0.98584;-0.35;-0.35;0.7;232.0;-0.180869;-0.074533
1.66;2.25;3.5;0.25;2.5;0.5;1.25;0.25;0.5;0.5;1.5;0.75;1.0;0.5;1.0;0.25;0.5;-0.202148;0.03418;0.983887;-1.26;2.52;1.12;160.0;-0.104307;-0.096945;3.75;4.5;3.25;3.25;1.0;1.25;0.0;1.25;0.5;1.5;0.5;0.5;0.5;0.75;0.25;0.25;-0.229492;-0.003906;0.981445;-0.35;-0.49;0.77;222.0;-0.180168;-0.077357
1.67;2.25;3.5;0.5;2.25;0.25;0.75;0.25;0.75;0.5;1.75;0.75;0.5;0.5;0.5;0.5;0.5;-0.194824;0.036133;0.980469;-1.26;2.66;1.05;152.0;-0.109656;-0.093309;4.0;4.5;3.25;3.25;1.25;1.25;0.0;1.25;0.5;1.0;0.75;0.75;0.5;1.0;0.5;0.5;-0.223633;-0.01123;0.982422;-0.35;-0.28;0.7;233.0;-0.168274;-0.078689
1.68;2.75;3.5;0.75;2.75;0.25;0.75;0.25;0.5;0.5;1.25;1.0;0.5;0.5;0.5;0.5;0.5;-0.207031;0.03125;0.984375;-1.4;2.66;1.19;159.0;-0.134118;-0.087012;4.0;4.25;2.75;3.5;0.75;1.0;0.0;1.0;0.5;1.0;1.0;0.75;0.5;0.75;0.75;0.75;-0.226562;-0.009766;0.986328;-0.42;-0.42;0.77;221.0;-0.160227;-0.083492
1.69;3.5;3.75;1.0;2.75;0.0;1.0;0.25;0.75;0.25;1.25;1.25;0.5;0.5;0.75;0.5;0.75;-0.201172;0.033691;0.981445;-1.4;2.52;1.12;176.0;-0.140391;-0.093455;4.0;4.25;2.75;3.5;0.75;1.0;0.0;1.25;0.75;1.5;0.75;0.75;0.5;0.75;0.75;0.75;-0.230957;-0.007812;0.984375;-0.35;-0.42;0.77;230.0;-0.148313;-0.080113
1.7;2.5;2.75;0.5;2.75;0.0;1.0;0.25;0.75;0.25;1.5;1.5;0.75;0.25;0.75;0.5;0.5;-0.202637;0.033203;0.980957;-1.26;2.31;1.12;157.0;-0.096969;-0.102314;4.0;4.5;3.0;2.75;1.25;1.0;0.0;1.25;0.75;1.5;0.75;0.75;0.5;1.0;0.75;0.75;-0.228027;-0.009277;0.984863;-0.35;-0.42;0.77;234.0;-0.14236;-0.069211
1.71;2.0;3.5;0.5;2.25;0.0;1.0;0.25;0.5;0.5;1.25;1.25;0.5;0.25;1.0;0.25;0.5;-0.196289;0.038574;0.987305;-1.26;2.45;1.12;146.0;-0.106464;-0.088962;2.75;4.75;3.0;3.0;1.25;1.25;0.0;1.0;0.75;1.5;1.0;0.75;0.75;0.75;0.75;0.75;-0.229492;-0.009277;0.986328;-0.42;-0.42;0.7;229.0;-0.133216;-0.084366
1.72;2.0;3.75;0.75;2.0;0.5;0.75;0.25;0.5;0.5;1.25;1.25;0.75;0.5;0.5;0.5;0.25;-0.211426;0.038086;0.979492;-1.26;2.38;1.12;152.0;-0.110695;-0.089883;4.0;3.75;3.25;3.25;0.75;1.5;0.0;1.0;0.75;1.5;1.0;0.75;0.25;1.0;0.75;0.25;-0.226562;-0.010254;0.988281;-0.35;-0.49;0.77;230.0;-0.146247;-0.064997
1.73;1.75;3.5;0.75;2.25;0.5;0.75;0.25;0.5;0.5;1.25;1.25;1.0;0.5;0.75;0.75;0.25;-0.200195;0.030762;0.98584;-1.33;2.24;1.19;157.0;-0.08563;-0.093729;4.0;3.75;3.25;3.5;0.75;1.5;0.0;1.0;0.5;1.5;1.25;0.75;0.25;1.25;0.5;0.25;-0.224121;-0.007324;0.980957;-0.42;-0.35;0.7;231.0;-0.150196;-0.069419
1.74;2.25;3.25;1.0;2.0;0.0;0.75;0.25;0.5;0.5;1.75;1.25;1.25;0.5;0.5;0.25;0.5;-0.210449;0.036621;0.987305;-1.4;2.45;1.05;156.0;-0.09265;-0.090327;4.0;4.25;3.25;3.0;1.25;1.75;0.0;1.0;0.5;1.5;1.5;0.75;0.5;1.25;0.5;0.5;-0.227051;-0.007812;0.982422;-0.42;-0.49;0.7;244.0;-0.142551;-0.072188
1.75;2.75;3.5;1.25;2.25;0.0;0.75;0.25;0.75;0.25;1.75;1.0;1.25;0.25;0.25;0.0;0.5;-0.200195;0.033691;0.989258;-1.26;2.24;1.12;160.0;-0.138454;-0.09643;4.25;4.5;2.75;3.0;1.0;1.0;0.0;1.0;0.75;1.5;1.5;0.75;0.75;1.0;0.25;0.25;-0.226074;-0.007324;0.982422;-0.49;-0.42;0.63;232.0;-0.150126;-0.069319
1.76;2.75;4.0;1.25;2.5;0.25;0.5;0.25;0.5;0.0;1.75;1.25;0.5;0.25;0.5;0.0;0.5;-0.20166;0.036133;0.98291;-1.4;2.38;1.05;157.0;-0.161732;-0.083295;4.5;4.5;3.0;3.0;1.0;0.75;0.0;0.75;0.5;1.5;1.5;0.75;0.5;1.0;0.25;0.25;-0.225586;-0.007812;0.989258;-0.35;-0.56;0.7;226.0;-0.164352;-0.059569
1.77;3.0;4.0;1.25;2.75;0.25;0.5;0.25;0.5;0.5;1.75;1.25;0.5;0.5;0.5;0.25;0.75;-0.204102;0.032715;0.979004;-1.26;2.31;1.12;174.0;-0.136985;-0.076385;4.25;4.5;3.25;3.5;1.0;1.0;0.0;0.75;0.5;1.5;1.5;0.75;0.5;1.0;0.5;0.5;-0.233398;-0.007324;0.985352;-0.49;-0.42;0.63;238.0;-0.156972;-0.066929
1.78;2.75;4.0;0.5;3.0;0.25;0.5;0.25;0.5;0.5;0.75;1.25;0.75;0.25;0.5;0.25;0.75;-0.20166;0.034668;0.981934;-1.19;2.24;1.05;157.0;-0.150539;-0.096578;4.25;4.5;3.25;3.5;1.25;1.25;0.0;1.0;0.5;1.25;1.25;0.75;0.75;1.0;0.5;0.75;-0.231445;-0.008301;0.98877;-0.35;-0.49;0.63;245.0;-0.156852;-0.077587
1.79;2.75;4.0;0.75;3.0;0.5;0.75;0.25;0.5;0.5;0.75;1.25;1.0;0.5;0.75;0.5;0.75;-0.202148;0.037598;0.981445;-1.33;2.03;1.05;174.0;-0.12912;-0.097763;4.25;4.5;3.25;3.5;1.25;1.25;0.0;1.0;0.0;1.25;1.5;1.0;0.75;1.0;0.5;0.5;-0.219727;-0.003418;0.98584;-0.42;-0.42;0.77;242.0;-0.162302;-0.087614
1.8;2.0;3.75;0.75;3.0;0.25;0.75;0.25;0.5;0.5;1.25;1.25;0.5;0.25;0.75;0.0;0.5;-0.209961;0.034668;0.982422;-1.33;2.45;1.12;154.0;-0.136454;-0.091774;4.5;4.5;3.25;3.5;1.25;1.5;0.0;1.25;0.0;1.5;0.75;1.25;0.5;1.0;0.5;0.75;-0.228516;-0.008789;0.981445;-0.42;-0.56;0.7;248.0;-0.166211;-0.089745
1.81;2.0;3.5;0.75;3.25;0.25;0.75;0.25;0.5;0.5;1.25;1.5;1.0;0.0;0.75;0.0;0.5;-0.19873;0.037109;0.98291;-1.26;2.45;1.12;159.0;-0.123063;-0.094792;4.0;4.5;3.25;3.0;1.25;0.75;0.0;1.25;0.25;1.5;0.75;0.75;0.5;1.0;0.5;0.5;-0.228516;-0.009766;0.985352;-0.49;-0.35;0.77;227.0;-0.164345;-0.074488
1.82;3.5;3.5;1.0;3.0;0.25;0.75;0.0;0.5;0.5;1.0;1.25;1.25;0.25;0.5;0.0;0.5;-0.19873;0.040039;0.981934;-1.26;2.45;1.12;168.0;-0.158835;-0.092183;4.0;4.5;3.25;2.5;1.25;0.5;0.0;1.25;0.5;1.5;1.0;0.5;0.75;0.5;0.25;0.5;-0.224121;-0.009766;0.983398;-0.42;-0.49;0.7;218.0;-0.169322;-0.069962
1.83;3.5;3.75;1.0;2.5;0.5;1.0;0.0;0.5;0.25;1.25;1.0;1.0;0.5;0.5;0.5;0.5;-0.198242;0.033691;0.979492;-1.19;2.52;1.19;171.0;-0.150125;-0.094641;3.75;4.5;3.25;3.5;1.25;1.0;0.0;1.25;0.25;1.5;1.0;0.5;0.75;0.5;0.5;0.5;-0.228516;-0.008789;0.987793;-0.42;-0.28;0.77;230.0;-0.171184;-0.087526
1.84;3.0;3.75;1.25;2.25;0.5;0.75;0.0;0.5;0.5;1.25;1.25;1.0;0.25;0.5;0.25;0.75;-0.202148;0.037598;0.980469;-1.19;2.45;1.26;166.0;-0.137952;-0.084069;4.0;4.5;2.75;3.5;1.25;1.0;0.0;1.25;0.25;1.5;1.25;0.75;0.75;1.0;0.25;0.5;-0.23291;-0.008789;0.98584;-0.42;-0.35;0.7;234.0;-0.159719;-0.087463
1.85;2.75;3.5;1.25;2.5;0.25;0.75;0.0;0.5;0.25;1.25;1.25;1.25;0.25;0.75;0.0;0.75;-0.203125;0.040527;0.978516;-1.12;2.66;0.98;161.0;-0.136571;-0.096995;4.0;4.25;3.0;3.0;1.25;0.5;0.0;1.0;0.5;1.5;1.5;0.75;0.5;1.0;0.25;0.5;-0.225098;-0.010254;0.986816;-0.42;-0.35;0.91;224.0;-0.151365;-0.064966
1.86;2.75;3.5;0.25;2.25;0.0;0.75;0.0;0.5;0.0;1.25;1.75;1.0;0.5;0.25;0.5;0.75;-0.19873;0.038086;0.981445;-1.19;2.45;1.19;148.0;-0.119759;-0.126955;4.0;4.5;3.0;3.0;1.0;0.75;0.0;1.0;0.5;1.5;1.5;0.75;0.5;1.0;0.5;0.5;-0.22168;-0.009766;0.982422;-0.35;-0.49;0.98;229.0;-0.148206;-0.069724
1.87;2.5;3.75;0.0;2.5;0.25;1.0;0.25;0.5;0.25;1.25;1.25;1.0;0.5;0.25;0.25;0.5;-0.202637;0.032715;0.984863;-1.19;2.38;1.12;151.0;-0.13172;-0.118771;3.75;4.25;2.75;3.25;1.25;0.75;0.0;1.0;0.25;1.5;1.5;0.5;0.75;1.25;0.0;0.75;-0.225098;-0.005371;0.985352;-0.49;-0.35;0.77;222.0;-0.153683;-0.077447
1.88;2.5;4.0;0.5;2.75;0.5;1.25;0.25;0.5;0.5;1.25;1.0;0.5;0.5;0.75;0.5;0.5;-0.196777;0.035645;0.986816;-1.12;2.59;1.12;167.0;-0.129439;-0.094674;4.0;4.5;2.75;3.5;1.25;1.0;0.0;1.25;0.0;1.5;1.5;0.5;0.75;1.5;0.0;0.5;-0.228027;-0.007812;0.98291;-0.63;-0.42;0.77;232.0;-0.161204;-0.085855
1.89;2.75;4.0;1.0;3.0;0.25;0.75;0.25;0.5;0.5;1.25;1.0;0.5;0.5;0.5;0.5;0.5;-0.203125;0.032227;0.987305;-0.98;2.59;1.19;168.0;-0.14549;-0.088375;4.0;4.75;3.25;3.0;1.25;1.25;0.0;1.25;0.5;1.5;1.25;0.75;0.5;1.25;0.25;0.5;-0.223633;-0.006836;0.983398;-0.56;-0.21;0.77;242.0;-0.154399;-0.073758
1.9;3.25;4.0;0.75;2.25;0.0;0.5;0.25;0.5;0.75;1.25;1.0;0.5;0.75;0.5;0.25;0.5;-0.199219;0.03418;0.981934;-1.12;2.73;1.05;160.0;-0.141638;-0.076406;4.0;4.5;3.25;3.0;1.25;1.0;0.0;1.0;0.5;1.5;1.0;1.0;0.5;1.25;0.25;0.75;-0.229492;-0.006348;0.986816;-0.49;-0.07;0.84;235.0;-0.151584;-0.069237
1.91;2.75;4.0;0.75;2.25;0.0;0.5;0.25;0.5;0.25;1.5;1.25;0.5;0.5;0.5;0.0;0.5;-0.20166;0.039551;0.983398;-0.98;2.59;1.12;150.0;-0.150323;-0.089459;4.0;4.5;3.0;3.0;1.0;1.0;0.0;1.0;0.25;1.5;1.25;1.0;0.25;1.0;0.5;0.75;-0.225586;-0.007812;0.981934;-0.42;0.0;0.84;228.0;-0.153713;-0.07628
1.92;3.0;4.0;1.0;2.5;0.0;0.5;0.25;0.5;0.0;1.25;1.0;0.5;0.5;0.25;0.5;0.75;-0.196289;0.037109;0.98291;-0.98;2.59;1.19;154.0;-0.16369;-0.099684;4.25;4.25;2.75;3.0;1.0;1.5;0.0;1.25;0.25;1.5;0.5;0.75;0.25;0.75;0.75;0.75;-0.227051;-0.008301;0.988281;-0.42;-0.07;0.84;225.0;-0.16531;-0.083254
1.93;2.75;4.0;0.5;2.25;0.0;0.75;0.25;0.5;0.5;1.25;1.0;0.0;0.5;0.5;0.25;0.5;-0.19873;0.03418;0.986816;-1.12;2.73;1.05;146.0;-0.155202;-0.083365;4.0;4.25;2.75;3.25;1.0;1.25;0.0;1.25;0.5;1.5;0.5;0.75;0.5;1.0;0.75;1.0;-0.226562;-0.012207;0.983887;-0.49;-0.21;0.7;231.0;-0.148223;-0.082389
1.94;2.5;2.75;0.5;2.5;0.0;1.0;0.25;0.5;0.5;1.25;1.0;0.0;0.5;0.5;0.0;0.5;-0.202148;0.036621;0.979492;-1.05;2.66;1.12;135.0;-0.142958;-0.08642;4.0;4.25;2.75;3.25;1.25;0.5;0.0;1.25;0.5;1.75;0.75;0.5;0.25;0.5;0.75;0.25;-0.229004;-0.009766;0.985352;-0.42;-0.14;0.84;218.0;-0.165095;-0.067858
1.95;2.75;3.5;1.0;2.0;0.25;0.25;0.25;0.5;0.0;1.25;1.0;0.25;0.5;0.5;0.5;0.5;-0.202148;0.037109;0.982422;-1.05;2.59;1.19;140.0;-0.150194;-0.081647;4.0;4.25;2.5;3.25;1.0;0.5;0.0;1.0;0.5;2.0;0.75;0.75;0.25;0.5;0.5;0.25;-0.224121;-0.008789;0.983887;-0.56;-0.49;0.84;212.0;-0.164578;-0.066921
1.96;1.75;3.5;0.75;2.25;0.5;0.25;0.25;0.25;0.25;1.25;1.25;0.25;0.5;0.5;0.5;0.5;-0.20166;0.031738;0.981445;-1.05;2.66;1.19;135.0;-0.120263;-0.082968;3.5;4.25;2.5;3.25;1.25;1.25;0.0;1.5;0.75;1.5;0.75;0.5;0.5;0.5;0.5;0.25;-0.226562;-0.007324;0.985352;-0.7;-0.35;0.91;222.0;-0.157924;-0.085571
1.97;1.75;4.0;0.5;2.25;0.25;0.5;0.25;0.25;0.5;1.25;1.25;0.5;0.75;0.25;0.5;0.25;-0.200195;0.04248;0.989258;-1.12;2.52;1.12;141.0;-0.120872;-0.097464;3.5;4.5;2.5;3.5;0.75;1.25;0.0;1.0;0.25;1.25;1.0;0.5;0.5;0.5;0.75;0.25;-0.227051;-0.005371;0.980957;-0.77;-0.35;0.84;211.0;-0.173027;-0.09363
1.98;2.0;2.75;1.0;2.25;0.25;0.5;0.0;0.5;0.5;1.25;1.25;0.25;0.5;0.5;0.5;0.25;-0.203125;0.036621;0.979492;-1.05;2.45;1.26;136.0;-0.113131;-0.084939;4.0;4.5;2.5;3.5;0.75;1.25;0.0;1.0;0.25;1.5;1.0;0.75;0.5;0.5;0.75;0.5;-0.225098;-0.005371;0.980469;-0.84;-0.21;0.7;222.0;-0.166355;-0.091055
1.99;2.5;3.25;0.75;2.25;0.5;0.5;0.0;0.5;0.25;0.75;1.25;0.5;0.25;0.25;0.25;0.5;-0.199707;0.033691;0.980469;-0.98;2.17;1.19;134.0;-0.162091;-0.098723;4.0;4.5;2.5;3.5;0.75;1.0;0.0;1.25;0.5;1.0;1.0;0.75;0.75;0.5;0.75;0.5;-0.228516;-0.005371;0.980957;-0.91;-0.21;0.84;223.0;-0.164115;-0.095426
2.0;2.5;3.5;0.75;2.25;0.5;0.5;0.25;0.5;0.25;0.75;1.25;0.5;0.25;0.25;0.25;0.5;-0.20752;0.036621;0.984375;-1.19;2.38;1.26;140.0;-0.159875;-0.091216;4.25;4.0;2.75;3.5;1.0;1.25;0.0;1.25;0.25;1.0;1.0;0.5;0.5;0.5;0.25;0.5;-0.226562;-0.010254;0.983887;-0.77;-0.21;0.77;217.0;-0.188198;-0.089668
2.01;2.75;4.0;0.25;2.25;0.25;0.25;0.25;0.5;0.25;1.25;1.25;1.0;0.5;0.25;0.0;0.5;-0.203613;0.037109;0.986816;-1.12;2.31;1.19;145.0;-0.147845;-0.102945;3.5;3.75;2.75;3.5;1.0;0.75;0.0;1.25;0.25;1.75;1.25;0.5;0.5;0.75;0.25;0.5;-0.231445;-0.007812;0.984375;-0.91;-0.28;0.84;214.0;-0.155238;-0.083978
2.02;3.5;4.0;0.25;3.5;0.0;0.5;0.25;0.5;0.0;1.25;1.25;1.25;0.25;0.5;0.25;0.5;-0.203125;0.028809;0.983398;-1.33;2.17;1.12;167.0;-0.160931;-0.109794;2.75;4.25;2.75;3.5;1.0;0.5;0.0;1.25;0.5;1.0;1.25;0.75;0.75;0.5;0.5;0.75;-0.225098;-0.010742;0.978516;-0.84;-0.35;0.63;211.0;-0.148204;-0.099576
2.03;3.0;3.5;0.5;3.0;0.0;0.75;0.25;0.5;0.25;1.25;1.5;1.0;0.25;0.25;0.0;0.5;-0.201172;0.032715;0.97998;-1.12;2.24;1.12;156.0;-0.151947;-0.104437;3.75;4.5;2.75;3.5;1.0;0.5;0.0;1.25;0.5;1.0;1.25;1.0;0.75;0.5;0.5;0.75;-0.229492;-0.006348;0.984863;-0.84;-0.42;0.77;225.0;-0.157639;-0.093518
2.04;3.5;3.75;0.5;2.5;0.25;1.0;0.25;0.5;0.25;1.5;1.5;0.5;0.5;0.25;0.0;0.5;-0.203125;0.035156;0.97998;-1.05;2.1;1.19;163.0;-0.159119;-0.091582;4.0;4.5;2.75;3.25;1.0;1.0;0.0;1.0;0.5;1.5;1.25;0.75;0.75;0.75;0.25;0.25;-0.224121;-0.003906;0.98291;-0.84;-0.56;0.7;225.0;-0.16327;-0.079134
2.05;3.75;4.0;0.75;3.0;0.5;0.5;0.25;0.25;0.25;1.25;0.5;0.5;0.5;0.25;0.25;0.75;-0.199219;0.041992;0.986328;-1.26;2.24;1.19;160.0;-0.191003;-0.078813;3.75;4.5;2.5;2.75;1.25;1.0;0.0;1.0;0.5;1.5;1.25;0.75;0.5;0.5;0.25;0.5;-0.224609;-0.005859;0.98584;-0.91;-0.56;0.77;215.0;-0.161346;-0.078308
2.06;3.5;3.75;1.0;2.0;0.5;0.5;0.0;0.25;0.25;1.25;0.5;0.5;0.5;0.5;0.0;0.5;-0.20459;0.032227;0.98584;-1.33;2.24;1.12;143.0;-0.192012;-0.069632;3.75;4.25;2.5;3.5;1.25;1.0;0.0;1.25;0.5;1.5;1.5;0.75;0.5;0.5;0.25;0.75;-0.224121;-0.008789;0.984863;-0.91;-0.56;0.7;228.0;-0.153949;-0.08881
2.07;3.5;3.75;0.75;2.25;0.5;0.5;0.0;0.5;0.25;1.25;0.5;1.0;0.5;0.5;0.0;0.5;-0.19873;0.038086;0.981445;-1.26;2.24;1.12;152.0;-0.175473;-0.089458;4.0;4.25;3.5;3.5;1.25;0.5;0.0;1.0;0.5;1.5;1.0;0.75;0.75;0.75;0.5;0.75;-0.225586;-0.009766;0.984863;-0.84;-0.63;0.7;233.0;-0.157988;-0.07091
2.08;2.75;4.0;0.75;3.0;0.25;0.5;0.0;0.5;0.25;1.5;0.75;0.5;0.25;0.75;0.0;0.5;-0.202637;0.035156;0.983398;-1.26;2.1;1.12;152.0;-0.170874;-0.092149;4.0;4.5;3.0;4.0;1.25;0.5;0.0;1.25;0.75;1.5;0.75;0.75;0.75;1.0;0.25;0.5;-0.228027;-0.011719;0.985352;-0.84;-0.63;0.77;238.0;-0.160999;-0.074905
2.09;2.75;3.75;1.0;2.75;0.25;0.75;0.0;0.5;0.25;1.5;0.75;0.5;0.25;0.75;0.0;0.75;-0.20166;0.036621;0.985352;-1.19;2.17;1.12;153.0;-0.162531;-0.090674;4.0;4.5;3.0;4.0;1.5;1.25;0.0;1.5;0.75;1.5;1.0;0.75;0.75;1.0;0.25;0.5;-0.224121;-0.011719;0.98584;-0.7;-0.42;0.63;254.0;-0.154697;-0.084112
2.1;2.75;3.75;0.75;2.25;0.25;0.5;0.25;0.5;0.5;1.25;0.75;0.75;0.5;0.25;0.0;0.5;-0.197754;0.037598;0.979492;-1.19;2.17;1.12;146.0;-0.157991;-0.08692;4.25;4.5;3.25;3.5;1.5;0.5;0.0;1.25;0.5;1.5;0.75;1.0;0.75;1.0;0.75;0.25;-0.231934;-0.01123;0.98584;-0.77;-0.49;0.63;243.0;-0.154335;-0.072299
2.11;2.75;4.0;1.0;2.25;0.0;0.5;0.0;0.5;0.5;1.25;0.75;0.5;0.25;0.25;0.0;0.5;-0.200684;0.036133;0.983887;-1.19;2.24;1.12;141.0;-0.181222;-0.086828;4.0;4.5;3.25;3.5;1.25;0.5;0.0;1.25;0.25;1.5;1.0;0.75;0.75;1.25;0.75;0.25;-0.22168;-0.007324;0.987305;-0.56;-0.49;0.63;237.0;-0.152529;-0.076005
2.12;3.0;4.0;1.25;3.0;0.25;0.75;0.0;0.5;0.25;1.25;0.75;0.5;0.25;0.25;0.0;0.5;-0.203125;0.041016;0.97998;-1.19;1.96;1.19;155.0;-0.198219;-0.095191;4.5;4.5;3.25;3.5;1.25;1.25;0.0;1.25;0.5;1.5;1.25;0.75;0.75;1.25;0.5;0.5;-0.225098;-0.012207;0.989258;-0.63;-0.56;0.77;254.0;-0.151608;-0.075701
2.13;3.5;4.0;1.25;3.5;0.25;1.0;0.0;0.5;0.25;1.25;1.0;0.5;0.25;0.25;0.0;0.5;-0.200684;0.038086;0.982422;-1.26;1.96;1.33;170.0;-0.199923;-0.09623;4.5;4.75;3.25;3.75;1.5;1.25;0.0;1.25;0.0;1.5;1.0;0.75;0.75;1.25;0.5;0.25;-0.224121;-0.008789;0.981934;-0.56;-0.56;0.77;251.0;-0.17079;-0.083356
2.14;3.75;4.0;1.25;3.5;0.25;1.0;0.0;0.5;0.25;1.0;1.25;0.5;0.25;0.5;0.25;0.5;-0.204102;0.038086;0.98291;-1.33;1.89;1.19;177.0;-0.18773;-0.092684;4.25;4.5;3.0;3.75;1.0;1.5;0.0;1.25;0.0;1.5;0.75;0.5;0.75;0.75;0.5;0.25;-0.222656;-0.003418;0.978027;-0.63;-0.56;0.77;233.0;-0.183744;-0.093441
2.15;3.25;4.0;1.25;2.5;0.25;1.25;0.25;0.5;0.0;1.25;1.25;0.75;0.25;0.5;0.0;0.5;-0.203613;0.031738;0.98291;-1.33;1.82;1.19;167.0;-0.174245;-0.09357;4.0;4.5;3.25;4.0;0.75;1.75;0.0;1.25;0.25;1.25;1.0;0.5;0.75;0.75;0.5;0.5;-0.222168;-0.001465;0.983398;-0.63;-0.49;0.77;240.0;-0.17561;-0.09669
2.16;3.5;4.0;1.25;2.25;0.25;0.75;0.25;0.5;0.5;1.25;1.25;0.75;0.25;0.5;0.0;0.25;-0.204102;0.037598;0.983398;-1.33;1.82;1.19;167.0;-0.164998;-0.068523;4.0;4.5;3.25;3.75;1.0;1.25;0.0;1.25;0.5;1.25;1.25;0.75;0.75;0.5;0.25;0.75;-0.227051;-0.005859;0.986328;-0.7;-0.49;0.77;240.0;-0.168989;-0.091102
2.17;4.0;4.0;1.25;3.75;0.25;1.0;0.0;0.5;0.75;1.25;1.25;1.0;0.25;0.5;0.0;0.25;-0.20166;0.038574;0.980957;-1.33;1.82;1.19;191.0;-0.173547;-0.082285;4.0;4.5;3.25;3.5;0.75;1.0;0.0;1.0;0.0;1.0;1.25;0.75;0.75;0.5;0.25;0.75;-0.227539;-0.000977;0.981934;-0.63;-0.56;0.77;220.0;-0.186785;-0.096123
2.18;4.0;4.0;1.25;3.5;0.5;0.5;0.0;0.5;0.5;1.25;1.25;0.5;0.0;0.5;0.25;0.25;-0.199219;0.038574;0.981934;-1.33;1.75;1.19;179.0;-0.185375;-0.068928;4.0;4.75;3.75;4.0;0.75;1.25;0.0;1.25;0.0;1.25;1.0;0.75;0.75;0.5;0.5;0.75;-0.229004;-0.005859;0.981934;-0.63;-0.49;0.7;241.0;-0.183612;-0.099665
2.19;3.25;4.0;1.25;4.0;0.5;0.5;0.0;0.5;0.25;1.25;1.25;0.25;0.0;0.5;0.25;0.5;-0.197754;0.032227;0.978516;-1.33;1.68;1.19;172.0;-0.188606;-0.085352;4.25;4.5;3.25;3.5;0.75;0.5;0.0;1.25;0.5;0.5;1.25;0.75;0.5;0.5;0.25;0.5;-0.229492;-0.011719;0.98291;-0.63;-0.56;0.77;219.0;-0.190671;-0.083371
2.2;3.5;4.0;1.25;3.25;0.25;0.5;0.0;0.5;0.25;1.25;1.25;0.75;0.5;0.5;0.25;0.5;-0.203613;0.03418;0.984863;-1.4;1.89;1.12;174.0;-0.168874;-0.09327;4.75;4.5;3.0;3.25;1.0;0.5;0.0;1.25;0.25;0.5;0.5;0.75;0.5;0.5;0.25;0.75;-0.224609;-0.011719;0.984863;-0.56;-0.42;0.7;212.0;-0.209747;-0.083073
2.21;3.5;4.0;1.25;2.75;0.5;0.5;0.0;0.5;0.25;1.25;1.25;0.5;0.25;0.5;0.25;0.5;-0.203125;0.038574;0.986816;-1.33;1.96;1.19;167.0;-0.174164;-0.079637;4.75;4.75;3.25;3.5;1.0;1.5;0.0;1.0;0.0;0.75;0.25;0.5;0.5;0.5;0.25;0.5;-0.22168;-0.011719;0.984863;-0.42;-0.49;0.7;219.0;-0.227882;-0.086481
2.22;4.25;4.25;1.25;3.0;0.5;0.5;0.0;0.5;0.0;0.75;1.0;0.5;0.25;0.5;0.25;0.5;-0.200195;0.040039;0.990723;-1.47;2.03;1.12;168.0;-0.213654;-0.08477;4.5;4.5;3.25;3.5;1.25;1.25;0.0;0.75;0.25;1.0;0.5;0.25;0.5;0.5;0.25;0.5;-0.229492;-0.007812;0.987305;-0.42;-0.49;0.77;217.0;-0.215294;-0.070452
2.23;4.0;4.25;1.25;3.5;0.5;0.5;0.0;0.5;0.25;0.75;1.0;0.5;0.25;0.75;0.0;0.5;-0.204102;0.041504;0.983398;-1.33;1.96;1.19;173.0;-0.206683;-0.082349;4.5;4.75;3.25;3.75;1.25;1.0;0.0;1.0;0.5;1.0;0.75;0.5;0.5;0.5;0.25;0.75;-0.227051;-0.01123;0.984863;-0.49;-0.56;0.77;231.0;-0.197336;-0.07532
2.24;3.75;4.0;1.25;3.5;0.5;0.75;0.25;0.5;0.25;0.5;1.25;0.5;0.0;0.5;0.0;0.5;-0.202148;0.037109;0.980469;-1.33;2.1;1.19;171.0;-0.206353;-0.081161;4.5;4.75;3.25;3.5;1.25;0.5;0.0;1.0;0.25;1.0;0.5;0.25;0.75;0.5;0.25;0.5;-0.227539;-0.009766;0.98291;-0.42;-0.56;0.7;217.0;-0.212626;-0.073164
2.25;4.0;4.0;1.25;3.0;0.5;0.5;0.25;0.5;0.25;0.5;1.0;0.25;0.25;0.0;0.0;0.25;-0.20166;0.034668;0.980469;-1.4;2.17;1.19;158.0;-0.235543;-0.076287;4.5;5.0;2.75;3.75;1.25;0.5;0.0;0.75;0.0;1.25;0.25;0.25;0.5;0.5;0.5;0.5;-0.225098;-0.004395;0.986816;-0.49;-0.42;0.7;210.0;-0.22064;-0.073909
2.26;4.0;3.75;1.25;3.5;0.25;0.5;0.25;0.5;0.5;0.75;0.75;0.5;0.5;0.5;0.25;0.0;-0.201172;0.039062;0.98584;-1.4;2.1;1.26;171.0;-0.197091;-0.073055;4.25;5.25;2.75;4.25;1.25;0.5;0.0;0.75;0.25;1.5;0.25;0.5;0.5;0.5;0.25;0.75;-0.229004;-0.007812;0.984863;-0.49;-0.35;0.7;222.0;-0.209563;-0.077647
2.27;3.5;4.25;1.5;4.0;0.5;0.5;0.25;0.5;0.25;1.0;0.75;0.25;0.5;0.25;0.25;0.25;-0.199219;0.038574;0.975586;-1.26;2.1;1.19;176.0;-0.209481;-0.085689;4.25;5.0;2.75;4.0;1.25;0.5;0.0;0.75;0.0;1.5;0.5;0.75;0.75;0.5;0.0;0.75;-0.227051;-0.006836;0.978027;-0.49;-0.35;0.56;218.0;-0.207018;-0.086209
2.28;4.0;4.25;1.25;3.25;0.5;0.75;0.25;0.5;0.25;1.25;0.75;0.5;0.5;0.25;0.25;0.5;-0.199219;0.041016;0.982422;-1.47;2.24;1.26;180.0;-0.194191;-0.082233;4.25;4.5;3.0;3.5;1.25;0.5;0.0;0.75;0.0;1.5;0.75;0.75;0.5;0.75;0.25;0.25;-0.223633;-0.006836;0.98877;-0.56;-0.28;0.77;214.0;-0.194408;-0.071022
2.29;3.75;4.25;1.5;3.5;0.25;0.75;0.25;0.5;0.5;1.25;1.0;0.25;0.5;0.5;0.0;0.5;-0.196777;0.035156;0.984375;-1.4;2.24;1.12;182.0;-0.1886;-0.075236;4.0;4.75;3.25;4.0;1.5;0.5;0.0;0.75;0.0;1.5;0.75;0.75;0.5;0.5;0.5;0.25;-0.229004;-0.003906;0.983887;-0.35;-0.35;0.77;224.0;-0.195214;-0.076233
2.3;3.75;4.0;1.25;3.5;0.0;0.75;0.25;0.5;0.5;0.5;1.0;0.5;0.5;0.5;0.0;0.5;-0.202637;0.037109;0.984375;-1.33;2.17;1.19;170.0;-0.197897;-0.087531;4.0;4.75;3.25;4.25;1.5;1.25;0.0;1.0;0.25;1.25;1.0;0.5;0.75;0.5;0.5;0.5;-0.22168;-0.003906;0.988281;-0.42;-0.42;0.7;242.0;-0.184888;-0.08804
2.31;3.5;4.25;1.25;3.5;0.25;1.0;0.25;0.5;0.25;0.5;0.75;0.25;0.5;0.5;0.0;0.5;-0.200195;0.040039;0.983887;-1.4;2.38;1.19;167.0;-0.216022;-0.094884;4.25;5.0;3.25;3.5;0.75;1.5;0.0;0.75;0.0;1.25;0.5;0.5;0.75;0.5;0.5;0.5;-0.226074;-0.009277;0.987793;-0.42;-0.42;0.7;222.0;-0.205083;-0.088709
2.32;3.5;4.25;1.25;3.0;0.5;1.0;0.25;0.25;0.0;1.0;0.75;0.25;0.5;0.5;0.0;0.5;-0.203613;0.031738;0.984375;-1.19;2.31;1.19;163.0;-0.212124;-0.084301;4.25;5.0;3.25;3.5;0.75;1.75;0.0;0.75;0.0;1.5;0.5;0.75;0.5;0.75;0.5;0.5;-0.223633;-0.010254;0.986816;-0.56;-0.42;0.84;229.0;-0.193537;-0.085792
2.33;4.25;4.25;1.25;3.5;0.5;0.75;0.25;0.5;0.0;1.0;0.5;0.5;0.5;0.5;0.25;0.5;-0.195801;0.036621;0.98291;-1.26;2.24;1.19;179.0;-0.210599;-0.08633;4.5;4.75;3.25;3.75;0.75;1.25;0.0;0.75;0.25;1.0;0.5;0.75;0.5;0.25;0.5;0.25;-0.221191;-0.00293;0.984863;-0.42;-0.35;0.63;220.0;-0.212802;-0.08201
2.34;4.25;4.0;1.0;4.0;0.5;0.75;0.25;0.5;0.25;0.5;0.5;0.5;0.25;0.5;0.0;0.5;-0.199707;0.033691;0.98291;-1.47;2.31;1.19;173.0;-0.226849;-0.08559;4.5;4.75;3.0;4.0;1.0;1.25;0.0;0.5;0.25;1.0;0.75;0.75;0.5;0.5;0.5;0.0;-0.22998;-0.007812;0.98877;-0.49;-0.49;0.56;222.0;-0.208193;-0.075913
2.35;3.0;4.0;1.0;4.0;0.5;1.0;0.25;0.5;0.25;0.75;1.0;0.25;0.25;0.75;0.25;0.25;-0.206055;0.036133;0.986328;-1.47;2.31;1.12;171.0;-0.188654;-0.092844;4.5;5.0;3.25;4.0;0.75;1.0;0.0;0.5;0.0;1.25;1.0;0.75;0.5;0.25;0.5;0.0;-0.227539;-0.005859;0.98291;-0.63;-0.49;0.56;222.0;-0.214631;-0.080101
2.36;4.0;4.25;1.25;3.75;0.5;1.25;0.25;0.5;0.25;1.25;1.0;0.5;0.25;0.5;0.25;0.5;-0.199219;0.031738;0.98584;-1.47;2.03;1.19;192.0;-0.187911;-0.084738;4.5;5.0;4.0;4.0;0.75;1.0;0.0;0.75;0.0;1.25;0.75;0.75;0.5;0.25;0.5;0.5;-0.227051;-0.009766;0.986328;-0.56;-0.49;0.63;233.0;-0.211647;-0.081317
2.37;4.25;4.25;1.25;3.5;0.25;1.0;0.25;0.25;0.0;1.0;1.0;0.75;0.25;0.5;0.25;0.5;-0.19873;0.033203;0.985352;-1.4;2.03;1.26;180.0;-0.201807;-0.084506;4.5;5.0;3.75;3.5;0.75;1.0;0.0;0.75;0.25;1.5;0.25;0.75;0.5;0.5;0.5;0.5;-0.227539;-0.010742;0.983398;-0.56;-0.49;0.63;228.0;-0.202363;-0.070946
2.38;4.0;4.25;1.25;3.5;0.25;1.0;0.25;0.5;0.0;1.0;1.0;1.0;0.5;0.5;0.25;0.5;-0.200684;0.039551;0.987793;-1.54;2.03;1.05;186.0;-0.18639;-0.099494;4.75;5.0;3.5;4.0;0.75;1.0;0.0;0.75;0.0;1.5;0.25;0.75;0.5;0.5;0.5;0.5;-0.22168;-0.007324;0.981934;-0.42;-0.56;0.63;230.0;-0.211559;-0.078727
2.39;3.75;4.25;1.25;3.5;0.5;1.25;0.25;0.5;0.0;1.25;0.75;0.5;0.5;0.5;0.0;0.5;-0.202148;0.035645;0.983398;-1.54;2.03;1.19;181.0;-0.200514;-0.09502;4.5;5.25;3.0;4.0;0.75;1.5;0.0;1.0;0.0;0.75;0.5;0.75;0.75;0.75;0.5;0.5;-0.225098;-0.006836;0.987305;-0.49;-0.77;0.77;232.0;-0.206883;-0.099868
2.4;4.0;4.25;1.25;3.5;0.5;1.25;0.25;0.25;0.5;1.0;0.75;0.5;0.5;0.5;0.0;0.25;-0.19873;0.036621;0.984375;-1.47;1.89;1.12;183.0;-0.201329;-0.075192;5.0;4.75;3.75;4.0;1.25;1.5;0.0;0.75;0.0;0.5;0.25;0.5;0.75;0.5;0.5;0.5;-0.223633;-0.008301;0.986328;-0.49;-0.63;0.7;233.0;-0.228683;-0.082175
2.41;4.25;4.25;1.25;3.5;0.5;1.25;0.0;0.25;0.25;0.75;0.75;0.5;0.5;0.5;0.0;0.5;-0.201172;0.032227;0.986328;-1.54;1.89;1.05;177.0;-0.219254;-0.088424;5.0;5.0;3.5;3.5;0.75;1.0;0.0;0.75;0.25;0.75;0.5;0.5;0.25;0.5;0.25;0.25;-0.230957;-0.008301;0.986816;-0.49;-0.63;0.77;217.0;-0.233783;-0.066239
2.42;4.25;4.5;1.25;4.0;0.5;1.25;0.0;0.5;0.25;1.0;0.5;0.5;0.5;0.75;0.0;0.5;-0.199219;0.038574;0.986816;-1.47;2.1;1.19;190.0;-0.212816;-0.093456;5.0;5.25;3.5;4.0;0.75;1.0;0.0;0.75;0.25;1.0;0.5;0.25;0.25;0.5;0.25;0.25;-0.221191;-0.006348;0.985352;-0.77;-0.7;0.7;225.0;-0.236435;-0.066876
2.43;4.25;4.5;1.5;4.0;0.5;1.0;0.0;0.5;0.5;1.25;0.5;0.75;0.25;0.5;0.0;0.5;-0.20166;0.037598;0.98877;-1.26;2.1;1.19;194.0;-0.20646;-0.082592;5.25;5.25;4.0;4.0;1.0;1.0;0.0;0.75;0.5;1.25;0.5;0.25;0.25;0.5;0.0;0.25;-0.220215;-0.006836;0.980957;-0.77;-0.56;0.63;237.0;-0.233106;-0.054647
2.44;4.25;4.5;2.5;4.25;0.5;1.25;0.25;0.25;0.25;1.25;0.75;1.0;0.25;0.5;0.0;0.5;-0.195312;0.035156;0.984375;-1.33;2.24;1.19;211.0;-0.205009;-0.075614;5.25;5.25;3.75;4.25;0.75;1.0;0.0;0.75;0.5;1.25;0.5;0.5;0.25;0.5;0.25;0.25;-0.227051;-0.010254;0.98877;-1.12;-0.49;0.63;240.0;-0.223561;-0.061878
2.45;4.25;4.5;1.75;4.25;0.5;1.25;0.25;0.5;0.5;1.0;0.75;0.5;0.25;0.5;0.0;0.25;-0.202148;0.036621;0.983398;-1.12;2.17;1.12;201.0;-0.211221;-0.077044;5.25;5.25;3.75;4.25;0.75;1.0;0.0;0.5;0.5;1.25;0.5;0.25;0.25;0.75;0.25;0.25;-0.227539;-0.011719;0.984863;-1.05;-0.56;0.7;236.0;-0.225835;-0.052639
2.46;4.25;4.5;1.25;4.0;0.75;1.5;0.25;0.5;0.5;1.0;0.75;0.5;0.0;0.5;0.0;0.25;-0.196777;0.039551;0.982422;-1.26;2.24;1.19;197.0;-0.210855;-0.076287;5.25;5.25;3.5;4.0;0.75;1.0;0.0;0.5;0.5;1.25;0.5;0.0;0.25;0.75;0.25;0.25;-0.225586;-0.005371;0.987305;-1.12;-0.56;0.7;228.0;-0.22931;-0.049765
2.47;4.25;4.5;1.5;3.5;0.5;1.25;0.25;0.5;0.5;1.25;1.0;0.75;0.25;0.5;0.0;0.5;-0.195801;0.035156;0.984375;-1.26;2.38;1.26;200.0;-0.188359;-0.076506;5.25;5.0;3.5;4.25;0.75;1.25;0.0;0.5;0.5;1.25;0.5;0.5;0.25;0.75;0.0;0.5;-0.223145;-0.006836;0.980469;-1.05;-0.56;0.63;235.0;-0.221838;-0.059077
2.48;4.25;4.5;1.5;4.0;0.5;1.25;0.25;0.5;0.25;1.0;1.0;0.5;0.5;0.5;0.0;0.25;-0.202637;0.028809;0.977539;-1.12;2.38;1.19;197.0;-0.207494;-0.086996;5.25;5.0;3.5;4.0;0.75;1.0;0.0;0.5;0.5;0.75;0.5;0.5;0.25;0.5;0.25;0.25;-0.226074;-0.007812;0.982422;-0.98;-0.56;0.7;224.0;-0.233667;-0.058352
2.49;4.25;4.5;1.5;4.0;0.5;1.25;0.0;0.25;0.25;1.0;1.0;0.5;0.25;0.5;0.0;0.25;-0.200684;0.038086;0.989258;-1.05;2.24;1.33;189.0;-0.2204;-0.083506;4.75;5.25;3.75;4.0;0.75;1.0;0.0;0.5;0.5;0.75;0.75;0.5;0.25;0.5;0.25;0.0;-0.231445;-0.004883;0.98584;-0.77;-0.35;0.7;225.0;-0.230584;-0.060396
2.5;4.0;4.5;1.75;4.25;0.25;1.25;0.0;0.25;0.5;1.25;0.5;0.5;0.0;0.5;0.0;0.5;-0.199707;0.037109;0.988281;-1.05;2.31;1.26;189.0;-0.219103;-0.076554;5.0;5.25;3.75;4.25;1.0;1.25;0.0;0.5;0.5;0.75;0.5;0.5;0.25;0.5;0.25;0.25;-0.231934;-0.008789;0.984375;-0.7;-0.49;0.77;234.0;-0.232494;-0.062181
2.51;4.0;4.25;1.5;4.25;0.5;1.25;0.0;0.5;0.0;1.25;0.5;0.5;0.25;0.5;0.0;0.25;-0.20166;0.035645;0.980957;-1.12;2.31;1.26;185.0;-0.226179;-0.095817;5.0;5.25;3.5;4.25;1.0;1.0;0.0;0.5;0.5;1.0;0.5;0.5;0.5;0.5;0.0;0.0;-0.225098;-0.011719;0.989258;-0.56;-0.42;0.7;230.0;-0.234558;-0.062168
2.52;4.0;4.75;1.5;4.0;0.5;0.75;0.0;0.5;0.25;1.25;0.5;0.5;0.25;0.25;0.0;0.25;-0.202148;0.036133;0.983398;-1.12;2.24;1.26;182.0;-0.230667;-0.087689;5.25;5.25;3.5;4.25;1.25;1.0;0.0;0.5;0.5;0.75;0.5;0.5;0.0;0.5;0.0;0.0;-0.224609;-0.009277;0.986816;-0.42;-0.56;0.84;228.0;-0.247109;-0.053373
2.53;4.0;4.75;1.75;4.0;0.0;0.75;0.0;0.0;0.5;1.25;0.5;0.5;0.25;0.25;0.0;0.25;-0.196777;0.040527;0.986328;-1.05;2.31;1.19;176.0;-0.234522;-0.071203;5.25;5.25;4.0;4.25;0.75;1.25;0.0;0.25;0.25;0.75;0.5;0.0;0.0;0.75;0.0;0.0;-0.224609;-0.007812;0.984375;-0.35;-0.56;0.91;222.0;-0.263838;-0.046953
2.54;4.25;4.5;1.25;4.0;0.25;1.25;0.25;0.25;0.5;1.25;0.75;0.5;0.5;0.25;0.0;0.25;-0.200684;0.037598;0.981445;-0.98;2.31;1.19;190.0;-0.210292;-0.080522;5.25;5.25;3.75;4.25;0.75;0.5;0.0;0.25;0.25;0.75;0.5;0.0;0.0;0.5;0.5;0.0;-0.225586;-0.002441;0.984863;-0.42;-0.56;0.77;214.0;-0.258749;-0.043549
2.55;4.25;4.5;1.25;4.0;0.5;1.25;0.0;0.25;0.25;1.0;1.0;0.25;0.5;0.25;0.0;0.5;-0.202148;0.040527;0.981445;-1.19;2.38;1.19;185.0;-0.22394;-0.091516;5.25;5.25;4.0;4.0;0.25;0.75;0.0;0.5;0.5;1.0;0.5;0.0;0.0;0.0;0.25;0.25;-0.227051;-0.005859;0.981934;-0.21;-0.63;0.77;216.0;-0.259771;-0.050109
2.56;4.25;4.5;1.25;4.0;0.25;1.25;0.0;0.5;0.0;1.25;0.5;0.25;0.5;0.5;0.0;0.5;-0.20166;0.038574;0.985352;-1.12;2.24;1.19;182.0;-0.228087;-0.0998;5.25;5.5;4.0;4.25;0.25;0.75;0.0;0.5;0.0;0.75;0.25;0.25;0.25;0.25;0.0;0.25;-0.224121;-0.007812;0.986816;-0.42;-0.77;0.63;214.0;-0.279217;-0.067107
2.57;4.5;4.75;1.5;4.0;0.5;1.25;0.0;0.5;0.0;1.25;0.5;0.5;0.5;0.25;0.0;0.5;-0.19873;0.032227;0.983887;-1.12;2.45;1.19;192.0;-0.232479;-0.098617;5.5;5.5;4.25;4.5;0.75;0.5;0.0;0.5;0.0;0.5;0.5;0.5;0.25;0.25;0.0;0.25;-0.224121;-0.007324;0.986328;-0.42;-0.77;0.91;226.0;-0.273332;-0.064463
2.58;4.25;4.25;1.5;4.0;0.25;0.75;0.0;0.5;0.25;1.25;0.75;0.5;0.5;0.25;0.25;0.5;-0.202637;0.038086;0.980469;-1.05;2.31;1.19;186.0;-0.207675;-0.091239;5.5;5.75;4.0;4.25;0.75;0.5;0.0;0.5;0.0;0.5;0.5;0.5;0.25;0.0;0.0;0.25;-0.220703;-0.006348;0.979004;-0.49;-0.77;0.7;221.0;-0.280685;-0.067526
2.59;4.0;4.5;1.25;4.25;0.5;1.0;0.0;0.5;0.25;1.25;0.75;0.5;0.5;0.5;0.25;0.5;-0.200684;0.039062;0.987305;-1.05;2.24;1.19;193.0;-0.199756;-0.096277;5.5;5.5;4.5;4.25;0.75;0.5;0.0;0.5;0.0;0.75;0.5;0.25;0.25;0.25;0.25;0.5;-0.219727;-0.008789;0.982422;-0.98;-0.49;0.7;230.0;-0.262234;-0.058783
2.6;4.0;4.5;1.25;4.25;0.25;1.0;0.0;0.5;0.25;1.25;0.75;0.75;0.25;0.5;0.25;0.5;-0.199707;0.042969;0.98877;-0.98;2.38;1.19;191.0;-0.199426;-0.097053;5.5;5.5;4.0;4.25;0.75;0.5;0.0;0.5;0.0;0.75;0.5;0.0;0.0;0.5;0.0;0.0;-0.216309;-0.008789;0.98291;-1.12;-0.49;0.63;217.0;-0.279905;-0.050614
2.61;4.0;4.5;1.25;4.0;0.5;1.0;0.0;0.5;0.25;1.25;1.0;0.5;0.25;0.5;0.0;0.5;-0.200195;0.036621;0.978027;-1.05;2.38;1.19;188.0;-0.20487;-0.091123;5.25;5.5;3.75;4.0;0.75;0.5;0.0;0.25;0.0;0.75;0.5;0.25;0.0;0.5;0.0;0.0;-0.225586;-0.006836;0.980957;-1.19;-0.42;0.63;209.0;-0.277389;-0.04919
2.62;4.0;4.5;1.25;3.75;0.5;1.25;0.0;0.5;0.25;1.25;1.0;0.5;0.5;0.25;0.0;0.25;-0.199707;0.035645;0.98584;-0.98;2.17;1.26;187.0;-0.209292;-0.097019;5.0;5.5;3.75;4.25;0.75;0.5;0.0;0.5;0.0;0.5;0.25;0.25;0.25;0.5;0.25;0.25;-0.226562;-0.010742;0.978027;-1.12;-0.35;0.77;213.0;-0.267544;-0.064896
2.63;4.25;4.5;1.75;4.0;0.5;1.25;0.25;0.5;0.25;1.25;0.5;0.5;0.25;0.25;0.0;0.0;-0.199219;0.035156;0.987793;-1.12;2.17;1.12;192.0;-0.227394;-0.079407;5.25;5.5;4.25;4.25;1.0;0.25;0.0;0.5;0.25;0.75;0.25;0.25;0.0;0.5;0.0;0.0;-0.222656;-0.008301;0.986816;-0.98;-0.35;0.77;220.0;-0.270944;-0.044482
2.64;4.75;4.75;2.0;4.25;0.5;0.75;0.0;0.5;0.25;1.25;0.5;0.5;0.25;0.5;0.0;0.25;-0.197754;0.037109;0.98877;-1.05;2.31;1.12;199.0;-0.232127;-0.075266;5.25;5.25;4.0;4.25;0.75;0.5;0.0;0.5;0.25;1.25;0.25;0.25;0.0;0.5;0.0;0.0;-0.224609;-0.015137;0.98584;-0.98;-0.21;0.7;220.0;-0.258899;-0.046314
2.65;4.75;4.75;2.0;4.0;0.5;1.0;0.0;0.5;0.5;1.25;0.75;0.5;0.25;0.5;0.25;0.5;-0.199707;0.035645;0.982422;-1.26;2.31;1.19;208.0;-0.207234;-0.072775;5.25;5.25;4.0;4.25;0.75;0.75;0.0;0.5;0.0;0.5;0.25;0.5;0.0;0.5;0.0;0.25;-0.228516;-0.009766;0.984375;-0.77;-0.35;0.84;216.0;-0.272466;-0.061308
2.66;4.5;4.75;2.0;4.0;0.25;1.25;0.0;0.5;0.25;1.25;0.75;0.5;0.0;0.25;0.5;0.25;-0.20459;0.038086;0.98291;-1.19;2.24;1.12;200.0;-0.218131;-0.081472;5.0;5.25;3.5;4.0;0.75;0.5;0.0;0.5;0.25;0.5;0.5;0.5;0.0;0.5;0.0;0.25;-0.223633;-0.009277;0.981934;-0.63;-0.42;0.7;209.0;-0.259146;-0.058256
2.67;4.25;4.75;1.75;4.25;0.25;1.0;0.0;0.5;0.0;1.25;0.5;0.5;0.5;0.0;0.0;0.25;-0.200684;0.040039;0.98291;-1.12;2.38;1.12;187.0;-0.244717;-0.101653;5.25;5.5;3.5;4.0;0.5;0.5;0.0;0.5;0.25;0.25;0.5;0.0;0.0;0.5;0.0;0.0;-0.227539;0.000488;0.98291;-0.63;-0.42;0.7;203.0;-0.284936;-0.053118
2.68;4.0;4.75;1.5;4.25;0.5;0.75;0.0;0.5;0.25;1.0;0.5;0.5;0.0;0.0;0.0;0.25;-0.193848;0.033691;0.986816;-1.19;2.45;1.19;179.0;-0.249238;-0.090359;5.5;5.5;3.75;4.25;0.5;0.5;0.0;0.5;0.25;0.25;0.5;0.0;0.0;0.75;0.0;0.25;-0.227051;-0.007812;0.984863;-0.63;-0.35;0.7;213.0;-0.275892;-0.05105
2.69;4.0;4.75;1.5;4.25;0.5;1.25;0.0;0.5;0.0;1.0;0.75;0.5;0.0;0.0;0.25;0.25;-0.203125;0.032715;0.983887;-1.26;2.38;1.19;185.0;-0.240111;-0.101369;5.5;5.5;4.25;4.25;0.75;0.75;0.0;0.5;0.25;0.5;0.5;0.25;0.0;0.75;0.0;0.0;-0.229004;-0.003906;0.98291;-0.7;-0.49;0.91;227.0;-0.265576;-0.049035
2.7;4.25;4.5;2.0;4.25;0.5;1.25;0.0;0.5;0.0;1.25;0.5;0.5;0.25;0.5;0.0;0.5;-0.199707;0.036133;0.98291;-1.05;2.24;1.12;195.0;-0.227653;-0.090651;5.25;5.25;4.25;4.25;0.75;1.0;0.0;0.5;0.0;0.5;0.25;0.25;0.0;0.75;0.0;0.0;-0.227539;-0.007324;0.980469;-0.56;-0.56;0.84;220.0;-0.273825;-0.055824
2.71;4.5;4.75;2.0;4.25;0.5;1.25;0.0;0.25;0.25;1.0;0.5;0.5;0.25;0.5;0.0;0.5;-0.191895;0.034668;0.98584;-1.19;2.38;1.19;197.0;-0.233878;-0.080072;5.25;5.5;4.25;4.25;1.0;1.0;0.0;0.5;0.0;0.5;0.25;0.0;0.0;1.0;0.0;0.0;-0.222168;-0.007812;0.97998;-0.56;-0.49;0.7;224.0;-0.272723;-0.050926
2.72;4.25;4.75;2.0;4.25;0.25;1.25;0.0;0.25;0.0;1.0;0.5;0.5;0.0;0.5;0.0;0.25;-0.200684;0.034668;0.981445;-1.19;2.38;1.19;186.0;-0.249392;-0.08443;5.5;5.25;4.25;4.25;0.75;0.5;0.0;0.5;0.0;1.0;0.5;0.0;0.0;0.5;0.25;0.0;-0.230469;-0.004395;0.987305;-0.56;-0.56;0.77;222.0;-0.265417;-0.047032
2.73;4.25;4.75;1.5;4.25;0.25;1.25;0.0;0.5;0.25;1.25;0.5;0.5;0.0;0.25;0.0;0.0;-0.196289;0.039062;0.98291;-1.12;2.17;1.26;187.0;-0.241185;-0.088477;5.25;5.5;4.5;4.5;0.75;0.5;0.0;0.25;0.25;0.5;0.5;0.5;0.0;0.5;0.25;0.25;-0.225586;-0.008301;0.990723;-0.28;-0.49;0.91;228.0;-0.259711;-0.049744
2.74;4.25;4.75;1.25;4.25;0.25;1.25;0.0;0.25;0.0;1.25;0.25;0.75;0.25;0.0;0.0;0.25;-0.19873;0.035156;0.979492;-1.12;2.24;1.19;179.0;-0.252149;-0.102256;5.25;5.75;4.5;4.5;0.75;0.5;0.0;0.25;0.0;0.25;0.25;0.5;0.0;0.5;0.0;0.5;-0.229492;-0.010742;0.986328;-0.35;-0.63;0.91;221.0;-0.282601;-0.056878
2.75;4.0;4.75;1.5;4.0;0.0;1.25;0.0;0.25;0.0;1.0;0.25;1.0;0.25;0.25;0.0;0.25;-0.200195;0.03125;0.983887;-1.19;2.17;1.19;176.0;-0.244571;-0.104692;5.5;5.5;4.5;4.25;0.75;1.0;0.0;0.25;0.0;0.5;0.25;0.25;0.0;0.5;0.0;0.25;-0.226562;-0.009766;0.981934;-0.14;-0.63;0.91;223.0;-0.283001;-0.051699
2.76;4.25;4.75;1.25;4.25;0.5;1.25;0.0;0.5;0.25;1.0;0.5;1.0;0.25;0.5;0.0;0.25;-0.204102;0.036133;0.990723;-1.19;2.17;1.19;194.0;-0.219409;-0.098495;5.5;5.75;4.5;4.25;0.5;1.0;0.0;0.5;0.25;0.5;0.25;0.0;0.0;0.5;0.0;0.0;-0.221191;-0.005859;0.980469;-0.07;-0.56;0.84;225.0;-0.283507;-0.050879
2.77;4.0;4.75;1.25;4.25;0.25;1.25;0.0;0.5;0.0;1.25;0.75;1.25;0.5;0.25;0.0;0.25;-0.197754;0.037598;0.98877;-1.19;2.24;1.19;194.0;-0.211605;-0.116077;5.5;6.0;4.5;4.25;0.75;0.75;0.0;0.5;0.25;0.5;0.25;0.25;0.0;0.5;0.0;0.0;-0.223145;-0.003418;0.983398;-0.28;-0.63;0.84;230.0;-0.279239;-0.050876
2.78;4.5;4.75;1.25;4.25;0.25;1.25;0.0;0.5;0.0;0.5;0.75;0.75;0.5;0.25;0.0;0.25;-0.20166;0.034668;0.984375;-1.26;2.24;1.19;186.0;-0.244695;-0.112607;5.75;6.0;4.5;4.25;0.75;0.5;0.0;0.5;0.0;0.75;0.5;0.0;0.0;0.5;0.0;0.0;-0.219727;-0.001953;0.981934;-0.56;-0.7;0.84;229.0;-0.283376;-0.047968
2.79;4.75;5.0;1.5;4.25;0.5;1.5;0.0;0.5;0.0;0.75;0.75;0.5;0.5;0.25;0.0;0.5;-0.202148;0.035645;0.980957;-1.19;2.31;1.12;199.0;-0.241918;-0.104711;5.5;6.0;4.5;4.0;0.75;0.5;0.0;0.5;0.0;0.75;0.5;0.0;0.25;0.5;0.0;0.0;-0.219238;-0.006348;0.986816;-0.56;-0.42;0.84;226.0;-0.278076;-0.051298
2.8;4.5;5.0;2.0;4.25;0.25;1.5;0.0;0.5;0.0;1.0;0.75;0.5;0.25;0.5;0.0;0.5;-0.200195;0.038574;0.981445;-1.33;2.31;1.19;202.0;-0.234128;-0.096138;5.5;5.75;4.5;4.5;0.75;0.5;0.0;0.5;0.0;0.5;0.25;0.0;0.0;0.5;0.0;0.25;-0.222168;-0.007324;0.989258;-0.77;-0.42;0.63;223.0;-0.288333;-0.052452
2.81;4.25;4.75;2.0;4.25;0.5;1.5;0.0;0.5;0.25;0.5;1.25;0.75;0.0;0.5;0.0;0.25;-0.19873;0.036621;0.982422;-1.19;2.31;1.12;202.0;-0.224273;-0.092036;5.75;5.75;4.5;4.5;1.0;0.75;0.0;0.5;0.25;0.75;0.25;0.0;0.0;0.5;0.0;0.0;-0.221191;-0.01123;0.986328;-0.77;-0.42;0.56;235.0;-0.277458;-0.045211
2.82;4.75;4.75;2.5;4.5;0.5;1.5;0.0;0.5;0.25;0.5;1.25;0.75;0.25;0.5;0.0;0.25;-0.200684;0.039551;0.984375;-1.12;2.17;1.19;217.0;-0.226266;-0.088314;5.75;5.75;4.5;5.0;1.0;0.75;0.0;0.5;0.25;0.5;0.25;0.0;0.0;0.5;0.0;0.0;-0.224609;0.003418;0.984375;-0.77;-0.28;0.7;237.0;-0.28286;-0.050101
2.83;4.25;5.0;2.5;4.25;0.5;1.75;0.0;0.5;0.0;0.25;0.5;0.5;0.25;0.25;0.0;0.25;-0.203613;0.039062;0.979004;-0.98;2.24;1.33;197.0;-0.263436;-0.10091;5.75;5.75;4.0;4.75;0.5;0.75;0.0;0.5;0.0;0.5;0.25;0.0;0.0;0.75;0.25;0.25;-0.224609;-0.001953;0.984375;-0.7;-0.35;0.77;227.0;-0.276944;-0.057864
2.84;4.25;5.0;1.25;4.5;0.5;1.5;0.0;0.5;0.0;0.5;0.5;1.0;0.25;0.0;0.25;0.5;-0.197266;0.035645;0.98584;-1.12;2.24;1.26;193.0;-0.241458;-0.119653;6.0;5.5;4.0;4.25;0.5;1.0;0.0;0.5;0.0;0.75;0.25;0.0;0.0;0.5;0.0;0.25;-0.224609;-0.004883;0.988281;-0.7;-0.35;0.91;223.0;-0.283259;-0.054217
2.85;4.5;4.75;1.25;4.5;0.5;1.5;0.0;0.5;0.0;0.75;0.75;0.75;0.25;0.0;0.0;0.5;-0.200684;0.038086;0.982422;-0.98;2.38;1.26;193.0;-0.243542;-0.112324;5.75;5.75;4.0;4.25;0.75;0.75;0.0;0.5;0.0;0.5;0.25;0.25;0.0;0.5;0.0;0.0;-0.228027;-0.008789;0.987305;-0.56;-0.28;0.7;222.0;-0.286808;-0.055693
2.86;4.75;5.25;1.5;4.25;0.5;1.25;0.0;0.25;0.25;1.25;1.0;0.75;0.25;0.25;0.0;0.5;-0.201172;0.035156;0.984863;-1.05;2.24;1.19;206.0;-0.223561;-0.087988;5.75;5.75;4.25;4.25;0.75;0.75;0.0;0.5;0.0;0.5;0.5;0.25;0.0;0.5;0.0;0.0;-0.230469;-0.010254;0.988281;-0.63;-0.49;0.7;227.0;-0.281152;-0.054696
2.87;4.25;5.0;1.5;4.25;0.25;1.0;0.0;0.25;0.0;1.0;1.0;1.0;0.0;0.25;0.0;0.25;-0.200195;0.036621;0.981934;-1.12;2.38;1.26;188.0;-0.235125;-0.096502;6.0;5.75;4.5;4.5;0.75;0.75;0.0;0.5;0.0;0.5;0.25;0.0;0.0;0.25;0.0;0.25;-0.225098;-0.008301;0.983887;-0.63;-0.49;0.84;229.0;-0.295221;-0.053476
2.88;4.5;4.75;1.75;4.25;0.25;0.75;0.0;0.5;0.0;0.75;1.0;0.5;0.25;0.25;0.0;0.5;-0.200684;0.036133;0.983398;-1.05;2.24;1.26;188.0;-0.241773;-0.095975;6.0;5.75;4.5;5.0;0.75;0.5;0.0;0.25;0.0;0.5;0.25;0.0;0.0;0.25;0.0;0.0;-0.225586;-0.007324;0.981934;-0.49;-0.49;0.77;226.0;-0.304586;-0.048233
2.89;4.25;5.0;1.25;4.25;0.5;0.75;0.0;0.25;0.25;0.75;0.5;0.5;0.5;0.5;0.0;0.25;-0.201172;0.035645;0.981445;-1.12;2.45;1.19;183.0;-0.240528;-0.08981;6.0;6.25;4.5;4.75;0.75;0.5;0.0;0.5;0.0;0.5;0.25;0.0;0.0;0.5;0.0;0.0;-0.225098;-0.007324;0.983887;-0.56;-0.42;0.7;233.0;-0.296442;-0.051687
2.9;4.0;4.75;1.25;4.25;0.25;0.75;0.0;0.25;0.0;1.0;0.5;0.75;0.5;0.5;0.0;0.25;-0.200684;0.037109;0.987305;-1.19;2.38;1.19;177.0;-0.233715;-0.100577;5.75;6.25;4.25;4.5;0.75;0.75;0.0;0.5;0.0;0.5;0.25;0.0;0.0;0.5;0.0;0.25;-0.226562;-0.007324;0.981934;-0.42;-0.49;0.77;230.0;-0.290649;-0.056834
2.91;4.25;4.75;1.5;4.25;0.25;1.0;0.0;0.5;0.25;1.25;0.5;0.75;0.5;0.25;0.0;0.25;-0.200195;0.040039;0.98584;-1.12;2.31;1.19;192.0;-0.224208;-0.09792;6.0;6.25;4.5;4.75;0.75;0.75;0.0;0.25;0.0;0.5;0.5;0.0;0.0;0.75;0.0;0.0;-0.228516;-0.007324;0.983887;-0.49;-0.63;0.84;237.0;-0.287973;-0.047776
2.92;4.25;5.0;1.25;4.25;0.5;2.25;0.0;0.5;0.25;1.25;0.75;1.0;0.5;0.5;0.0;0.25;-0.196777;0.035645;0.983887;-1.19;2.52;1.19;213.0;-0.204436;-0.109096;6.25;6.0;4.5;4.5;0.75;1.0;0.0;0.25;0.25;0.75;0.25;0.25;0.0;0.5;0.0;0.0;-0.221191;-0.004883;0.981445;-0.42;-0.42;0.84;241.0;-0.280396;-0.044208
2.93;4.25;5.0;1.25;4.25;0.5;2.0;0.0;0.5;0.25;1.0;0.5;0.5;0.25;0.5;0.0;0.5;-0.202637;0.035645;0.986816;-1.12;2.38;1.19;200.0;-0.225692;-0.102301;6.0;6.0;4.5;4.5;1.0;1.25;0.0;0.0;0.25;0.75;0.25;0.0;0.0;0.25;0.0;0.0;-0.222656;-0.008789;0.986328;-0.56;-0.42;0.7;235.0;-0.29088;-0.041166
2.94;4.75;5.0;1.75;4.5;0.5;1.25;0.0;0.25;0.0;1.0;0.5;0.5;0.0;0.5;0.0;0.5;-0.195801;0.036133;0.991699;-1.12;2.45;1.12;197.0;-0.249709;-0.084292;6.25;6.0;4.5;4.5;0.75;0.75;0.0;0.25;0.5;1.0;0.25;0.25;0.0;0.25;0.0;0.0;-0.222656;-0.011719;0.986816;-0.63;-0.35;0.77;241.0;-0.275536;-0.038634
2.95;4.5;5.25;1.5;4.5;0.5;1.25;0.0;0.5;0.0;1.0;0.5;0.5;0.25;0.5;0.0;0.5;-0.193359;0.038086;0.987793;-1.12;2.24;1.19;199.0;-0.241106;-0.098822;6.0;6.0;4.5;4.25;1.0;0.5;0.0;0.25;0.0;0.75;0.25;0.25;0.0;0.25;0.0;0.0;-0.223145;-0.006836;0.977539;-0.77;-0.49;0.77;228.0;-0.293095;-0.043739
2.96;4.75;5.0;1.75;4.5;0.25;1.5;0.0;0.0;0.25;0.75;0.5;0.25;0.0;0.5;0.0;0.5;-0.205566;0.043457;0.98291;-1.19;2.38;1.12;191.0;-0.258356;-0.076631;6.25;6.25;4.25;4.5;1.0;0.5;0.0;0.25;0.0;0.75;0.25;0.25;0.0;0.25;0.0;0.25;-0.222168;-0.004395;0.983398;-0.77;-0.35;0.7;234.0;-0.292075;-0.04813
2.97;4.25;4.75;1.25;4.5;0.25;1.75;0.0;0.25;0.5;1.0;0.75;0.0;0.25;0.5;0.0;0.5;-0.202148;0.03418;0.985352;-1.26;2.31;1.12;193.0;-0.22831;-0.087378;6.5;5.75;4.5;4.5;0.75;0.5;0.0;0.0;0.0;0.5;0.25;0.0;0.0;0.25;0.0;0.25;-0.227051;-0.007324;0.987793;-0.7;-0.35;0.7;224.0;-0.307883;-0.037096
2.98;4.5;5.0;1.25;4.5;0.5;2.0;0.0;0.5;0.25;1.0;1.0;0.25;0.25;0.5;0.0;0.25;-0.198242;0.033691;0.982422;-1.26;2.38;1.12;206.0;-0.226636;-0.098143;6.0;5.75;4.5;4.5;0.75;0.75;0.0;0.25;0.0;0.5;0.25;0.0;0.0;0.0;0.0;0.25;-0.224609;-0.006836;0.981934;-0.84;-0.35;0.7;223.0;-0.30582;-0.050228
2.99;4.5;5.25;1.5;4.5;0.5;2.0;0.0;0.5;0.0;1.0;0.25;0.25;0.25;0.5;0.0;0.5;-0.198242;0.038574;0.981934;-1.12;2.31;1.12;202.0;-0.248743;-0.102705;6.0;5.75;4.5;4.25;0.5;0.75;0.0;0.0;0.25;0.5;0.25;0.0;0.0;0.5;0.0;0.25;-0.224609;-0.007324;0.98877;-0.7;-0.28;0.77;222.0;-0.292421;-0.035753
3.0;4.0;4.75;1.75;4.25;0.5;1.5;0.0;0.5;0.25;1.0;0.25;0.5;0.5;0.5;0.25;0.5;-0.197266;0.040039;0.984375;-1.26;2.52;1.12;198.0;-0.218165;-0.098124;6.0;6.0;4.5;4.25;0.5;0.5;0.0;0.25;0.0;0.5;0.0;0.0;0.0;0.25;0.0;0.0;-0.224609;-0.007324;0.988281;-0.7;-0.42;0.7;216.0;-0.314232;-0.043752
3.01;4.0;5.25;1.75;4.25;0.25;1.25;0.0;0.25;0.0;1.0;0.5;0.5;0.5;0.25;0.0;0.25;-0.194824;0.031738;0.990723;-1.19;2.45;1.12;187.0;-0.24897;-0.101842;5.75;5.75;4.5;4.25;0.75;0.5;0.0;0.0;0.0;0.75;0.25;0.0;0.0;0.25;0.0;0.0;-0.220215;-0.002441;0.982422;-0.63;-0.28;0.84;215.0;-0.302793;-0.037004
3.02;4.25;5.0;1.75;4.0;0.25;1.25;0.0;0.25;0.0;1.25;1.0;0.5;0.5;0.25;0.0;0.25;-0.199219;0.038574;0.988281;-1.05;2.45;1.19;192.0;-0.230647;-0.095237;6.0;5.75;4.25;4.25;0.75;0.5;0.0;0.0;0.0;0.75;0.5;0.0;0.0;0.5;0.0;0.0;-0.222656;-0.007812;0.989258;-0.7;-0.56;0.91;220.0;-0.292185;-0.03585
3.03;4.75;4.75;2.0;4.25;0.25;1.25;0.0;0.5;0.25;1.0;0.5;0.5;0.5;0.25;0.0;0.25;-0.195801;0.038086;0.983887;-1.19;2.38;1.26;199.0;-0.239419;-0.089932;6.0;6.25;4.25;4.25;0.75;0.5;0.0;0.25;0.0;0.5;0.25;0.0;0.0;0.25;0.0;0.25;-0.221191;-0.00293;0.986816;-0.77;-0.21;0.77;222.0;-0.303994;-0.047554
3.04;4.25;4.75;1.75;4.5;0.25;1.25;0.0;0.5;0.0;0.75;0.25;0.5;0.25;0.25;0.0;0.25;-0.201172;0.038086;0.980469;-1.33;2.52;1.12;185.0;-0.260173;-0.102872;6.25;5.75;4.5;4.5;1.0;0.5;0.0;0.25;0.0;0.25;0.25;0.0;0.0;0.0;0.0;0.0;-0.222168;-0.003906;0.977051;-0.7;-0.42;0.7;222.0;-0.316147;-0.044513
3.05;4.25;5.0;1.5;4.25;0.5;1.25;0.0;0.5;0.0;1.0;0.25;0.5;0.25;0.5;0.0;0.25;-0.191895;0.036133;0.985352;-1.19;2.45;1.19;189.0;-0.246407;-0.097362;6.5;5.75;4.5;4.5;0.75;0.5;0.0;0.25;0.25;0.5;0.25;0.25;0.25;0.0;0.25;0.0;-0.223633;-0.009277;0.986816;-0.84;-0.42;0.77;234.0;-0.289071;-0.045451
3.06;4.25;5.0;1.5;4.25;0.5;1.25;0.0;0.5;0.0;1.25;0.75;0.5;0.25;0.25;0.25;0.0;-0.20166;0.038086;0.983398;-1.19;2.38;1.19;195.0;-0.231257;-0.097033;6.0;6.0;4.5;3.5;0.75;0.75;0.0;0.5;0.0;0.5;0.25;0.0;0.25;0.25;0.0;0.25;-0.224609;-0.001953;0.98584;-0.98;-0.35;0.77;223.0;-0.292552;-0.050472
3.07;4.0;5.0;1.75;4.5;0.5;1.5;0.0;0.5;0.25;0.5;0.5;0.5;0.0;0.25;0.25;0.25;-0.19873;0.036621;0.983887;-1.26;2.38;1.12;193.0;-0.245182;-0.098612;6.0;6.0;4.5;4.0;0.75;1.0;0.0;0.5;0.25;0.5;0.25;0.0;0.25;0.25;0.0;0.25;-0.228516;-0.007812;0.989258;-1.05;-0.35;0.63;233.0;-0.283901;-0.052429
3.08;4.25;4.75;1.75;4.5;0.25;1.5;0.0;0.5;0.25;0.5;0.5;0.5;0.0;0.25;0.0;0.5;-0.191406;0.037598;0.985352;-1.05;2.31;1.05;189.0;-0.251165;-0.099014;6.0;5.5;4.25;4.25;0.75;1.0;0.0;0.25;0.0;0.5;0.5;0.25;0.0;0.5;0.0;0.25;-0.228027;-0.001953;0.98877;-1.12;-0.28;0.63;227.0;-0.280343;-0.050613
3.09;4.25;4.75;1.75;4.0;0.0;1.25;0.0;0.75;0.5;1.25;0.5;0.5;0.0;0.5;0.0;0.5;-0.199219;0.032227;0.979004;-1.19;2.52;1.05;195.0;-0.216426;-0.08638;6.0;5.5;4.5;4.25;0.5;0.75;0.0;0.25;0.0;0.75;0.25;0.25;0.0;0.5;0.0;0.25;-0.228027;-0.013672;0.980957;-1.19;-0.35;0.7;225.0;-0.283206;-0.045907
3.1;4.5;4.75;2.0;4.25;0.0;1.25;0.0;0.75;0.25;1.0;0.5;0.5;0.25;0.25;0.25;0.25;-0.202637;0.041992;0.987305;-1.19;2.38;1.05;198.0;-0.231161;-0.095682;5.5;5.75;4.5;4.5;0.75;0.75;0.0;0.5;0.0;0.5;0.0;0.0;0.25;0.5;0.0;0.25;-0.223145;-0.004395;0.987305;-0.98;-0.35;0.7;225.0;-0.288243;-0.057832
3.11;4.25;4.75;2.0;4.25;0.25;1.25;0.0;0.5;0.0;1.0;0.75;0.5;0.25;0.25;0.0;0.25;-0.199219;0.035156;0.982422;-1.19;2.31;1.12;192.0;-0.241551;-0.096979;6.0;5.75;4.25;4.25;0.75;0.5;0.0;0.25;0.0;0.5;0.25;0.25;0.0;0.5;0.0;0.0;-0.227051;-0.002441;0.986328;-0.77;-0.28;0.7;221.0;-0.293652;-0.044507
3.12;4.25;4.75;2.0;4.25;0.5;1.5;0.0;0.5;0.0;1.0;0.75;0.5;0.25;0.5;0.0;0.5;-0.194824;0.032227;0.984863;-1.12;2.45;1.12;200.0;-0.22884;-0.09585;5.75;5.75;4.5;4.5;0.75;0.25;0.0;0.25;0.0;0.5;0.5;0.25;0.0;0.5;0.0;0.0;-0.220215;-0.009277;0.982422;-0.91;-0.35;0.84;223.0;-0.288103;-0.044851
3.13;4.25;4.75;2.0;4.25;0.5;1.25;0.0;0.75;0.25;1.25;1.0;0.5;0.5;0.25;0.0;0.5;-0.197266;0.043945;0.985352;-1.12;2.38;1.12;209.0;-0.210835;-0.097823;5.5;5.5;4.5;4.5;0.75;0.5;0.0;0.5;0.0;0.75;0.5;0.5;0.0;0.5;0.0;0.0;-0.219727;-0.003418;0.985352;-0.84;-0.35;0.84;230.0;-0.269383;-0.05456
3.14;4.75;4.75;2.0;4.25;0.5;1.25;0.0;0.5;0.25;1.0;1.25;0.25;0.25;0.25;0.25;0.5;-0.201172;0.041992;0.987305;-1.19;2.31;1.12;208.0;-0.220002;-0.08431;5.5;5.75;4.25;4.5;0.75;0.75;0.0;0.25;0.0;0.5;0.25;0.0;0.0;0.25;0.25;0.25;-0.224121;-0.006836;0.983398;-0.84;-0.42;0.7;220.0;-0.290005;-0.053594
3.15;4.5;5.0;2.0;4.25;0.5;1.5;0.0;0.5;0.0;1.0;1.0;0.5;0.0;0.25;0.25;0.5;-0.198242;0.036133;0.991211;-1.26;2.31;1.12;205.0;-0.229961;-0.093334;5.75;5.5;4.5;4.0;0.75;0.25;0.0;0.5;0.0;0.5;0.25;0.0;0.0;0.25;0.25;0.25;-0.229492;-0.007812;0.984863;-0.91;-0.42;0.7;217.0;-0.288488;-0.045462
3.16;4.25;5.0;2.0;4.5;0.5;1.5;0.0;0.5;0.0;0.75;1.0;0.5;0.25;0.5;0.0;0.5;-0.200195;0.033691;0.98584;-1.12;2.31;1.12;205.0;-0.231625;-0.100245;6.0;5.5;4.0;4.25;0.75;0.25;0.0;0.25;0.25;0.75;0.25;0.25;0.25;0.5;0.0;0.25;-0.226562;-0.011719;0.981445;-0.77;-0.35;0.77;222.0;-0.273431;-0.042135
3.17;4.5;4.75;1.75;4.25;0.5;1.5;0.0;0.5;0.0;1.0;1.0;0.5;0.25;0.5;0.0;0.5;-0.204102;0.036133;0.987793;-1.26;2.31;1.12;202.0;-0.225038;-0.096029;5.5;5.75;4.25;4.25;0.75;0.5;0.0;0.25;0.0;0.75;0.25;0.0;0.25;0.75;0.0;0.0;-0.219727;-0.005859;0.985352;-0.77;-0.28;0.77;220.0;-0.280561;-0.04569
3.18;4.5;4.5;1.5;4.25;0.5;1.5;0.0;0.5;0.25;0.75;1.0;0.75;0.0;0.5;0.25;0.75;-0.195801;0.036133;0.984375;-1.19;2.38;1.12;202.0;-0.208437;-0.093991;5.5;6.25;4.0;4.25;0.75;0.5;0.0;0.25;0.0;0.75;0.25;0.0;0.0;0.75;0.25;0.0;-0.221191;-0.008789;0.983398;-0.77;-0.28;0.7;222.0;-0.279876;-0.046186
3.19;4.0;4.75;1.5;4.0;0.25;1.5;0.0;0.25;0.25;0.5;0.75;1.0;0.25;0.25;0.25;0.5;-0.194824;0.036621;0.98877;-1.12;2.38;1.05;188.0;-0.221638;-0.104314;5.5;5.5;4.25;4.25;1.0;0.5;0.0;0.0;0.0;0.75;0.5;0.25;0.0;0.25;0.25;0.25;-0.226074;-0.004395;0.978516;-0.84;-0.28;0.77;219.0;-0.276019;-0.043462
3.2;4.25;4.75;2.0;4.25;0.25;1.75;0.0;0.5;0.25;0.5;0.75;1.25;0.5;0.5;0.25;0.5;-0.196777;0.038086;0.992188;-1.12;2.45;1.12;210.0;-0.206692;-0.10837;5.5;5.5;4.5;4.25;0.75;0.5;0.0;0.0;0.0;0.75;0.5;0.0;0.0;0.25;0.0;0.0;-0.223145;-0.005859;0.983398;-0.84;-0.28;0.7;213.0;-0.294619;-0.038234
3.21;4.25;5.25;1.25;4.25;0.5;1.75;0.0;0.5;0.0;0.5;1.0;1.25;0.5;0.5;0.25;0.5;-0.202148;0.03418;0.986328;-1.19;2.31;1.05;208.0;-0.209471;-0.120337;5.5;5.5;4.5;4.25;1.0;0.5;0.0;0.25;0.0;1.0;0.5;0.0;0.0;0.5;0.0;0.0;-0.226562;-0.006348;0.98291;-0.84;-0.35;0.77;224.0;-0.276465;-0.039641
3.22;4.5;5.0;1.25;4.5;0.0;1.5;0.0;0.5;0.0;0.5;1.0;0.75;0.5;0.5;0.25;0.25;-0.19873;0.041992;0.987305;-1.05;2.45;1.19;198.0;-0.227261;-0.115632;5.5;5.5;4.5;4.25;0.75;0.5;0.0;0.5;0.0;0.75;0.0;0.25;0.0;0.5;0.0;0.25;-0.226074;-0.004395;0.98584;-0.7;-0.21;0.77;221.0;-0.281568;-0.05013
3.23;4.75;5.0;1.75;4.0;0.0;1.25;0.0;0.5;0.0;0.75;1.0;1.0;0.25;0.5;0.25;0.5;-0.20166;0.036621;0.986328;-1.12;2.38;1.12;202.0;-0.219265;-0.100985;5.5;5.5;4.5;4.25;0.5;0.5;0.0;0.25;0.0;0.5;0.25;0.5;0.0;0.25;0.0;0.0;-0.225098;-0.009277;0.983887;-0.7;-0.28;0.77;214.0;-0.292427;-0.0512
3.24;4.0;5.0;1.5;4.0;0.5;1.25;0.25;0.5;0.25;1.25;1.0;1.25;0.25;0.5;0.25;0.25;-0.195801;0.036133;0.980957;-1.19;2.31;1.12;209.0;-0.1865;-0.092674;5.5;5.5;4.0;4.0;0.75;0.75;0.0;0.25;0.25;0.5;0.5;0.5;0.0;0.5;0.0;0.0;-0.22168;-0.008301;0.987793;-0.91;-0.28;0.7;219.0;-0.270158;-0.047932
3.25;4.0;4.75;1.25;4.0;0.25;1.25;0.0;0.5;0.0;1.25;0.5;0.75;0.5;0.5;0.0;0.0;-0.199707;0.038086;0.990234;-1.05;2.31;1.12;184.0;-0.224522;-0.105462;5.5;5.25;3.75;4.0;0.75;0.75;0.0;0.0;0.25;0.75;0.5;0.0;0.0;0.75;0.0;0.25;-0.226074;-0.01123;0.985352;-0.84;-0.28;0.7;212.0;-0.268167;-0.035343
3.26;4.25;4.75;1.5;4.25;0.25;1.5;0.0;0.5;0.25;1.25;0.5;1.0;0.25;0.5;0.0;0.0;-0.199707;0.034668;0.982422;-1.19;2.31;1.12;198.0;-0.218485;-0.096984;5.25;5.25;4.0;4.25;0.75;0.5;0.0;0.25;0.0;1.0;0.5;0.0;0.0;0.25;0.0;0.25;-0.22168;-0.008789;0.983887;-0.7;-0.28;0.84;211.0;-0.278314;-0.048005
3.27;4.25;4.75;1.5;4.25;0.5;1.5;0.0;0.5;0.25;1.5;0.75;0.5;0.25;0.25;0.25;0.25;-0.202637;0.035645;0.990723;-1.19;2.17;1.12;202.0;-0.211909;-0.092418;5.25;5.5;4.0;4.0;0.75;0.5;0.0;0.25;0.0;1.0;0.5;0.25;0.0;0.25;0.0;0.25;-0.228027;-0.007324;0.987793;-0.84;-0.28;0.77;213.0;-0.274045;-0.049898
3.28;4.25;4.75;1.75;4.25;0.5;1.75;0.0;0.75;0.0;0.5;0.75;0.5;0.25;0.0;0.0;0.5;-0.200195;0.037109;0.97998;-1.26;2.38;1.12;195.0;-0.247831;-0.115198;5.5;5.5;4.25;4.0;0.75;0.5;0.0;0.25;0.25;0.5;0.25;0.25;0.0;0.25;0.0;0.25;-0.227051;-0.007324;0.986328;-0.84;-0.42;0.7;214.0;-0.285003;-0.043727
3.29;4.25;4.75;1.5;4.5;0.5;1.75;0.0;0.75;0.0;0.25;0.75;0.5;0.25;0.25;0.0;0.25;-0.20166;0.038574;0.984375;-1.26;2.45;1.12;193.0;-0.251385;-0.11729;5.5;5.5;4.5;4.25;0.75;0.75;0.0;0.5;0.5;0.5;0.25;0.25;0.25;0.25;0.0;0.0;-0.224609;-0.009766;0.983398;-0.77;-0.49;0.77;228.0;-0.271684;-0.05003
3.3;4.5;4.5;1.75;4.5;0.5;2.0;0.0;0.75;0.25;0.5;0.75;0.5;0.25;0.25;0.0;0.0;-0.20166;0.036621;0.977539;-1.26;2.38;1.12;203.0;-0.240898;-0.104323;5.5;5.5;4.5;4.25;0.75;0.75;0.0;0.25;0.25;0.5;0.0;0.25;0.25;0.5;0.0;0.5;-0.227051;-0.010254;0.985352;-0.84;-0.42;0.77;224.0;-0.275069;-0.049309
3.31;4.25;4.5;2.0;4.25;0.5;2.25;0.0;0.5;0.0;0.5;1.0;0.75;0.25;0.25;0.0;0.25;-0.194336;0.032227;0.981934;-1.19;2.52;1.12;202.0;-0.234318;-0.109321;5.5;5.5;4.25;4.25;0.5;0.5;0.0;0.25;0.0;0.5;0.25;0.25;0.25;0.5;0.25;0.25;-0.22168;-0.009766;0.984863;-0.84;-0.42;0.77;217.0;-0.276193;-0.0537
3.32;4.0;4.75;1.5;4.25;0.5;1.5;0.0;0.5;0.0;0.5;1.25;0.75;0.25;0.5;0.0;0.5;-0.197266;0.033691;0.984863;-1.26;2.59;1.19;195.0;-0.220628;-0.110037;5.5;5.5;4.25;4.5;0.75;0.5;0.0;0.25;0.25;0.5;0.25;0.25;0.25;0.5;0.25;0.0;-0.222168;-0.001953;0.977539;-0.77;-0.42;0.77;224.0;-0.271058;-0.048489
3.33;4.0;4.75;1.5;4.25;0.5;1.25;0.0;0.5;0.25;0.75;1.25;0.5;0.0;0.25;0.0;0.5;-0.199219;0.038086;0.98291;-1.19;2.59;1.12;192.0;-0.224266;-0.096695;5.5;5.25;4.0;3.5;0.75;0.5;0.0;0.25;0.25;0.75;0.5;0.25;0.0;0.5;0.0;0.0;-0.220215;-0.007812;0.989258;-0.77;-0.42;0.77;209.0;-0.269395;-0.035707
3.34;4.25;4.5;1.75;4.25;0.5;2.25;0.25;0.5;0.25;1.0;1.25;0.5;0.0;0.0;0.0;0.25;-0.19873;0.035645;0.980957;-1.19;2.31;1.12;207.0;-0.220469;-0.093537;5.25;5.5;4.25;3.75;0.75;0.5;0.0;0.25;0.25;0.75;0.5;0.25;0.0;0.5;0.0;0.25;-0.225098;-0.013184;0.982422;-0.77;-0.35;0.7;215.0;-0.265875;-0.040902
3.35;4.25;4.5;1.75;4.25;0.5;2.0;0.25;0.5;0.25;1.25;0.75;0.75;0.0;0.25;0.25;0.5;-0.199219;0.036133;0.983887;-1.33;2.38;1.12;210.0;-0.204752;-0.090099;5.5;5.5;4.5;4.0;1.0;0.5;0.0;0.5;0.25;0.75;0.25;0.25;0.0;0.25;0.0;0.0;-0.223633;-0.008301;0.979004;-0.7;-0.35;0.77;223.0;-0.276753;-0.043788
3.36;4.25;4.5;1.5;4.5;0.5;2.0;0.25;0.5;0.25;1.25;0.5;0.5;0.25;0.25;0.25;0.5;-0.201172;0.03418;0.98584;-1.19;2.31;1.05;207.0;-0.211197;-0.094824;5.5;5.5;4.5;4.25;0.75;0.25;0.0;0.5;0.0;0.5;0.25;0.25;0.0;0.0;0.0;0.0;-0.222168;-0.006348;0.985352;-0.7;-0.35;0.77;213.0;-0.299654;-0.052168
3.37;4.25;4.5;1.25;4.25;0.75;2.75;0.25;0.5;0.25;1.5;0.75;0.5;0.25;0.5;0.0;0.5;-0.199219;0.036621;0.984863;-1.26;2.45;1.05;217.0;-0.19812;-0.095989;5.5;5.75;4.0;4.25;0.75;0.25;0.0;0.5;0.0;0.75;0.5;0.25;0.25;0.25;0.0;0.0;-0.222656;-0.005859;0.982422;-0.7;-0.42;0.77;219.0;-0.279363;-0.057672
3.38;4.25;4.5;1.5;4.25;0.5;1.5;0.0;0.5;0.0;0.75;1.0;0.75;0.5;0.5;0.0;0.25;-0.19873;0.039062;0.984863;-1.19;2.52;1.05;196.0;-0.220324;-0.106892;5.5;5.5;3.75;4.25;0.75;0.5;0.0;0.5;0.0;0.5;0.5;0.25;0.0;0.25;0.0;0.0;-0.223145;-0.006348;0.981445;-0.7;-0.42;0.84;213.0;-0.286705;-0.058452
3.39;4.25;4.75;1.75;4.25;0.5;1.25;0.0;0.5;0.0;0.5;1.25;0.75;0.25;0.5;0.0;0.25;-0.195801;0.033203;0.984863;-1.33;2.31;1.12;196.0;-0.22798;-0.101446;5.5;5.25;4.0;4.0;0.75;0.75;0.0;0.25;0.25;0.5;0.5;0.25;0.0;0.25;0.0;0.0;-0.225098;-0.006836;0.984375;-0.63;-0.35;0.91;213.0;-0.28042;-0.046021
3.4;4.25;4.75;1.75;4.25;0.5;0.75;0.0;0.5;0.25;1.0;1.25;1.0;0.25;0.5;0.0;0.5;-0.195312;0.040039;0.987305;-1.4;2.52;0.98;203.0;-0.202867;-0.091425;5.75;4.75;4.25;4.25;0.75;0.75;0.0;0.25;0.0;0.25;0.5;0.0;0.25;0.25;0.0;0.25;-0.223145;-0.006348;0.984375;-0.56;-0.42;0.7;211.0;-0.290014;-0.050809
3.41;4.25;4.75;2.0;4.25;0.5;1.0;0.0;0.5;0.5;1.25;1.25;1.0;0.25;0.5;0.0;0.5;-0.203613;0.030762;0.980957;-1.33;2.52;1.12;213.0;-0.191629;-0.084509;5.5;5.5;4.5;4.0;0.75;0.75;0.0;0.5;0.0;0.25;0.5;0.25;0.0;0.5;0.0;0.0;-0.229004;-0.007812;0.987305;-0.56;-0.42;0.77;220.0;-0.283926;-0.05306
3.42;4.25;4.75;1.5;4.25;0.5;1.25;0.0;0.5;0.25;0.5;1.0;1.25;0.5;0.25;0.25;0.5;-0.195312;0.036621;0.982422;-1.26;2.38;1.05;203.0;-0.206395;-0.110051;5.5;5.5;3.75;4.0;0.75;1.0;0.0;0.25;0.0;0.5;0.5;0.25;0.0;0.5;0.0;0.0;-0.226562;-0.003906;0.983887;-0.7;-0.35;0.84;214.0;-0.281635;-0.053908
3.43;4.25;4.5;1.5;4.0;0.0;1.25;0.0;0.5;0.0;0.75;1.0;1.25;0.0;0.75;0.0;0.5;-0.199219;0.032715;0.984375;-1.33;2.45;1.05;190.0;-0.209799;-0.103385;5.5;5.5;4.0;4.25;0.5;0.5;0.0;0.25;0.0;0.5;0.75;0.25;0.0;0.75;0.0;0.0;-0.222168;-0.007324;0.977051;-0.7;-0.35;0.84;216.0;-0.274395;-0.04908
3.44;3.5;4.25;1.75;4.0;0.0;1.25;0.0;0.5;0.0;0.5;1.25;0.75;0.0;0.5;0.0;0.5;-0.202148;0.036621;0.984375;-1.26;2.31;1.05;177.0;-0.218836;-0.108663;5.5;5.5;4.25;4.25;0.75;0.25;0.0;0.25;0.0;0.5;0.75;0.5;0.0;0.5;0.0;0.25;-0.226074;-0.009277;0.97998;-0.7;-0.35;0.77;220.0;-0.271154;-0.049903
3.45;4.5;4.5;1.75;4.0;0.5;1.25;0.25;0.5;0.25;0.5;1.25;0.75;0.0;0.25;0.0;0.5;-0.20166;0.036133;0.983887;-1.19;2.38;1.05;198.0;-0.221167;-0.085387;5.5;5.5;3.25;4.25;0.75;0.5;0.0;0.25;0.25;0.5;0.5;0.5;0.25;0.0;0.0;0.25;-0.22168;-0.01123;0.983887;-0.7;-0.35;0.77;211.0;-0.27668;-0.062036
3.46;4.25;4.5;1.75;4.0;0.25;1.25;0.0;0.5;0.5;0.5;1.0;1.0;0.25;0.5;0.0;0.75;-0.196777;0.040527;0.981445;-1.26;2.17;1.19;198.0;-0.204576;-0.094749;5.25;5.75;3.75;4.0;1.0;0.5;0.0;0.25;0.25;0.5;0.25;0.25;0.25;0.25;0.0;0.0;-0.222656;-0.007812;0.984375;-0.56;-0.42;0.77;211.0;-0.283093;-0.050963
3.47;4.25;4.5;1.75;4.25;0.0;1.25;0.0;0.5;0.25;0.75;1.0;1.0;0.25;0.5;0.0;0.75;-0.198242;0.03418;0.98584;-1.26;2.24;1.05;197.0;-0.208273;-0.102087;5.5;5.5;4.0;4.25;0.75;0.75;0.0;0.25;0.25;0.5;0.5;0.25;0.25;0.25;0.25;0.0;-0.225098;-0.006348;0.980469;-0.63;-0.42;0.91;222.0;-0.270255;-0.05332
3.48;4.25;4.75;1.75;4.25;0.5;1.25;0.0;0.5;0.0;0.5;1.25;1.0;0.25;0.75;0.0;0.75;-0.203125;0.037109;0.979492;-1.19;2.24;1.19;203.0;-0.209395;-0.103674;5.5;5.5;4.0;4.25;0.75;0.5;0.0;0.5;0.25;0.5;0.25;0.25;0.0;0.25;0.25;0.0;-0.223633;-0.00293;0.990234;-0.56;-0.49;0.84;218.0;-0.276953;-0.051791
3.49;4.25;4.75;2.0;4.25;0.75;1.25;0.25;0.5;0.25;0.5;1.25;0.5;0.5;0.75;0.25;0.75;-0.20752;0.039062;0.98584;-1.33;2.45;1.12;214.0;-0.196805;-0.087296;5.5;5.5;4.25;4.25;0.75;0.5;0.0;0.25;0.0;0.5;0.25;0.5;0.0;0.0;0.0;0.25;-0.226562;-0.005371;0.980957;-0.63;-0.42;0.77;214.0;-0.29341;-0.055181
3.5;4.25;4.75;1.75;4.0;0.25;1.5;0.25;0.5;0.25;0.5;0.75;0.5;0.5;0.5;0.0;0.5;-0.197754;0.03418;0.986328;-1.19;2.52;1.12;196.0;-0.223375;-0.094552;5.5;5.5;4.0;4.0;0.75;0.75;0.0;0.25;0.0;0.75;0.25;0.25;0.25;0.25;0.0;0.0;-0.225586;-0.009277;0.991699;-0.63;-0.35;0.7;214.0;-0.284959;-0.053564
3.51;4.25;4.75;2.5;4.25;0.25;1.5;0.25;0.5;0.5;0.5;1.0;1.25;0.5;0.5;0.0;0.5;-0.196777;0.035156;0.983398;-1.33;2.52;1.26;219.0;-0.199827;-0.091452;5.5;5.5;4.25;4.25;0.75;0.5;0.0;0.25;0.25;0.75;0.25;0.0;0.25;0.5;0.0;0.0;-0.222656;-0.003906;0.98584;-0.7;-0.28;0.7;219.0;-0.278092;-0.042147
3.52;4.25;4.5;2.0;4.25;0.25;0.75;0.25;0.5;0.25;0.5;1.0;1.25;0.5;0.5;0.25;0.5;-0.199707;0.038574;0.984375;-1.12;2.38;1.12;204.0;-0.197192;-0.093826;5.5;5.5;4.0;4.25;0.75;0.5;0.0;0.5;0.0;0.75;0.25;0.0;0.0;0.5;0.0;0.0;-0.231934;-0.003418;0.985352;-0.63;-0.28;0.84;215.0;-0.285545;-0.049886
3.53;4.25;4.75;2.0;4.25;0.25;1.0;0.25;0.5;0.25;0.75;1.0;0.75;0.5;0.5;0.25;0.5;-0.197754;0.030762;0.981445;-1.19;2.24;1.12;206.0;-0.203355;-0.09018;5.5;5.5;4.0;4.25;0.75;0.5;0.0;0.5;0.0;0.75;0.25;0.25;0.0;0.5;0.0;0.0;-0.224121;-0.005859;0.982422;-0.56;-0.42;0.84;217.0;-0.280045;-0.052618
3.54;4.25;4.5;2.25;4.0;0.5;1.0;0.25;0.5;0.5;1.0;1.25;0.5;0.5;0.25;0.0;0.25;-0.204102;0.035156;0.981445;-1.19;2.17;1.19;206.0;-0.20442;-0.075797;5.5;5.25;4.0;4.25;1.0;0.25;0.0;0.5;0.0;0.75;0.25;0.25;0.0;0.5;0.0;0.25;-0.223145;-0.009277;0.982422;-0.7;-0.35;0.84;216.0;-0.27469;-0.049163
3.55;4.25;4.5;1.25;4.25;0.5;0.75;0.0;0.5;0.25;1.0;1.0;0.75;0.25;0.25;0.0;0.25;-0.198242;0.041504;0.984375;-1.4;2.17;1.05;187.0;-0.219701;-0.093891;5.5;5.5;4.0;4.25;1.0;0.5;0.0;0.25;0.0;0.75;0.25;0.0;0.0;0.5;0.0;0.25;-0.223633;-0.004883;0.980957;-0.49;-0.35;0.77;215.0;-0.284337;-0.04459
3.56;4.25;4.75;1.0;4.25;0.5;0.75;0.0;0.5;0.0;0.75;0.5;0.5;0.25;0.0;0.0;0.5;-0.196777;0.036621;0.982422;-1.26;2.24;1.05;174.0;-0.257086;-0.107184;5.5;5.5;4.0;4.25;0.75;0.5;0.0;0.5;0.0;0.75;0.25;0.0;0.0;0.25;0.0;0.25;-0.226562;-0.009277;0.981934;-0.49;-0.35;0.84;214.0;-0.288143;-0.053501
3.57;4.0;4.75;1.25;4.0;0.5;1.0;0.25;0.5;0.25;1.0;0.5;0.5;0.5;0.25;0.0;0.5;-0.202148;0.036133;0.984863;-1.26;2.24;1.12;187.0;-0.221113;-0.093845;5.75;5.75;4.0;4.25;0.75;0.75;0.0;0.25;0.0;0.75;0.5;0.25;0.25;0.25;0.0;0.5;-0.222656;-0.008789;0.985352;-0.28;-0.42;0.7;226.0;-0.274887;-0.058355
3.58;4.5;4.75;1.0;4.0;0.5;0.75;0.25;0.5;0.25;0.75;0.5;1.0;0.5;0.5;0.0;0.5;-0.201172;0.038086;0.984375;-1.26;2.31;1.12;191.0;-0.214328;-0.093221;5.75;5.75;4.25;4.25;0.75;1.0;0.0;0.25;0.25;1.0;0.5;0.0;0.0;0.5;0.0;0.0;-0.22168;-0.003906;0.984375;-0.28;-0.42;0.91;231.0;-0.271227;-0.04275
3.59;4.25;4.75;1.25;4.25;0.5;1.25;0.0;0.5;0.25;0.75;0.75;0.5;0.5;0.5;0.0;0.5;-0.197754;0.040039;0.987305;-1.26;2.24;1.26;193.0;-0.222503;-0.100934;5.5;5.75;4.5;4.5;0.75;1.0;0.0;0.25;0.25;0.5;0.25;0.25;0.0;0.5;0.0;0.0;-0.220215;-0.009766;0.98291;-0.21;-0.42;0.84;229.0;-0.28074;-0.048958
3.6;4.25;4.5;1.5;4.25;0.5;1.5;0.25;0.5;0.25;0.75;1.0;0.75;0.0;0.5;0.25;0.5;-0.199219;0.037598;0.980957;-1.26;2.24;1.12;202.0;-0.204691;-0.089209;5.75;5.5;4.5;4.5;0.75;0.5;0.0;0.25;0.0;0.25;0.0;0.5;0.0;0.5;0.0;0.0;-0.223145;-0.007812;0.979492;-0.14;-0.35;0.84;219.0;-0.296824;-0.048669
3.61;4.25;4.5;1.25;4.0;0.75;1.5;0.25;0.5;0.25;0.75;1.25;1.0;0.25;0.25;0.0;0.5;-0.199219;0.040039;0.98291;-1.33;2.24;1.12;202.0;-0.201452;-0.097025;6.0;5.75;4.25;4.5;0.75;0.5;0.0;0.25;0.25;0.5;0.5;0.25;0.0;0.5;0.0;0.0;-0.221191;-0.008789;0.98291;-0.28;-0.42;0.84;229.0;-0.280941;-0.043059
3.62;4.5;4.25;1.25;4.25;0.75;1.5;0.25;0.5;0.25;1.0;1.25;1.0;0.25;0.25;0.0;0.5;-0.196289;0.033691;0.976074;-1.26;2.31;1.12;207.0;-0.197543;-0.093673;5.5;5.75;4.25;4.5;0.75;0.75;0.0;0.5;0.25;0.5;0.5;0.0;0.0;0.75;0.0;0.0;-0.227539;-0.007324;0.986328;-0.28;-0.49;0.77;229.0;-0.2722;-0.049438
3.63;4.25;4.5;1.25;4.25;0.5;1.0;0.25;0.5;0.25;1.25;1.25;1.0;0.0;0.25;0.0;0.5;-0.195801;0.041504;0.984863;-1.19;2.31;1.12;200.0;-0.197899;-0.088775;6.0;5.5;4.5;4.25;0.75;0.5;0.0;0.25;0.25;0.5;0.0;0.0;0.25;0.5;0.0;0.0;-0.227051;-0.006348;0.984375;-0.21;-0.49;0.77;221.0;-0.291652;-0.037741
3.64;4.25;5.0;1.25;4.25;0.25;1.0;0.25;0.5;0.5;1.25;1.0;0.5;0.0;0.25;0.0;0.5;-0.192871;0.038574;0.981445;-1.26;2.38;1.12;197.0;-0.21169;-0.081443;6.0;5.75;4.25;4.5;0.75;0.75;0.0;0.25;0.0;0.5;0.0;0.0;0.25;0.5;0.0;0.0;-0.225586;-0.007324;0.985352;-0.28;-0.35;0.7;223.0;-0.298891;-0.049332
3.65;4.25;4.75;1.25;4.25;0.25;1.25;0.25;0.5;0.5;1.25;1.0;0.5;0.25;0.25;0.25;0.5;-0.199219;0.037109;0.985352;-1.12;2.38;1.19;202.0;-0.19767;-0.086677;6.0;6.0;4.25;4.5;0.75;0.5;0.0;0.5;0.0;0.25;0.25;0.0;0.0;0.0;0.0;0.0;-0.224121;-0.006836;0.985352;-0.35;-0.42;0.91;220.0;-0.314136;-0.055573
3.66;4.5;4.5;1.5;4.25;0.5;1.25;0.25;0.5;0.5;1.25;1.25;0.5;0.5;0.25;0.25;0.5;-0.203613;0.044922;0.986816;-1.26;2.52;1.12;212.0;-0.189509;-0.083688;6.0;6.25;4.0;4.5;0.75;0.5;0.0;0.25;0.0;0.5;0.25;0.0;0.0;0.25;0.25;0.0;-0.223633;-0.001953;0.979004;-0.28;-0.28;0.91;223.0;-0.300271;-0.050001
3.67;4.5;4.5;2.0;4.25;0.5;0.75;0.25;0.5;0.5;1.25;1.25;0.75;0.25;0.5;0.25;0.5;-0.20166;0.038086;0.981445;-1.4;2.66;1.12;214.0;-0.185554;-0.071665;6.0;6.0;4.5;4.5;0.75;0.5;0.0;0.25;0.0;0.5;0.25;0.25;0.0;0.5;0.0;0.0;-0.221191;-0.007812;0.979004;-0.35;-0.42;0.77;228.0;-0.294406;-0.046118
3.68;4.0;4.75;1.5;4.25;0.5;1.0;0.25;0.5;0.0;1.25;0.75;1.0;0.25;0.25;0.25;0.5;-0.200684;0.037598;0.981934;-1.19;2.45;1.19;199.0;-0.204648;-0.098134;6.0;5.5;4.5;4.5;0.75;0.75;0.0;0.25;0.0;0.25;0.0;0.25;0.0;0.25;0.0;0.0;-0.222656;-0.007812;0.97998;-0.42;-0.35;0.7;219.0;-0.308215;-0.048809
3.69;4.5;4.5;1.5;4.25;0.5;1.25;0.25;0.5;0.0;1.0;0.5;1.0;0.25;0.25;0.25;0.25;-0.205078;0.040527;0.983887;-1.4;2.31;1.19;198.0;-0.220611;-0.095029;6.25;5.75;4.5;4.5;0.75;0.75;0.0;0.25;0.0;0.25;0.25;0.0;0.0;0.25;0.0;0.0;-0.224121;0.002441;0.987793;-0.35;-0.42;0.84;224.0;-0.310109;-0.046301
3.7;4.75;4.5;2.0;4.0;0.5;1.0;0.25;0.5;0.25;1.25;0.5;1.0;0.25;0.25;0.0;0.25;-0.197754;0.03418;0.984375;-1.26;2.52;1.19;203.0;-0.218917;-0.077107;6.0;6.0;4.25;4.25;0.75;0.5;0.0;0.25;0.25;0.5;0.25;0.0;0.0;0.5;0.25;0.0;-0.227051;-0.005371;0.980957;-0.49;-0.42;0.84;226.0;-0.285388;-0.039131
3.71;4.5;4.5;1.5;4.0;0.5;1.25;0.0;0.5;0.0;1.25;0.75;0.75;0.0;0.25;0.0;0.5;-0.200195;0.040527;0.987305;-1.19;2.38;1.26;191.0;-0.22752;-0.092999;6.0;6.25;4.5;4.5;0.75;0.5;0.0;0.25;0.25;0.5;0.0;0.25;0.0;0.25;0.0;0.0;-0.221191;-0.01123;0.984863;-0.49;-0.42;0.84;229.0;-0.299808;-0.044208
3.72;4.25;4.75;1.25;4.0;0.5;1.5;0.0;0.5;0.0;1.25;0.75;0.5;0.25;0.25;0.0;0.5;-0.197266;0.038574;0.987793;-1.4;2.38;1.19;190.0;-0.227308;-0.102409;6.25;6.0;4.5;4.5;0.75;0.5;0.0;0.25;0.25;0.5;0.25;0.5;0.0;0.5;0.25;0.0;-0.228516;-0.005371;0.986328;-0.42;-0.42;0.77;238.0;-0.27634;-0.043443
3.73;4.25;4.75;1.25;4.5;0.75;1.5;0.0;0.5;0.0;1.25;0.75;0.75;0.25;0.5;0.25;0.5;-0.207031;0.037109;0.98877;-1.33;2.45;1.19;205.0;-0.208796;-0.102768;6.25;6.25;4.5;4.5;0.75;0.5;0.0;0.25;0.0;0.5;0.25;0.25;0.0;0.75;0.0;0.0;-0.227051;-0.006836;0.983398;-0.35;-0.49;0.84;234.0;-0.290713;-0.043764
3.74;4.25;4.75;1.5;4.5;0.5;1.5;0.25;0.5;0.5;1.25;1.0;0.5;0.25;0.5;0.0;0.5;-0.197266;0.033203;0.983398;-1.33;2.31;1.19;212.0;-0.199432;-0.084239;6.25;6.25;4.5;4.5;0.75;0.75;0.0;0.25;0.0;0.5;0.25;0.25;0.0;0.5;0.0;0.0;-0.225098;-0.01123;0.983398;-0.28;-0.42;0.77;235.0;-0.295094;-0.048034
3.75;4.5;4.5;1.75;4.25;0.5;1.5;0.25;0.5;0.25;1.0;1.0;0.5;0.25;0.5;0.25;0.25;-0.201172;0.035645;0.989258;-1.12;2.38;1.12;208.0;-0.207215;-0.082839;6.25;6.25;4.5;4.5;0.75;0.5;0.0;0.5;0.0;0.5;0.25;0.0;0.0;0.25;0.0;0.0;-0.222656;-0.009766;0.983887;-0.35;-0.49;0.84;231.0;-0.303614;-0.050102
3.76;4.25;4.5;1.75;4.0;0.5;1.25;0.25;0.5;0.5;1.0;0.5;0.75;0.25;0.5;0.0;0.25;-0.200195;0.039551;0.988281;-1.19;2.59;1.26;199.0;-0.210421;-0.077364;6.5;6.25;4.75;4.5;0.75;0.5;0.0;0.5;0.0;0.5;0.25;0.0;0.0;0.5;0.0;0.25;-0.22998;-0.001465;0.976562;-0.35;-0.49;0.91;240.0;-0.294892;-0.046563
3.77;4.25;4.5;1.5;4.25;0.5;1.25;0.0;0.5;0.5;1.25;0.25;1.0;0.0;0.5;0.0;0.5;-0.20166;0.038574;0.982422;-1.19;2.38;1.19;197.0;-0.210782;-0.085176;6.25;6.5;4.75;4.75;0.75;0.5;0.0;0.5;0.0;0.5;0.25;0.25;0.0;0.5;0.0;0.0;-0.219238;-0.004395;0.98291;-0.49;-0.49;0.7;243.0;-0.293175;-0.052057
3.78;4.0;4.5;1.25;4.0;0.25;1.25;0.0;0.5;0.25;1.25;0.5;0.5;0.25;0.5;0.0;0.25;-0.20166;0.035645;0.978027;-1.26;2.45;1.12;182.0;-0.220446;-0.093531;6.5;6.0;4.5;5.0;0.75;0.5;0.0;0.5;0.0;0.75;0.25;0.0;0.0;0.25;0.0;0.0;-0.225098;-0.011719;0.988281;-0.35;-0.42;0.84;239.0;-0.297857;-0.05004
3.79;4.25;4.5;1.5;4.25;0.0;2.0;0.25;0.5;0.25;1.25;0.5;0.5;0.0;0.5;0.25;0.5;-0.198242;0.034668;0.989746;-1.26;2.52;1.05;200.0;-0.210101;-0.090791;6.5;6.25;4.5;4.75;0.75;0.75;0.0;0.25;0.0;0.5;0.25;0.0;0.0;0.25;0.0;0.0;-0.223633;-0.009277;0.981934;-0.28;-0.42;0.84;235.0;-0.307149;-0.047673
3.8;4.25;4.0;1.25;4.0;0.0;1.75;0.25;0.5;0.25;1.25;0.5;0.75;0.25;0.25;0.25;0.5;-0.204102;0.036621;0.98291;-1.26;2.31;1.19;190.0;-0.201628;-0.096624;6.5;6.25;4.5;4.5;0.75;0.5;0.0;0.25;0.25;0.5;0.25;0.0;0.0;0.25;0.0;0.0;-0.227539;-0.009766;0.977539;-0.21;-0.35;0.84;233.0;-0.301782;-0.039235
3.81;4.25;4.5;1.25;4.0;0.25;1.25;0.25;0.5;0.0;1.25;0.5;0.75;0.5;0.25;0.0;0.5;-0.198242;0.035156;0.984375;-1.4;2.31;1.12;189.0;-0.217841;-0.10135;6.5;6.0;4.5;4.5;0.75;0.5;0.0;0.0;0.0;0.5;0.25;0.25;0.0;0.5;0.0;0.0;-0.225586;-0.005371;0.983887;-0.21;-0.42;0.77;229.0;-0.300938;-0.037669
3.82;4.25;4.75;2.5;4.0;0.5;1.0;0.25;0.5;0.0;1.25;0.5;0.25;0.25;0.5;0.0;0.5;-0.197266;0.038086;0.979004;-1.33;2.24;1.05;199.0;-0.230715;-0.074522;6.5;6.25;4.5;4.5;0.75;0.25;0.0;0.0;0.0;0.25;0.25;0.25;0.0;0.5;0.0;0.0;-0.224609;-0.004883;0.98291;-0.21;-0.35;0.7;226.0;-0.309338;-0.037345
3.83;4.25;4.5;2.0;4.25;0.5;1.5;0.25;0.5;0.25;1.0;0.5;0.5;0.0;0.25;0.0;0.25;-0.202637;0.035645;0.985352;-1.4;2.24;1.19;197.0;-0.233646;-0.080862;6.5;6.5;4.5;4.5;0.75;0.25;0.0;0.25;0.0;0.25;0.0;0.5;0.0;0.25;0.0;0.0;-0.220703;-0.006348;0.986816;-0.14;-0.28;0.63;230.0;-0.312088;-0.047601
3.84;3.5;4.5;1.5;4.25;0.5;1.0;0.25;0.5;0.0;1.0;0.5;0.25;0.0;0.5;0.25;0.25;-0.196289;0.037109;0.98584;-1.33;2.24;1.12;179.0;-0.226723;-0.088161;6.5;6.5;4.25;4.5;0.75;0.5;0.0;0.25;0.0;0.5;0.0;0.0;0.0;0.25;0.0;0.0;-0.224609;-0.001465;0.983398;-0.28;-0.35;0.7;227.0;-0.316152;-0.045171
3.85;4.25;5.0;1.5;4.25;0.25;0.75;0.0;0.5;0.0;1.25;0.75;0.0;0.0;0.25;0.0;0.25;-0.202148;0.033691;0.986328;-1.4;2.31;1.05;179.0;-0.255701;-0.086688;6.5;6.25;4.5;4.5;0.75;0.5;0.0;0.5;0.0;0.5;0.25;0.0;0.0;0.5;0.0;0.0;-0.224609;-0.001465;0.985352;-0.28;-0.49;0.91;236.0;-0.298684;-0.046619
3.86;4.5;5.0;1.75;4.25;0.25;1.25;0.0;0.5;0.25;1.25;1.25;0.5;0.0;0.25;0.0;0.25;-0.195312;0.040527;0.98584;-1.33;2.24;1.12;202.0;-0.22489;-0.087093;6.5;6.25;4.75;4.5;0.75;0.5;0.0;0.5;0.25;0.75;0.25;0.0;0.0;0.25;0.0;0.0;-0.225586;-0.006348;0.982422;-0.28;-0.35;0.7;242.0;-0.291899;-0.041934
3.87;4.75;4.75;1.75;4.0;0.5;1.25;0.0;0.5;0.25;1.0;0.75;0.5;0.0;0.5;0.0;0.25;-0.199707;0.036621;0.980469;-1.26;2.52;1.05;197.0;-0.233174;-0.078747;7.25;6.25;4.5;4.5;0.75;0.75;0.0;0.25;0.0;0.5;0.5;0.25;0.0;0.0;0.0;0.0;-0.220703;-0.000977;0.986816;-0.14;-0.49;0.91;243.0;-0.305563;-0.046214
3.88;4.25;4.75;1.75;4.25;0.25;1.25;0.0;0.5;0.25;1.25;0.5;0.5;0.25;0.25;0.0;0.25;-0.196777;0.036621;0.978516;-1.19;2.45;1.19;192.0;-0.233343;-0.091447;7.25;6.25;4.5;4.75;0.75;0.5;0.0;0.25;0.0;0.25;0.5;0.25;0.0;0.25;0.0;0.0;-0.227539;-0.004883;0.981445;-0.28;-0.28;0.84;242.0;-0.306524;-0.045013
3.89;4.0;4.75;1.5;4.25;0.25;0.75;0.25;0.5;0.25;1.25;0.5;0.5;0.25;0.5;0.0;0.25;-0.195801;0.039062;0.982422;-1.26;2.38;1.19;188.0;-0.220379;-0.082627;6.5;6.75;4.75;4.75;0.75;0.25;0.0;0.5;0.0;0.5;0.25;0.25;0.0;0.25;0.0;0.0;-0.219727;-0.008301;0.983398;-0.42;-0.42;0.84;243.0;-0.302433;-0.051062
3.9;4.0;4.75;1.75;4.25;0.5;0.75;0.25;0.5;0.5;1.25;0.25;0.75;0.25;0.5;0.25;0.25;-0.196777;0.037598;0.983887;-1.26;2.24;1.12;198.0;-0.205084;-0.075389;7.0;7.0;4.5;4.5;0.75;0.25;0.0;0.5;0.0;0.5;0.25;0.0;0.0;0.5;0.0;0.0;-0.228027;-0.007812;0.983398;-0.49;-0.49;0.77;244.0;-0.305254;-0.04439
3.91;4.0;4.75;2.0;4.25;0.25;1.25;0.25;0.5;0.0;1.25;0.25;0.5;0.5;0.5;0.25;0.0;-0.20166;0.035156;0.985352;-1.4;2.38;1.12;196.0;-0.224564;-0.090415;6.75;6.75;4.5;4.5;0.75;0.5;0.0;0.25;0.0;0.5;0.25;0.0;0.0;0.5;0.0;0.0;-0.227051;-0.000488;0.984863;-0.77;-0.35;0.77;239.0;-0.305969;-0.04216
3.92;4.0;4.75;1.25;4.25;0.25;0.75;0.25;0.5;0.0;0.5;0.5;0.5;0.25;0.5;0.25;0.0;-0.198242;0.039062;0.98877;-1.19;2.38;1.12;176.0;-0.241985;-0.095462;6.5;6.5;4.75;4.75;0.75;0.5;0.0;0.25;0.0;0.5;0.25;0.0;0.25;0.5;0.0;0.0;-0.224609;-0.005371;0.986328;-0.77;-0.49;0.91;241.0;-0.299503;-0.046534
3.93;4.0;4.5;0.75;4.25;0.25;0.75;0.0;0.5;0.25;0.5;0.75;0.75;0.0;0.25;0.0;0.25;-0.20166;0.036133;0.985352;-1.19;2.24;1.12;168.0;-0.241088;-0.104401;6.5;6.5;4.75;4.5;0.75;0.5;0.0;0.5;0.0;0.5;0.5;0.0;0.0;0.25;0.0;0.0;-0.224609;-0.007812;0.98584;-0.63;-0.42;0.77;241.0;-0.299914;-0.04873
3.94;4.0;4.75;1.0;4.25;0.25;0.5;0.0;0.5;0.5;1.0;0.75;0.75;0.25;0.0;0.0;0.5;-0.20166;0.035645;0.985352;-1.12;2.38;1.12;180.0;-0.222039;-0.097754;6.5;6.5;4.5;4.5;0.75;0.5;0.0;0.0;0.0;0.5;0.5;0.0;0.0;0.25;0.0;0.25;-0.227539;-0.00293;0.983398;-0.63;-0.35;0.77;233.0;-0.305342;-0.041411
3.95;3.75;4.5;1.25;4.25;0.25;0.75;0.0;0.5;0.25;1.25;0.75;1.0;0.0;0.5;0.0;0.5;-0.192871;0.036621;0.980957;-1.19;2.17;1.19;184.0;-0.204049;-0.096169;6.5;6.75;4.75;4.5;0.75;0.75;0.0;0.0;0.0;0.5;0.25;0.0;0.25;0.25;0.0;0.0;-0.22168;-0.004883;0.979004;-0.7;-0.49;0.77;238.0;-0.309159;-0.044874
3.96;4.25;4.5;1.5;4.0;0.25;0.75;0.0;0.5;0.0;1.0;1.0;0.5;0.0;0.25;0.0;0.5;-0.200195;0.037109;0.98584;-1.12;2.31;1.12;179.0;-0.234767;-0.092493;6.75;6.75;4.5;4.5;0.75;0.25;0.0;0.25;0.25;0.25;0.25;0.0;0.0;0.5;0.0;0.0;-0.223145;-0.006836;0.98584;-0.7;-0.28;0.84;237.0;-0.305965;-0.036804
3.97;4.25;4.75;1.25;4.25;0.25;0.75;0.0;0.5;0.25;0.75;1.0;0.0;0.25;0.0;0.0;0.5;-0.192871;0.034668;0.982422;-1.19;2.31;1.19;177.0;-0.250031;-0.095373;6.5;6.5;4.75;4.5;0.5;0.25;0.0;0.25;0.0;0.5;0.25;0.25;0.0;0.25;0.0;0.0;-0.229004;-0.00293;0.987305;-0.7;-0.28;0.7;232.0;-0.307812;-0.044261
3.98;4.25;4.75;1.25;4.25;0.5;0.75;0.0;0.5;0.0;1.0;0.5;0.25;0.0;0.25;0.0;0.25;-0.20166;0.037598;0.986328;-1.26;2.45;1.05;175.0;-0.258673;-0.090704;6.5;6.5;4.5;4.75;0.25;0.5;0.0;0.25;0.0;0.5;0.25;0.0;0.0;0.0;0.25;0.0;-0.227539;-0.003418;0.989258;-0.7;-0.21;0.91;230.0;-0.3124;-0.050972
3.99;4.25;4.75;1.25;4.25;0.5;1.0;0.0;0.75;0.0;1.0;0.5;0.25;0.0;0.25;0.0;0.25;-0.203125;0.035645;0.986328;-1.12;2.17;1.12;181.0;-0.252475;-0.098995;7.0;6.5;4.5;4.5;0.5;0.5;0.0;0.25;0.0;0.5;0.0;0.0;0.0;0.25;0.25;0.0;-0.224609;-0.007812;0.983398;-0.77;-0.28;0.77;235.0;-0.311959;-0.04212
4.0;4.25;5.0;1.25;4.25;0.5;1.25;0.0;0.5;0.0;1.0;1.0;0.25;0.25;0.25;0.0;0.5;-0.198242;0.034668;0.984375;-1.19;2.38;1.05;190.0;-0.236868;-0.102299;7.0;6.5;4.75;4.25;0.75;0.5;0.0;0.25;0.0;0.25;0.25;0.0;0.0;0.5;0.0;0.0;-0.228516;-0.006836;0.984375;-0.77;-0.35;0.77;237.0;-0.311206;-0.03726
4.01;4.25;4.75;1.5;4.25;0.0;1.25;0.0;0.5;0.0;1.25;1.25;0.5;0.5;0.5;0.0;0.5;-0.199707;0.043457;0.978027;-1.4;2.31;1.26;197.0;-0.210714;-0.104699;7.0;6.25;4.75;4.5;0.5;0.5;0.0;0.25;0.0;0.25;0.25;0.0;0.0;0.5;0.0;0.0;-0.222656;-0.007324;0.988281;-0.77;-0.42;0.7;235.0;-0.311997;-0.039165
4.02;4.5;4.75;1.75;4.5;0.25;1.5;0.0;0.5;0.0;1.25;0.5;0.5;0.5;0.5;0.0;0.5;-0.200195;0.036621;0.984375;-1.12;2.31;1.12;202.0;-0.228371;-0.100844;6.5;7.0;4.25;5.0;0.75;0.5;0.0;0.25;0.0;0.25;0.25;0.0;0.0;0.5;0.0;0.0;-0.225586;-0.004395;0.984375;-0.77;-0.35;0.7;239.0;-0.311472;-0.051056
4.03;4.0;4.75;2.0;4.5;0.5;0.5;0.0;0.5;0.0;1.25;0.5;0.5;0.25;0.5;0.0;0.75;-0.204102;0.038086;0.986328;-1.26;2.24;1.12;192.0;-0.227447;-0.090056;6.5;6.75;4.5;4.5;0.75;0.5;0.0;0.0;0.0;0.25;0.25;0.0;0.25;0.5;0.0;0.0;-0.228516;-0.006836;0.98291;-0.7;-0.42;0.91;233.0;-0.310879;-0.043152
4.04;4.25;4.75;1.5;4.5;0.25;0.5;0.0;0.5;0.25;1.25;0.5;0.5;0.25;0.5;0.25;0.75;-0.203613;0.034668;0.980469;-1.19;2.45;1.05;192.0;-0.214394;-0.088571;6.75;6.75;4.5;4.5;0.75;0.5;0.0;0.25;0.0;0.5;0.25;0.25;0.25;0.5;0.0;0.0;-0.226562;-0.006836;0.984375;-0.77;-0.35;0.77;243.0;-0.296959;-0.048115
4.05;4.25;4.75;1.75;4.5;0.5;1.25;0.0;0.5;0.0;1.25;0.25;0.75;0.5;0.5;0.0;0.5;-0.202148;0.037598;0.988281;-1.19;2.38;1.12;200.0;-0.226108;-0.101318;7.0;6.75;4.5;4.5;0.75;0.5;0.0;0.5;0.0;0.5;0.25;0.0;0.0;0.25;0.0;0.0;-0.221191;-0.010254;0.986328;-0.77;-0.35;0.77;243.0;-0.308494;-0.047463
4.06;4.25;4.75;1.75;4.25;0.5;0.75;0.0;0.5;0.25;1.25;0.5;0.25;0.5;0.25;0.0;0.5;-0.199219;0.033691;0.98584;-1.19;2.31;1.12;191.0;-0.231534;-0.087444;7.0;6.75;4.75;4.5;0.75;0.5;0.0;0.0;0.0;0.5;0.0;0.0;0.25;0.5;0.0;0.0;-0.222656;-0.010742;0.984375;-0.77;-0.35;0.91;240.0;-0.312112;-0.036954
4.07;4.25;4.75;1.75;4.25;0.25;0.75;0.0;0.5;0.25;1.0;0.75;0.25;0.5;0.25;0.0;0.5;-0.200684;0.038574;0.983398;-1.19;2.17;1.12;188.0;-0.233097;-0.091704;6.5;6.5;4.75;5.0;0.75;0.5;0.0;0.0;0.0;0.5;0.0;0.0;0.0;0.5;0.0;0.0;-0.22168;-0.005371;0.984863;-0.84;-0.42;0.7;236.0;-0.312895;-0.039134
4.08;4.25;4.75;2.0;4.25;0.25;1.25;0.0;0.5;0.0;1.25;0.25;0.5;0.25;0.5;0.5;0.5;-0.200684;0.031738;0.987793;-1.19;2.52;1.12;198.0;-0.220942;-0.092875;6.5;6.75;4.75;4.75;0.5;0.25;0.0;0.25;0.25;0.25;0.5;0.0;0.0;0.5;0.0;0.25;-0.226074;-0.006348;0.983887;-0.7;-0.42;0.63;241.0;-0.297524;-0.042105
4.09;4.25;5.0;2.5;4.25;0.25;1.25;0.0;0.5;0.0;1.25;0.0;0.5;0.25;0.5;0.25;0.25;-0.202637;0.039551;0.984375;-1.19;2.45;1.12;199.0;-0.240836;-0.087435;6.5;6.75;4.75;4.75;0.5;0.25;0.0;0.25;0.25;0.5;0.25;0.0;0.0;0.5;0.25;0.0;-0.226074;-0.007324;0.984375;-0.77;-0.35;0.84;242.0;-0.293779;-0.039331
4.1;4.75;4.75;2.0;4.25;0.0;1.25;0.25;0.5;0.25;1.25;0.5;1.0;0.25;0.5;0.0;0.25;-0.192871;0.037109;0.984863;-1.19;2.45;1.19;207.0;-0.217276;-0.083101;6.25;6.75;4.5;4.75;0.75;0.25;0.0;0.25;0.25;0.5;0.25;0.0;0.0;0.25;0.0;0.0;-0.225586;-0.006348;0.983887;-0.7;-0.35;0.84;235.0;-0.304247;-0.042506
4.11;4.5;4.75;1.5;4.25;0.0;1.25;0.25;0.75;0.25;1.0;0.75;0.5;0.5;0.5;0.0;0.25;-0.202637;0.037598;0.983398;-1.12;2.52;1.12;201.0;-0.216852;-0.095894;6.0;6.5;4.5;4.5;0.75;0.5;0.0;0.25;0.0;0.25;0.25;0.25;0.0;0.5;0.0;0.0;-0.224121;-0.00293;0.978516;-0.7;-0.35;0.7;230.0;-0.302186;-0.049457
4.12;4.25;4.75;1.5;4.25;0.25;1.5;0.25;0.75;0.25;1.0;0.5;0.75;0.5;0.25;0.0;0.5;-0.198242;0.038086;0.983887;-1.12;2.59;1.19;202.0;-0.215411;-0.104633;6.75;6.25;4.5;4.5;0.75;0.5;0.0;0.25;0.0;0.25;0.5;0.5;0.0;0.25;0.0;0.0;-0.225098;-0.005371;0.989258;-0.77;-0.35;0.84;238.0;-0.299551;-0.048728
4.13;4.25;4.75;2.0;4.25;0.5;1.25;0.25;0.5;0.0;0.75;0.5;0.75;0.5;0.5;0.0;0.5;-0.203613;0.038574;0.98584;-1.12;2.52;1.12;201.0;-0.226185;-0.095467;7.0;6.5;4.5;4.5;0.75;0.25;0.0;0.5;0.0;0.25;0.25;0.25;0.25;0.25;0.0;0.0;-0.223145;-0.008789;0.985352;-0.56;-0.35;0.84;240.0;-0.305429;-0.051125
4.14;4.25;4.5;1.25;4.25;0.5;1.0;0.0;0.5;0.0;1.0;0.75;0.5;0.5;0.5;0.25;0.25;-0.197266;0.035156;0.980469;-1.33;2.38;1.12;188.0;-0.21882;-0.100168;7.25;6.75;4.5;4.5;0.75;0.25;0.0;0.5;0.0;0.25;0.0;0.0;0.0;0.5;0.0;0.0;-0.226074;-0.003418;0.98584;-0.77;-0.28;0.77;240.0;-0.315962;-0.042169
