Time;left pressure 1[N/cm²];left pressure 2[N/cm²];left pressure 3[N/cm²];left pressure 4[N/cm²];left pressure 5[N/cm²];left pressure 6[N/cm²];left pressure 7[N/cm²];left pressure 8[N/cm²];left pressure 9[N/cm²];left pressure 10[N/cm²];left pressure 11[N/cm²];left pressure 12[N/cm²];left pressure 13[N/cm²];left pressure 14[N/cm²];left pressure 15[N/cm²];left pressure 16[N/cm²];left acceleration X[g];left acceleration Y[g];left acceleration Z[g];left angular X[dps];left angular Y[dps];left angular Z[dps];left total force[N];left center of pressure X[-0.5...+0.5];left center of pressure Y[-0.5...+0.5];right pressure 1[N/cm²];right pressure 2[N/cm²];right pressure 3[N/cm²];right pressure 4[N/cm²];right pressure 5[N/cm²];right pressure 6[N/cm²];right pressure 7[N/cm²];right pressure 8[N/cm²];right pressure 9[N/cm²];right pressure 10[N/cm²];right pressure 11[N/cm²];right pressure 12[N/cm²];right pressure 13[N/cm²];right pressure 14[N/cm²];right pressure 15[N/cm²];right pressure 16[N/cm²];right acceleration X[g];right acceleration Y[g];right acceleration Z[g];right angular X[dps];right angular Y[dps];right angular Z[dps];right total force[N];right center of pressure X[-0.5...+0.5];right center of pressure Y[-0.5...+0.5]
0.0;8.25;5.0;6.25;3.25;0.25;0.0;0.25;0.0;1.75;0.5;1.0;0.5;0.0;1.5;0.75;0.25;-0.233887;0.027344;0.986816;-1.47;0.56;0.49;338.0;-0.203496;0.019295;4.0;7.0;4.25;5.25;0.75;1.0;0.0;0.5;1.0;1.0;1.5;0.75;0.5;1.75;0.75;0.25;-0.25;0.031738;0.982422;-0.42;-1.19;1.05;342.0;-0.17215;-0.066113
0.01;8.25;4.75;6.25;3.0;0.25;0.0;0.25;0.0;1.75;0.5;1.0;0.5;0.0;1.5;0.75;0.25;-0.233887;0.029297;0.979004;-1.4;0.56;0.42;332.0;-0.201122;0.022902;4.25;6.75;4.0;4.75;0.75;1.25;0.25;0.5;1.0;1.0;1.5;0.75;0.5;1.75;0.5;0.5;-0.245117;0.027344;0.973633;-0.35;-1.12;0.98;339.0;-0.168717;-0.061512
0.02;8.25;4.75;6.0;3.0;0.25;0.0;0.25;0.0;1.75;0.25;0.75;0.5;0.0;1.5;0.75;0.25;-0.234863;0.018555;0.987793;-1.47;0.56;0.49;324.0;-0.208165;0.023143;4.25;7.0;4.0;5.25;0.75;1.25;0.25;0.5;0.75;0.5;1.25;0.75;0.5;1.75;0.5;0.25;-0.250977;0.025879;0.98291;-0.35;-1.12;0.98;334.0;-0.189948;-0.069377
0.03;8.25;5.0;6.0;3.25;0.25;0.0;0.25;0.0;1.75;0.0;0.75;0.5;0.0;1.25;0.75;0.25;-0.232422;0.030273;0.986816;-1.47;0.63;0.49;324.0;-0.218902;0.017912;4.25;7.25;4.0;5.25;0.75;1.25;0.25;0.5;0.5;0.5;0.5;0.75;0.5;1.5;0.5;0.25;-0.253906;0.029297;0.976074;-0.49;-1.12;0.98;322.0;-0.212086;-0.074488
0.04;8.25;5.25;6.25;3.25;0.25;0.0;0.25;0.0;2.0;0.0;0.75;0.5;0.0;1.5;0.75;0.25;-0.228516;0.026367;0.987793;-1.54;0.56;0.42;336.0;-0.211376;0.021017;4.25;7.25;4.25;5.25;0.75;1.0;0.0;0.5;0.5;0.75;1.0;0.75;0.5;1.5;0.25;0.5;-0.24707;0.027832;0.97168;-0.49;-1.26;0.98;325.0;-0.208035;-0.075692
0.05;8.5;5.25;6.5;3.25;0.25;0.0;0.25;0.0;2.0;0.0;0.75;0.5;0.0;1.25;0.5;0.25;-0.224121;0.023438;0.983398;-1.68;0.49;0.49;336.0;-0.223067;0.022172;4.25;7.5;4.25;5.25;0.75;1.0;0.0;0.5;0.75;0.5;1.0;0.75;0.5;1.5;0.5;0.25;-0.25;0.03125;0.972656;-0.49;-1.19;0.98;330.0;-0.205662;-0.072781
0.06;8.5;5.25;6.25;3.5;0.25;0.0;0.25;0.0;1.75;0.25;1.0;0.25;0.0;1.5;0.75;0.25;-0.232422;0.027832;0.986816;-1.68;0.56;0.42;341.0;-0.214666;0.018813;4.25;7.5;4.25;5.25;0.75;1.0;0.0;0.5;0.75;0.5;1.5;1.0;0.5;1.5;0.5;0.25;-0.252441;0.027832;0.97998;-0.63;-1.12;0.91;339.0;-0.194845;-0.075405
0.07;8.25;5.25;6.25;3.25;0.25;0.0;0.25;0.0;1.75;0.25;0.75;0.25;0.0;1.5;0.5;0.25;-0.228516;0.021484;0.984375;-1.75;0.56;0.42;329.0;-0.221631;0.022309;4.25;7.5;4.25;5.25;0.75;1.0;0.0;0.5;0.5;0.5;1.25;0.5;0.5;1.5;0.0;0.25;-0.246094;0.029785;0.974609;-0.56;-1.12;1.05;321.0;-0.221653;-0.074866
0.08;8.5;5.0;6.25;3.0;0.0;0.0;0.25;0.0;1.75;0.25;0.75;0.25;0.0;1.5;0.5;0.25;-0.230469;0.023926;0.984375;-1.68;0.63;0.56;323.0;-0.221983;0.026465;4.25;7.75;4.25;5.25;0.75;1.0;0.0;0.5;0.75;0.75;1.0;0.5;0.25;1.25;0.0;0.25;-0.25;0.025879;0.975098;-0.63;-1.05;0.84;322.0;-0.225197;-0.069107
0.09;8.5;5.25;6.25;3.0;0.0;0.0;0.25;0.0;2.0;0.25;0.5;0.0;0.0;1.5;0.5;0.0;-0.225098;0.023926;0.989258;-1.82;0.56;0.49;322.0;-0.228704;0.033421;4.5;8.0;4.25;5.25;0.75;1.25;0.0;0.5;0.75;0.5;1.0;0.5;0.25;1.25;0.0;0.0;-0.254883;0.029297;0.975098;-0.63;-1.05;0.91;326.0;-0.234275;-0.070221
0.1;8.25;5.25;6.25;3.0;0.0;0.0;0.25;0.0;1.5;0.25;0.5;0.25;0.0;1.5;0.5;0.25;-0.231445;0.021973;0.984863;-1.82;0.49;0.42;317.0;-0.231362;0.022681;4.75;8.25;4.25;5.25;0.75;1.0;0.0;0.5;0.5;0.5;1.0;0.5;0.25;1.0;0.0;0.0;-0.253418;0.030762;0.974121;-0.56;-1.05;0.84;323.0;-0.248033;-0.073135
0.11;8.5;5.25;6.25;3.25;0.25;0.0;0.25;0.0;1.75;0.5;0.5;0.0;0.0;1.25;0.25;0.25;-0.232422;0.020508;0.986328;-1.89;0.7;0.49;324.0;-0.237066;0.027295;4.5;8.0;4.0;5.25;0.75;0.75;0.0;0.25;0.5;0.5;1.0;0.5;0.25;1.25;0.25;0.0;-0.25;0.025879;0.977051;-0.63;-1.05;0.84;312.0;-0.23822;-0.067686
0.12;8.5;5.5;6.25;2.75;0.25;0.0;0.25;0.0;1.75;0.25;1.0;0.0;0.0;1.25;0.5;0.25;-0.237305;0.024414;0.98877;-1.89;0.63;0.42;326.0;-0.227898;0.026645;4.5;8.25;4.25;5.5;0.75;1.25;0.0;0.25;0.5;0.5;0.75;0.5;0.25;1.25;0.0;0.0;-0.249512;0.021484;0.979004;-0.77;-1.05;0.77;321.0;-0.248648;-0.07168
0.13;9.0;5.25;6.5;3.0;0.25;0.0;0.25;0.0;1.75;0.0;0.75;0.25;0.0;1.75;0.5;0.25;-0.230957;0.02002;0.992676;-1.96;0.49;0.42;337.0;-0.225544;0.028014;4.75;8.5;4.25;5.5;0.5;1.25;0.0;0.5;0.5;0.5;0.75;0.75;0.25;1.0;0.0;0.0;-0.253418;0.020996;0.969238;-0.84;-1.19;0.77;328.0;-0.25006;-0.079858
0.14;8.75;5.25;6.25;3.25;0.25;0.0;0.25;0.0;2.0;0.25;0.75;0.0;0.0;1.5;0.25;0.25;-0.230469;0.025391;0.986328;-1.96;0.49;0.42;333.0;-0.228737;0.030152;5.0;8.5;4.25;5.5;0.75;1.0;0.0;0.25;0.5;0.25;0.75;0.5;0.25;1.25;0.0;0.0;-0.248047;0.029297;0.96875;-0.84;-0.98;0.84;323.0;-0.257849;-0.068598
0.15;8.75;5.25;7.0;3.5;0.25;0.0;0.25;0.0;1.75;0.25;0.5;0.25;0.0;1.5;0.25;0.25;-0.231445;0.015625;0.990234;-2.17;0.49;0.35;341.0;-0.23544;0.025405;5.25;8.25;4.25;5.5;0.75;1.0;0.0;0.25;0.5;0.5;1.0;0.5;0.25;1.25;0.25;0.25;-0.24707;0.027344;0.969238;-0.77;-1.05;0.77;334.0;-0.241035;-0.066838
0.16;8.75;5.25;6.25;3.25;0.0;0.0;0.25;0.0;1.75;0.25;0.5;0.0;0.0;1.25;0.25;0.25;-0.231934;0.018555;0.988281;-2.1;0.42;0.35;321.0;-0.243809;0.027372;5.5;8.5;4.25;5.5;0.75;1.25;0.0;0.5;0.25;0.5;1.0;0.25;0.25;1.0;0.5;0.25;-0.247559;0.030273;0.97168;-0.63;-0.98;0.77;340.0;-0.248144;-0.075335
0.17;8.75;5.0;6.25;3.25;0.25;0.0;0.25;0.0;2.0;0.25;0.5;0.0;0.0;1.5;0.5;0.25;-0.234375;0.025391;0.984863;-2.17;0.49;0.42;330.0;-0.225715;0.031942;5.75;8.5;4.25;5.5;0.75;1.0;0.0;0.25;0.25;0.25;1.0;0.25;0.25;1.0;0.5;0.0;-0.251465;0.029297;0.97168;-0.77;-1.05;0.77;332.0;-0.260193;-0.068149
0.18;9.0;5.25;6.25;3.0;0.0;0.0;0.25;0.0;1.75;0.0;0.5;0.25;0.0;1.25;0.5;0.25;-0.230957;0.020996;0.992188;-2.1;0.49;0.28;324.0;-0.239247;0.02625;5.5;8.25;4.25;5.5;0.75;1.0;0.0;0.25;0.25;0.25;1.0;0.25;0.25;1.0;0.5;0.0;-0.25;0.026367;0.979004;-0.49;-0.98;0.84;326.0;-0.257744;-0.068927
0.19;8.75;5.25;6.25;3.0;0.0;0.0;0.25;0.0;1.5;0.0;0.75;0.0;0.0;1.25;0.5;0.25;-0.228516;0.023926;0.987793;-2.17;0.49;0.35;317.0;-0.243252;0.024362;5.5;8.25;4.5;5.5;0.5;1.0;0.0;0.25;0.25;0.25;0.75;0.5;0.25;1.0;0.5;0.0;-0.246582;0.02832;0.975586;-0.56;-0.98;0.91;326.0;-0.259149;-0.070236
0.2;8.5;5.25;6.5;3.25;0.25;0.0;0.25;0.0;1.75;0.25;0.5;0.0;0.0;1.25;0.5;0.25;-0.233398;0.020508;0.985352;-2.17;0.49;0.35;327.0;-0.235829;0.026595;5.5;8.5;4.25;5.5;0.75;1.0;0.0;0.25;0.25;0.25;1.0;0.5;0.25;1.0;0.0;0.0;-0.252441;0.030762;0.974609;-0.49;-1.05;0.84;326.0;-0.266545;-0.071449
0.21;9.0;5.5;6.5;3.0;0.0;0.0;0.25;0.0;1.75;0.0;0.5;0.0;0.0;1.5;0.25;0.0;-0.231445;0.021484;0.985352;-2.1;0.42;0.42;324.0;-0.248651;0.031809;5.5;8.25;4.25;5.5;0.5;1.0;0.0;0.5;0.5;0.5;0.75;0.5;0.25;1.0;0.0;0.0;-0.250977;0.028809;0.971191;-0.35;-1.05;0.91;328.0;-0.257662;-0.070672
0.22;8.75;5.25;6.5;3.0;0.0;0.0;0.25;0.0;1.75;0.0;0.5;0.0;0.0;1.5;0.25;0.0;-0.233887;0.020508;0.989746;-2.1;0.56;0.42;319.0;-0.24595;0.03269;5.5;8.25;4.25;5.5;0.5;1.0;0.0;0.5;0.25;0.5;1.0;0.25;0.25;1.0;0.25;0.0;-0.251465;0.030273;0.973145;-0.42;-1.05;0.91;327.0;-0.257338;-0.072957
0.23;8.75;5.0;6.5;3.0;0.25;0.0;0.25;0.0;1.75;0.25;0.75;0.25;0.0;1.25;0.25;0.0;-0.231445;0.021484;0.985352;-2.1;0.49;0.42;326.0;-0.235793;0.029516;5.25;8.5;4.25;5.5;0.5;1.25;0.0;0.25;0.25;0.25;1.0;0.5;0.25;0.75;0.5;0.0;-0.25;0.030273;0.975098;-0.21;-1.12;0.98;327.0;-0.25861;-0.078025
0.24;9.0;5.25;7.0;3.5;0.25;0.0;0.25;0.0;2.0;0.25;0.5;0.0;0.0;1.25;0.25;0.0;-0.230469;0.025879;0.986816;-1.89;0.28;0.42;341.0;-0.242434;0.031864;5.25;8.25;4.25;5.5;0.5;1.0;0.0;0.25;0.25;0.25;1.0;0.25;0.25;1.0;0.25;0.25;-0.252441;0.030762;0.974609;-0.0;-1.19;0.91;319.0;-0.260805;-0.072744
0.25;9.25;5.25;6.5;3.0;0.25;0.0;0.25;0.0;1.75;0.25;0.5;0.0;0.0;1.25;0.5;0.25;-0.229492;0.020508;0.981445;-1.96;0.42;0.35;332.0;-0.23964;0.030966;5.5;8.5;4.25;5.5;0.5;1.25;0.0;0.25;0.25;0.25;0.75;0.25;0.25;1.0;0.25;0.0;-0.25;0.027344;0.972168;0.07;-1.33;1.05;323.0;-0.269426;-0.072239
0.26;9.0;5.25;6.25;3.0;0.25;0.0;0.25;0.0;1.75;0.25;0.5;0.25;0.0;1.25;0.25;0.25;-0.230957;0.018555;0.986328;-1.89;0.7;0.35;326.0;-0.239703;0.027853;5.0;8.5;4.25;5.5;0.5;1.25;0.0;0.25;0.5;0.25;0.75;0.5;0.25;1.0;0.25;0.0;-0.253418;0.029785;0.972656;0.14;-1.26;0.98;324.0;-0.257023;-0.073563
0.27;9.0;5.5;6.25;3.25;0.25;0.0;0.25;0.0;1.75;0.25;0.5;0.25;0.0;1.5;0.25;0.0;-0.22998;0.020508;0.984863;-1.96;0.42;0.42;333.0;-0.239596;0.026673;5.25;8.75;4.25;5.5;0.5;1.0;0.0;0.25;0.25;0.5;0.75;0.5;0.25;0.75;0.0;0.0;-0.254395;0.030273;0.973633;0.49;-1.4;1.05;320.0;-0.272661;-0.075237
0.28;9.0;5.25;6.5;3.0;0.25;0.0;0.25;0.0;1.75;0.0;0.5;0.0;0.0;1.25;0.25;0.0;-0.228027;0.018066;0.980469;-1.75;0.63;0.21;322.0;-0.250951;0.032581;5.5;9.0;4.25;5.5;0.5;1.25;0.0;0.5;0.25;0.25;0.75;0.5;0.25;1.0;0.0;0.0;-0.246582;0.030273;0.980469;0.7;-1.47;1.12;332.0;-0.270128;-0.079518
0.29;9.0;5.0;6.5;3.0;0.25;0.0;0.25;0.0;2.0;0.0;0.25;0.0;0.0;1.25;0.25;0.0;-0.23291;0.018555;0.98291;-1.19;0.14;0.42;321.0;-0.248242;0.038166;5.5;8.75;4.25;5.5;0.5;1.25;0.0;0.25;0.25;0.0;0.5;0.5;0.25;0.75;0.0;0.0;-0.255371;0.033203;0.974609;0.98;-1.68;1.19;318.0;-0.286368;-0.077573
0.3;9.0;5.25;6.25;2.75;0.25;0.0;0.25;0.0;1.75;0.25;0.5;0.0;0.0;1.25;0.25;0.0;-0.22998;0.018066;0.984375;-0.7;0.07;0.63;319.0;-0.246092;0.034738;5.5;8.75;4.25;5.5;0.5;1.25;0.0;0.5;0.25;0.25;0.75;0.25;0.25;0.75;0.0;0.0;-0.254395;0.023926;0.970215;1.47;-1.75;1.33;325.0;-0.278128;-0.078767
0.31;9.25;5.5;6.5;3.0;0.25;0.0;0.25;0.0;1.5;0.0;0.5;0.0;0.0;1.25;0.25;0.0;-0.229492;0.013672;0.979492;-0.35;-0.14;0.7;324.0;-0.259168;0.029035;5.5;9.25;4.25;6.25;0.5;1.25;0.0;0.5;0.0;0.25;0.5;0.25;0.25;0.75;0.25;0.0;-0.265137;-0.002441;1.01709;1.47;-1.96;1.26;335.0;-0.284607;-0.087486
0.32;9.25;5.5;6.5;3.25;0.25;0.0;0.25;0.0;1.5;0.25;0.5;0.0;0.0;1.5;0.25;0.0;-0.226562;0.024414;0.985352;-0.42;-0.0;0.7;332.0;-0.250458;0.028081;5.5;9.5;4.25;6.0;0.5;1.25;0.0;0.5;0.25;0.25;0.5;0.25;0.25;0.75;0.25;0.0;-0.25;0.025879;0.971191;1.61;-1.75;1.4;338.0;-0.279843;-0.083027
0.33;9.75;6.0;7.0;3.25;0.0;0.0;0.25;0.0;1.5;0.0;0.25;0.25;0.0;1.0;0.25;0.25;-0.230469;0.01709;0.989258;-0.28;0.07;0.7;340.0;-0.267443;0.021984;5.5;9.5;4.25;6.0;0.5;1.5;0.0;0.5;0.25;0.25;0.5;0.25;0.25;0.75;0.25;0.0;-0.249023;0.033691;0.977051;1.68;-1.68;1.26;341.0;-0.27873;-0.084682
0.34;9.5;5.75;7.0;3.5;0.0;0.0;0.25;0.0;1.5;0.0;0.25;0.25;0.0;1.0;0.25;0.0;-0.23584;0.024902;0.98877;-0.28;-0.14;0.63;336.0;-0.268127;0.02194;5.25;9.5;4.25;6.25;0.5;1.5;0.0;0.5;0.25;0.25;0.5;0.25;0.25;0.5;0.25;0.0;-0.25;0.030762;0.969727;1.75;-1.75;1.33;339.0;-0.282502;-0.089334
0.35;9.25;6.0;7.0;3.25;0.25;0.0;0.25;0.0;1.5;0.0;0.5;0.25;0.0;0.5;0.25;0.0;-0.234863;0.017578;0.992676;-0.0;-0.21;0.77;334.0;-0.271874;0.019009;5.25;9.5;4.25;6.25;0.5;1.25;0.0;0.5;0.0;0.0;0.5;0.25;0.25;0.25;0.25;0.0;-0.251953;0.031738;0.975586;1.96;-1.96;1.26;327.0;-0.299047;-0.094864
0.36;9.5;6.25;7.0;3.25;0.25;0.0;0.25;0.0;1.25;0.25;0.5;0.0;0.0;0.5;0.25;0.0;-0.233887;0.014648;0.979004;0.35;-0.21;0.7;336.0;-0.279485;0.018742;5.5;9.75;4.0;6.25;0.5;1.0;0.0;0.5;0.25;0.25;0.25;0.25;0.25;0.25;0.5;0.0;-0.259277;0.020508;0.984375;2.59;-2.31;1.26;333.0;-0.2903;-0.08816
0.37;9.5;6.25;7.25;3.5;0.25;0.0;0.25;0.0;1.0;0.25;0.25;0.0;0.0;0.25;0.25;0.0;-0.242188;0.023438;0.992188;0.63;-0.35;0.91;333.0;-0.294342;0.014499;5.5;9.75;4.25;6.25;0.5;1.25;0.0;0.5;0.25;0.25;0.25;0.25;0.25;0.25;0.0;0.0;-0.25;0.029297;0.985352;3.36;-2.8;1.33;333.0;-0.300843;-0.088288
0.38;9.5;6.25;7.25;3.75;0.25;0.0;0.0;0.0;0.75;0.25;0.25;0.0;0.0;0.25;0.5;0.0;-0.234375;0.020508;0.982422;0.77;-0.35;0.91;331.0;-0.298809;0.005858;5.75;10.25;4.0;6.5;0.5;1.5;0.0;0.5;0.25;0.0;0.25;0.25;0.25;0.25;0.0;0.0;-0.249512;0.03125;0.978516;3.92;-3.15;1.26;341.0;-0.306816;-0.093467
0.39;9.75;6.75;7.25;3.25;0.25;0.0;0.0;0.0;1.0;0.0;0.25;0.0;0.0;0.25;0.25;0.0;-0.225586;0.025391;0.992676;0.91;-0.42;0.84;331.0;-0.306447;0.011462;5.5;10.5;4.0;6.25;0.5;1.5;0.0;0.5;0.25;0.0;0.25;0.25;0.25;0.25;0.0;0.0;-0.249023;0.035156;0.966309;4.76;-4.06;1.05;338.0;-0.306998;-0.094537
0.4;9.5;6.75;7.0;3.5;0.25;0.0;0.0;0.0;0.75;0.0;0.25;0.0;0.0;0.25;0.0;0.0;-0.224609;0.025391;0.990234;0.7;-0.28;0.77;322.0;-0.318425;0.005578;5.5;10.5;4.0;6.5;0.5;1.5;0.0;0.5;0.25;0.0;0.25;0.25;0.25;0.25;0.0;0.0;-0.243164;0.035645;0.96582;4.9;-4.27;1.12;341.0;-0.306827;-0.095683
0.41;10.0;6.75;7.0;4.0;0.25;0.0;0.0;0.0;0.5;0.0;0.25;0.25;0.0;0.25;0.25;0.0;-0.220703;0.036621;0.997559;0.7;-0.35;0.7;336.0;-0.314699;-0.003;5.5;10.5;4.0;6.5;0.5;1.5;0.0;0.5;0.0;0.0;0.25;0.25;0.25;0.0;0.0;0.0;-0.240234;0.029297;0.97168;4.55;-4.2;1.05;335.0;-0.317823;-0.101527
0.42;9.75;6.75;7.0;4.0;0.25;0.0;0.0;0.0;0.5;0.0;0.25;0.0;0.0;0.25;0.0;0.0;-0.228516;0.023438;0.98877;0.42;-0.14;0.7;327.0;-0.324881;-0.000693;5.0;10.5;4.0;6.5;0.25;1.25;0.0;0.5;0.0;0.0;0.25;0.0;0.25;0.0;0.0;0.0;-0.249023;0.040527;0.971191;3.99;-3.99;0.98;321.0;-0.324392;-0.103431
0.43;9.75;6.75;7.25;4.0;0.25;0.0;0.0;0.0;0.5;0.0;0.25;0.0;0.0;0.5;0.25;0.0;-0.230957;0.020508;0.983398;0.77;-0.28;0.77;335.0;-0.312972;0.000664;5.25;10.5;4.0;6.5;0.25;1.5;0.0;0.5;0.0;0.0;0.25;0.0;0.25;0.0;0.0;0.0;-0.248535;0.032715;0.968262;3.78;-4.2;0.98;326.0;-0.323507;-0.103135
0.44;10.0;7.0;7.25;4.0;0.0;0.0;0.0;0.0;0.25;0.0;0.25;0.0;0.0;0.25;0.25;0.25;-0.225586;0.022949;0.984863;0.77;-0.21;0.84;333.0;-0.324386;-0.005794;5.5;10.75;4.0;6.75;0.5;1.25;0.0;0.75;0.0;0.0;0.25;0.0;0.25;0.25;0.0;0.0;-0.246094;0.048828;0.962891;3.5;-4.34;1.05;341.0;-0.315488;-0.101599
0.45;10.0;7.0;7.0;3.5;0.0;0.0;0.0;0.0;0.25;0.0;0.25;0.0;0.0;0.25;0.25;0.0;-0.226562;0.027344;0.98584;0.7;-0.0;0.7;323.0;-0.328772;-0.001207;5.25;10.75;4.0;6.75;0.5;1.5;0.0;0.5;0.0;0.0;0.25;0.0;0.25;0.25;0.0;0.0;-0.236816;0.029785;0.968262;2.8;-3.64;0.98;337.0;-0.317053;-0.101293
0.46;9.5;7.0;7.0;4.25;0.0;0.0;0.0;0.0;0.5;0.25;0.25;0.0;0.0;0.25;0.25;0.0;-0.228027;0.022461;0.987305;0.91;-0.07;0.7;332.0;-0.315225;-0.005612;5.25;10.5;4.25;6.75;0.25;1.5;0.0;0.5;0.0;0.0;0.25;0.0;0.0;0.25;0.0;0.25;-0.238281;0.050781;0.956055;1.75;-3.08;1.05;334.0;-0.317976;-0.098922
0.47;9.25;6.75;6.5;4.0;0.0;0.0;0.0;0.0;0.25;0.25;0.25;0.25;0.0;0.5;0.25;0.0;-0.225586;0.019531;0.987793;0.77;0.14;0.77;320.0;-0.311234;-0.009532;5.5;10.5;4.0;6.5;0.25;1.5;0.0;0.5;0.0;0.25;0.25;0.0;0.25;0.25;0.0;0.25;-0.241211;0.040527;0.962891;1.19;-1.96;1.05;336.0;-0.311301;-0.098923
0.48;9.5;6.75;7.0;4.0;0.25;0.0;0.0;0.0;0.25;0.0;0.25;0.25;0.0;0.75;0.0;0.0;-0.229492;0.021973;0.989258;0.77;0.28;0.7;328.0;-0.315415;-0.004704;5.5;11.0;4.0;6.75;0.25;1.25;0.0;0.5;0.0;0.25;0.5;0.0;0.25;0.25;0.0;0.0;-0.241699;0.048828;0.968262;0.49;-1.19;0.98;342.0;-0.312447;-0.098718
0.49;9.75;7.0;6.5;4.0;0.0;0.0;0.0;0.0;0.25;0.0;0.25;0.25;0.0;0.25;0.0;0.0;-0.230957;0.025879;0.986328;0.7;0.35;0.7;320.0;-0.330298;-0.010032;5.25;10.5;4.0;6.75;0.25;1.25;0.0;0.5;0.0;0.0;0.25;0.25;0.25;0.0;0.0;0.25;-0.243164;0.038574;0.971191;-0.07;-0.98;0.84;331.0;-0.317014;-0.10533
0.5;9.25;7.0;6.5;4.0;0.0;0.0;0.0;0.0;0.0;0.0;0.25;0.25;0.0;0.25;0.0;0.0;-0.229004;0.009277;0.987305;0.63;0.56;0.63;311.0;-0.335723;-0.015475;5.25;10.5;4.0;7.0;0.25;1.25;0.0;0.5;0.0;0.0;0.0;0.25;0.25;0.25;0.0;0.0;-0.243164;0.039551;0.973633;-0.28;-0.84;0.84;332.0;-0.31935;-0.10341
0.51;9.25;7.5;6.5;4.0;0.0;0.0;0.0;0.0;0.0;0.0;0.25;0.25;0.0;0.25;0.25;0.25;-0.227539;0.03125;0.98877;0.56;0.42;0.35;320.0;-0.327114;-0.019826;5.25;10.5;4.0;7.0;0.5;1.25;0.0;0.5;0.0;0.0;0.25;0.25;0.25;0.25;0.0;0.0;-0.245117;0.041504;0.968262;-0.98;-0.14;0.84;338.0;-0.313006;-0.102051
0.52;9.5;7.0;6.5;4.0;0.0;0.0;0.0;0.0;0.25;0.0;0.5;0.25;0.0;0.25;0.25;0.25;-0.400391;-0.043457;1.066406;0.14;0.84;-0.98;324.0;-0.315069;-0.01403;5.5;10.75;4.0;6.75;0.5;1.25;0.0;0.5;0.0;0.0;0.25;0.25;0.0;0.0;0.0;0.25;-0.245605;0.04834;0.966309;-1.4;0.49;0.7;337.0;-0.320178;-0.100009
0.53;9.75;7.0;6.5;4.25;0.25;0.0;0.0;0.0;0.25;0.0;0.25;0.25;0.0;0.5;0.25;0.25;-0.222168;0.031738;0.984375;0.07;0.63;0.56;332.0;-0.313433;-0.011989;5.5;10.75;4.0;6.75;0.5;1.5;0.0;0.5;0.0;0.0;0.5;0.25;0.25;0.25;0.0;0.25;-0.243652;0.041016;0.973633;-1.75;0.84;0.63;347.0;-0.306024;-0.102217
0.54;9.75;7.0;6.5;4.0;0.0;0.0;0.0;0.0;0.25;0.0;0.0;0.25;0.0;0.25;0.25;0.0;-0.225098;0.027832;0.986328;-0.0;0.56;0.56;320.0;-0.328658;-0.009732;5.5;10.75;4.0;6.5;0.25;1.25;0.0;0.75;0.0;0.25;0.5;0.25;0.25;0.0;0.0;0.0;-0.244141;0.038574;0.972168;-2.03;0.91;0.63;341.0;-0.308762;-0.104225
0.55;9.5;7.0;6.5;3.75;0.25;0.0;0.0;0.0;0.0;0.0;0.25;0.25;0.0;0.25;0.25;0.0;-0.228027;0.027832;0.979004;-0.21;0.77;0.49;316.0;-0.328051;-0.012252;5.0;10.75;4.0;7.0;0.5;1.25;0.0;0.5;0.0;0.0;0.5;0.25;0.25;0.25;0.0;0.0;-0.246094;0.038574;0.976562;-1.96;0.7;0.63;340.0;-0.308491;-0.104397
0.56;9.25;6.75;6.5;4.0;0.0;0.0;0.0;0.0;0.25;0.0;0.25;0.25;0.0;0.25;0.25;0.0;-0.23291;0.025391;0.98584;-0.42;0.91;0.42;314.0;-0.321564;-0.011579;5.25;10.5;4.0;7.0;0.5;1.5;0.0;0.5;0.0;0.0;0.5;0.25;0.25;0.25;0.0;0.25;-0.244141;0.04541;0.973633;-1.89;0.63;0.7;345.0;-0.304256;-0.104548
0.57;9.5;6.75;6.5;4.0;0.0;0.0;0.0;0.0;0.25;0.0;0.25;0.25;0.0;0.25;0.0;0.0;-0.223145;0.022949;0.987305;-0.35;0.63;0.42;314.0;-0.328948;-0.009851;5.5;10.5;4.0;7.0;0.5;1.25;0.0;0.5;0.0;0.0;0.25;0.25;0.25;0.25;0.0;0.0;-0.244141;0.038086;0.971191;-1.68;0.28;0.7;340.0;-0.313757;-0.100299
0.58;9.75;6.75;6.25;4.0;0.0;0.0;0.0;0.0;0.25;0.0;0.25;0.25;0.0;0.5;0.25;0.0;-0.228027;0.024414;0.989746;-0.35;0.49;0.56;319.0;-0.318214;-0.009031;5.25;10.75;4.0;6.75;0.25;1.25;0.0;0.5;0.0;0.0;0.25;0.25;0.25;0.25;0.0;0.0;-0.245605;0.040039;0.970703;-1.75;0.21;0.63;334.0;-0.315702;-0.1029
0.59;9.25;6.75;6.5;4.0;0.0;0.0;0.0;0.0;0.25;0.0;0.25;0.25;0.0;0.5;0.25;0.0;-0.228516;0.02832;0.986816;-0.56;0.49;0.49;317.0;-0.316184;-0.010191;5.75;10.75;4.0;6.5;0.25;1.25;0.0;0.5;0.0;0.0;0.25;0.25;0.5;0.25;0.0;0.0;-0.244141;0.041016;0.979004;-1.75;0.14;0.7;339.0;-0.314046;-0.10078
0.6;9.5;6.75;7.0;4.0;0.0;0.0;0.0;0.0;0.5;0.0;0.25;0.25;0.0;0.25;0.0;0.25;-0.23291;0.024414;0.98877;-0.42;0.42;0.63;326.0;-0.318189;-0.006254;5.25;10.5;4.0;6.75;0.5;1.25;0.0;0.5;0.0;0.0;0.25;0.25;0.25;0.25;0.25;0.0;-0.249023;0.044922;0.977051;-1.89;0.21;0.77;337.0;-0.307111;-0.100791
0.61;9.75;6.75;7.0;4.0;0.0;0.0;0.0;0.0;0.25;0.0;0.5;0.25;0.0;0.5;0.0;0.25;-0.229492;0.025879;0.991211;-0.35;0.42;0.56;330.0;-0.315291;-0.007964;5.25;10.25;4.25;7.0;0.25;1.25;0.0;0.5;0.0;0.0;0.5;0.25;0.25;0.25;0.0;0.0;-0.251953;0.041016;0.977539;-1.47;-0.14;0.63;338.0;-0.308909;-0.101414
0.62;9.5;6.75;6.5;4.0;0.25;0.0;0.0;0.0;0.5;0.0;0.5;0.0;0.0;0.5;0.25;0.25;-0.230957;0.024902;0.990234;-0.56;0.56;0.49;328.0;-0.305768;-0.005183;5.25;10.5;4.25;6.75;0.25;1.25;0.0;0.75;0.0;0.25;0.5;0.25;0.25;0.25;0.0;0.0;-0.244629;0.04248;0.973145;-0.84;-0.56;0.7;344.0;-0.301767;-0.102959
0.63;9.5;6.75;6.5;4.0;0.25;0.0;0.0;0.0;0.5;0.0;0.25;0.25;0.0;0.25;0.0;0.25;-0.227539;0.030273;0.986816;-0.49;0.63;0.56;322.0;-0.317392;-0.007432;5.25;10.5;4.0;6.5;0.5;1.25;0.0;0.5;0.0;0.25;0.5;0.25;0.25;0.25;0.0;0.0;-0.244629;0.040039;0.970215;-0.84;-0.63;0.77;337.0;-0.304224;-0.098587
0.64;9.5;7.0;7.0;4.0;0.0;0.0;0.0;0.0;0.5;0.0;0.25;0.25;0.0;0.25;0.25;0.0;-0.228516;0.026367;0.982422;-0.63;0.7;0.56;329.0;-0.315681;-0.006756;5.5;10.5;4.0;6.5;0.25;1.25;0.0;0.5;0.0;0.25;0.5;0.25;0.5;0.25;0.0;0.0;-0.248047;0.041992;0.972168;-1.05;-0.7;0.77;339.0;-0.303347;-0.10079
0.65;9.25;7.0;6.5;4.0;0.0;0.0;0.0;0.0;0.25;0.0;0.25;0.0;0.0;0.5;0.25;0.0;-0.228516;0.025879;0.986816;-0.77;0.7;0.56;316.0;-0.321772;-0.008831;5.5;10.5;4.0;6.75;0.25;1.5;0.0;0.75;0.0;0.25;0.5;0.25;0.5;0.25;0.0;0.0;-0.240234;0.042969;0.974121;-1.05;-0.42;0.63;350.0;-0.29846;-0.106785
0.66;9.5;6.75;6.5;3.75;0.25;0.0;0.0;0.0;0.25;0.25;0.25;0.0;0.0;0.5;0.25;0.0;-0.233887;0.024414;0.978027;-0.84;0.77;0.49;320.0;-0.315222;-0.003215;5.25;10.25;4.0;7.0;0.25;1.5;0.0;0.75;0.0;0.25;0.25;0.25;0.5;0.25;0.25;0.0;-0.245605;0.040527;0.970703;-1.19;-0.42;0.56;347.0;-0.295144;-0.108852
0.67;9.5;6.75;7.0;4.0;0.25;0.25;0.0;0.0;0.25;0.0;0.25;0.0;0.0;0.25;0.25;0.0;-0.230469;0.022949;0.98291;-0.77;0.7;0.35;326.0;-0.322565;-0.007851;5.25;10.0;4.0;6.5;0.25;1.25;0.0;0.5;0.0;0.25;0.25;0.25;0.5;0.25;0.0;0.0;-0.245117;0.04248;0.966309;-1.33;-0.35;0.49;329.0;-0.305353;-0.10146
0.68;9.5;6.75;7.0;4.0;0.25;0.0;0.0;0.0;0.25;0.0;0.5;0.0;0.0;0.25;0.25;0.0;-0.231445;0.02002;0.979492;-0.84;0.77;0.56;326.0;-0.319311;-0.006382;5.25;10.25;4.0;6.5;0.25;1.5;0.0;0.5;0.0;0.0;0.25;0.25;0.5;0.25;0.0;0.0;-0.242676;0.034668;0.972656;-1.4;-0.07;0.63;331.0;-0.309507;-0.104909
0.69;9.75;7.0;7.0;4.0;0.25;0.0;0.0;0.0;0.25;0.0;0.25;0.0;0.0;0.25;0.0;0.0;-0.231934;0.023926;0.987793;-0.84;0.77;0.49;326.0;-0.331969;-0.00499;5.5;9.75;4.0;6.5;0.25;1.25;0.0;0.5;0.0;0.0;0.25;0.0;0.5;0.25;0.0;0.0;-0.245117;0.035156;0.970703;-1.61;0.0;0.63;323.0;-0.314729;-0.09884
0.7;9.5;6.75;7.0;4.0;0.0;0.0;0.0;0.0;0.25;0.0;0.25;0.0;0.0;0.25;0.25;0.0;-0.229004;0.027832;0.98584;-0.84;0.7;0.42;320.0;-0.325993;-0.006039;5.25;9.75;4.0;6.5;0.25;1.25;0.0;0.5;0.0;0.25;0.25;0.25;0.5;0.25;0.0;0.25;-0.246094;0.040039;0.966797;-1.75;0.42;0.63;328.0;-0.301486;-0.101921
0.71;9.25;6.75;6.5;4.0;0.0;0.0;0.0;0.0;0.25;0.0;0.5;0.25;0.0;0.5;0.25;0.25;-0.233887;0.023926;0.981934;-0.91;0.84;0.42;321.0;-0.308233;-0.012533;5.5;9.75;4.0;6.5;0.25;1.5;0.0;0.5;0.0;0.25;0.5;0.25;0.5;0.0;0.0;0.25;-0.251465;0.044922;0.966309;-1.96;0.49;0.42;334.0;-0.301467;-0.103721
0.72;9.5;6.5;6.5;4.0;0.25;0.0;0.0;0.0;0.5;0.0;0.25;0.0;0.0;0.5;0.25;0.0;-0.22998;0.022949;0.97998;-1.05;0.91;0.49;321.0;-0.312716;-0.001507;5.5;9.75;4.0;6.5;0.25;1.75;0.0;0.5;0.0;0.0;0.5;0.25;0.5;0.25;0.0;0.25;-0.249512;0.038086;0.974609;-2.17;0.49;0.49;336.0;-0.299799;-0.104691
0.73;9.5;6.25;6.5;4.25;0.0;0.0;0.0;0.0;0.5;0.0;0.25;0.0;0.0;0.5;0.5;0.0;-0.233887;0.019531;0.984375;-1.05;0.98;0.42;321.0;-0.306986;-0.003608;5.25;9.75;4.0;6.5;0.25;1.25;0.0;0.5;0.0;0.0;0.5;0.25;0.5;0.25;0.0;0.25;-0.244629;0.046387;0.971191;-2.17;0.42;0.49;328.0;-0.301584;-0.103481
0.74;9.25;6.5;6.5;3.75;0.0;0.0;0.0;0.0;0.5;0.0;0.5;0.0;0.0;0.5;0.25;0.0;-0.230469;0.025879;0.986816;-1.05;0.98;0.42;315.0;-0.309033;-0.00201;5.25;9.75;4.0;6.5;0.25;1.25;0.0;0.5;0.0;0.0;0.5;0.25;0.5;0.5;0.0;0.25;-0.244141;0.039062;0.966309;-1.96;0.42;0.49;330.0;-0.296561;-0.101503
0.75;9.25;6.5;6.25;3.75;0.25;0.0;0.0;0.0;0.75;0.25;0.5;0.0;0.0;0.5;0.25;0.0;-0.229004;0.026367;0.987793;-1.26;1.05;0.35;321.0;-0.29657;0.001376;5.5;9.75;4.0;6.5;0.5;1.5;0.0;0.75;0.0;0.25;0.5;0.25;0.5;0.5;0.0;0.25;-0.251465;0.031738;0.969727;-1.82;0.21;0.49;346.0;-0.286872;-0.10198
0.76;9.25;6.5;7.0;4.0;0.25;0.0;0.0;0.0;0.75;0.25;0.5;0.0;0.0;0.75;0.25;0.0;-0.225098;0.021973;0.98584;-1.33;1.05;0.35;336.0;-0.290737;0.00297;5.5;9.75;4.0;6.5;0.5;1.5;0.0;0.5;0.0;0.25;0.5;0.5;0.5;0.25;0.0;0.25;-0.251465;0.041992;0.975098;-1.61;0.21;0.42;342.0;-0.290778;-0.10198
0.77;9.25;6.5;6.5;3.75;0.25;0.0;0.25;0.0;0.5;0.0;0.5;0.0;0.0;0.5;0.5;0.0;-0.232422;0.024902;0.986816;-1.4;0.98;0.35;325.0;-0.296074;0.00097;5.5;9.5;4.25;6.25;0.25;1.25;0.0;0.5;0.0;0.25;0.5;0.5;0.5;0.25;0.0;0.5;-0.250977;0.04248;0.973145;-1.54;0.0;0.49;335.0;-0.289462;-0.099537
0.78;9.5;6.5;7.5;3.5;0.25;0.0;0.0;0.0;0.5;0.0;0.5;0.25;0.0;0.75;0.5;0.0;-0.232422;0.02832;0.989746;-1.47;0.98;0.35;338.0;-0.29135;0.002802;5.25;9.5;4.0;6.25;0.25;1.25;0.0;0.5;0.0;0.25;0.5;0.75;0.5;0.25;0.0;0.5;-0.250977;0.040039;0.973145;-1.4;0.0;0.56;332.0;-0.284388;-0.104743
0.79;9.25;6.0;7.0;3.75;0.25;0.0;0.0;0.0;0.75;0.25;0.5;0.0;0.0;0.5;0.0;0.0;-0.228516;0.025391;0.986328;-1.33;0.91;0.28;322.0;-0.30007;0.007231;5.25;9.75;4.0;6.5;0.25;1.25;0.0;0.5;0.0;0.0;0.75;0.5;0.5;0.25;0.0;0.0;-0.245117;0.037109;0.976562;-1.33;-0.14;0.56;332.0;-0.295559;-0.104317
0.8;9.0;6.25;7.0;3.75;0.0;0.0;0.0;0.0;1.0;0.25;0.5;0.0;0.0;0.5;0.0;0.25;-0.222656;0.017578;0.98584;-1.33;0.84;0.35;324.0;-0.292533;0.005975;5.5;9.75;4.0;6.5;0.5;1.25;0.0;0.5;0.0;0.25;0.75;0.25;0.5;0.25;0.0;0.0;-0.245605;0.036133;0.974121;-1.4;-0.28;0.56;338.0;-0.294747;-0.098015
0.81;9.5;6.25;7.0;3.5;0.0;0.0;0.0;0.0;1.0;0.0;0.5;0.25;0.0;0.75;0.5;0.25;-0.229004;0.026855;0.983398;-1.33;0.84;0.42;335.0;-0.277784;0.006374;5.5;9.5;4.0;6.5;0.5;1.25;0.0;0.5;0.0;0.25;0.5;0.5;0.5;0.25;0.0;0.0;-0.25;0.037598;0.968262;-1.12;-0.42;0.63;335.0;-0.293939;-0.099047
0.82;9.25;6.25;7.0;3.5;0.25;0.0;0.0;0.0;1.25;0.0;0.5;0.25;0.0;0.75;0.5;0.25;-0.23291;0.019531;0.986328;-1.33;0.77;0.42;339.0;-0.269743;0.008834;5.25;9.5;4.0;6.25;0.5;1.25;0.0;0.5;0.0;0.0;0.5;0.5;0.5;0.5;0.0;0.0;-0.245117;0.039551;0.967285;-0.98;-0.49;0.63;329.0;-0.292688;-0.099143
0.83;9.25;6.0;7.0;3.75;0.25;0.0;0.0;0.0;1.25;0.25;0.5;0.25;0.0;0.75;0.25;0.0;-0.22998;0.024902;0.98291;-1.19;0.77;0.28;338.0;-0.273026;0.010716;5.0;9.5;4.0;6.25;0.5;1.25;0.0;0.5;0.0;0.25;0.5;0.25;0.5;0.25;0.0;0.25;-0.250488;0.034668;0.97168;-1.05;-0.56;0.56;325.0;-0.293572;-0.100739
0.84;9.5;6.25;6.25;3.5;0.25;0.0;0.0;0.0;1.25;0.25;0.5;0.0;0.0;0.75;0.0;0.0;-0.233398;0.019043;0.98877;-1.26;0.84;0.35;325.0;-0.285629;0.013699;5.0;9.25;4.0;6.25;0.5;1.25;0.0;0.5;0.0;0.25;0.5;0.25;0.5;0.25;0.0;0.25;-0.253906;0.035156;0.965332;-1.05;-0.49;0.56;323.0;-0.29261;-0.100228
0.85;9.75;6.25;7.0;3.5;0.25;0.0;0.0;0.0;1.25;0.25;0.5;0.0;0.0;0.75;0.25;0.25;-0.226562;0.022949;0.984375;-0.98;0.63;0.42;341.0;-0.27744;0.014288;5.25;9.25;4.0;6.25;0.5;1.25;0.0;0.5;0.25;0.25;0.5;0.25;0.5;0.5;0.0;0.25;-0.247559;0.039551;0.97168;-0.98;-0.56;0.63;331.0;-0.282692;-0.092455
0.86;9.5;6.0;7.25;3.5;0.25;0.0;0.0;0.0;1.25;0.25;0.5;0.25;0.0;0.75;0.25;0.0;-0.230469;0.024414;0.984863;-0.98;0.77;0.42;341.0;-0.273913;0.014309;4.75;9.25;4.0;6.0;0.5;1.25;0.0;0.5;0.0;0.25;0.75;0.25;0.5;0.75;0.0;0.25;-0.250488;0.037109;0.96875;-0.98;-0.56;0.63;324.0;-0.277026;-0.09706
0.87;9.5;6.25;7.0;3.5;0.25;0.0;0.25;0.0;1.5;0.25;0.5;0.25;0.0;1.0;0.25;0.0;-0.234375;0.021973;0.98877;-0.91;0.63;0.49;350.0;-0.260875;0.018784;4.75;9.25;4.0;6.0;0.5;1.5;0.0;0.5;0.0;0.0;0.75;0.5;0.5;0.5;0.0;0.5;-0.249023;0.033691;0.973145;-1.05;-0.7;0.7;327.0;-0.278111;-0.104748
0.88;9.5;6.25;7.0;3.5;0.25;0.0;0.25;0.0;1.5;0.25;0.5;0.25;0.0;1.0;0.25;0.25;-0.231934;0.025391;0.981934;-0.77;0.7;0.42;351.0;-0.258256;0.017383;4.75;9.25;4.0;6.25;0.25;1.25;0.0;0.5;0.0;0.0;0.5;0.5;0.5;0.5;0.0;0.5;-0.250977;0.034668;0.972656;-0.84;-0.63;0.56;321.0;-0.285291;-0.105766
0.89;9.5;6.25;7.0;3.5;0.25;0.0;0.25;0.0;1.25;0.0;0.5;0.25;0.0;1.0;0.25;0.0;-0.230469;0.018066;0.987305;-0.7;0.7;0.49;344.0;-0.270406;0.015751;5.25;9.5;4.0;6.25;0.5;1.25;0.0;0.5;0.0;0.0;0.5;0.25;0.5;0.5;0.0;0.25;-0.248535;0.035645;0.977051;-0.84;-0.77;0.7;328.0;-0.29415;-0.098384
0.9;9.5;6.25;6.5;3.5;0.0;0.0;0.25;0.0;1.25;0.0;0.25;0.25;0.0;1.0;0.25;0.0;-0.231445;0.023438;0.986328;-0.49;0.63;0.49;332.0;-0.276091;0.015121;5.25;9.25;4.0;5.75;0.5;1.25;0.0;0.75;0.25;0.0;0.5;0.25;0.5;0.25;0.0;0.5;-0.250977;0.036133;0.97168;-0.7;-0.84;0.77;326.0;-0.285739;-0.098134
0.91;9.5;6.0;6.5;3.5;0.0;0.0;0.25;0.0;1.25;0.0;0.25;0.25;0.0;1.0;0.5;0.0;-0.228027;0.026367;0.987793;-0.49;0.56;0.56;332.0;-0.26912;0.015658;4.75;9.25;4.0;6.25;0.25;1.25;0.0;0.5;0.25;0.25;0.5;0.5;0.5;0.25;0.0;0.25;-0.250977;0.033203;0.975586;-0.56;-0.7;0.84;323.0;-0.282648;-0.101153
0.92;9.5;6.0;7.0;3.5;0.0;0.0;0.0;0.0;1.25;0.25;0.5;0.0;0.0;0.75;0.25;0.25;-0.235352;0.019531;0.97998;-0.14;0.63;0.56;333.0;-0.276687;0.014425;5.0;9.25;4.0;6.25;0.25;1.25;0.0;0.5;0.0;0.25;0.5;0.75;0.5;0.5;0.0;0.25;-0.250488;0.036133;0.972656;-0.56;-0.77;0.77;328.0;-0.280323;-0.103172
0.93;9.5;6.0;6.5;3.5;0.0;0.0;0.0;0.0;1.25;0.0;0.5;0.0;0.0;0.75;0.25;0.0;-0.22998;0.022949;0.989746;-0.21;0.63;0.63;323.0;-0.284381;0.014081;5.25;9.25;4.0;6.25;0.5;1.25;0.0;0.5;0.0;0.25;0.5;0.25;0.5;0.25;0.0;0.5;-0.249023;0.037598;0.978027;-0.49;-0.84;0.77;327.0;-0.290609;-0.099385
0.94;9.5;6.0;7.0;3.5;0.25;0.0;0.0;0.0;1.25;0.0;0.5;0.25;0.0;0.75;0.25;0.0;-0.23291;0.022461;0.980469;0.07;0.42;0.63;335.0;-0.278358;0.013205;5.25;9.5;4.0;6.25;0.5;1.25;0.0;0.75;0.0;0.0;0.5;0.25;0.5;0.25;0.0;0.5;-0.259277;0.040039;0.970703;-0.63;-0.84;0.91;331.0;-0.29263;-0.104976
0.95;9.25;6.5;7.25;3.5;0.25;0.0;0.0;0.0;1.0;0.0;0.5;0.25;0.0;0.75;0.0;0.25;-0.234375;0.021973;0.987793;-0.0;0.49;0.63;335.0;-0.288022;0.006972;5.5;9.5;4.0;6.25;0.25;1.0;0.0;0.5;0.0;0.25;0.75;0.5;0.5;0.25;0.0;0.25;-0.248535;0.032715;0.967773;-0.56;-0.98;0.84;331.0;-0.289373;-0.098903
0.96;9.75;6.75;7.25;3.75;0.25;0.0;0.25;0.0;1.25;0.0;0.5;0.25;0.0;0.75;0.0;0.0;-0.227539;0.025391;0.984863;-0.07;0.7;0.7;352.0;-0.283686;0.012214;5.25;9.5;4.0;6.25;0.25;1.0;0.0;0.5;0.0;0.25;0.75;0.5;0.5;0.5;0.0;0.25;-0.251953;0.034668;0.970215;-0.49;-1.05;0.91;330.0;-0.283461;-0.098739
0.97;9.75;6.5;7.0;3.75;0.25;0.0;0.0;0.0;1.25;0.25;0.5;0.25;0.0;1.0;0.25;0.0;-0.228516;0.026367;0.98877;-0.0;0.56;0.77;351.0;-0.272655;0.010864;5.5;9.5;4.0;6.25;0.25;1.25;0.0;0.5;0.0;0.25;0.5;0.75;0.25;0.5;0.0;0.25;-0.250488;0.038086;0.96875;-0.56;-0.98;0.77;334.0;-0.286614;-0.097522
0.98;9.25;6.25;7.0;3.5;0.25;0.0;0.0;0.0;1.0;0.25;0.5;0.25;0.0;0.5;0.25;0.0;-0.232422;0.023438;0.980957;-0.0;0.49;0.63;331.0;-0.284507;0.007486;5.25;9.5;4.0;6.25;0.25;1.25;0.0;0.5;0.0;0.25;0.75;0.5;0.25;0.5;0.0;0.0;-0.247559;0.038574;0.968262;-0.56;-1.05;0.77;329.0;-0.288411;-0.096751
0.99;9.25;6.25;7.0;3.5;0.25;0.0;0.0;0.0;1.0;0.0;0.5;0.25;0.0;0.5;0.5;0.0;-0.226562;0.022949;0.987793;0.07;0.56;0.63;331.0;-0.283022;0.006226;5.25;9.75;4.0;6.0;0.25;1.25;0.0;0.5;0.0;0.0;0.5;0.5;0.5;0.5;0.0;0.0;-0.253906;0.03418;0.969727;-0.7;-0.84;0.84;325.0;-0.295238;-0.099983
1.0;9.25;6.5;7.25;3.75;0.25;0.0;0.25;0.0;1.0;0.25;0.5;0.25;0.0;0.75;0.5;0.25;-0.230957;0.024902;0.98584;0.14;0.35;0.63;351.0;-0.268034;0.006762;5.25;9.75;4.0;6.5;0.5;1.0;0.0;0.5;0.0;0.0;0.5;0.5;0.5;0.25;0.0;0.0;-0.248535;0.037109;0.969238;-0.77;-0.98;0.77;329.0;-0.299834;-0.101183
1.01;9.5;6.5;7.25;3.75;0.25;0.0;0.25;0.0;1.0;0.0;0.5;0.25;0.0;0.75;0.25;0.0;-0.231445;0.019531;0.98291;0.28;0.35;0.7;346.0;-0.281596;0.009234;5.25;9.75;4.0;6.5;0.5;1.0;0.0;0.5;0.0;0.0;0.75;0.5;0.5;0.25;0.0;0.0;-0.251953;0.036133;0.971191;-0.77;-0.91;0.7;332.0;-0.295305;-0.10131
1.02;9.25;6.5;7.25;4.0;0.25;0.0;0.0;0.0;1.0;0.0;0.5;0.25;0.0;0.75;0.25;0.0;-0.228027;0.027344;0.988281;0.28;0.35;0.7;342.0;-0.284996;0.003552;5.0;9.25;4.0;6.25;0.25;1.0;0.0;0.5;0.0;0.25;0.75;0.5;0.5;0.5;0.0;0.0;-0.250977;0.040039;0.97168;-0.84;-0.91;0.84;323.0;-0.284324;-0.099046
1.03;9.25;6.5;7.25;3.75;0.25;0.0;0.0;0.0;1.0;0.25;0.5;0.25;0.0;1.0;0.25;0.0;-0.229004;0.025391;0.983887;0.35;0.35;0.7;344.0;-0.275937;0.007212;5.25;9.25;4.0;6.25;0.25;1.25;0.0;0.5;0.0;0.25;0.75;0.25;0.5;0.5;0.0;0.25;-0.24707;0.034668;0.966797;-0.98;-0.84;0.77;328.0;-0.285578;-0.098071
1.04;9.25;6.5;7.25;4.0;0.25;0.0;0.25;0.0;1.0;0.25;0.5;0.5;0.0;1.0;0.25;0.25;-0.224609;0.023926;0.983887;0.14;0.35;0.7;356.0;-0.265337;0.004191;5.25;9.25;4.0;6.25;0.5;1.25;0.0;0.5;0.0;0.25;0.5;0.5;0.5;0.5;0.0;0.25;-0.252441;0.035645;0.971191;-0.98;-0.84;0.7;331.0;-0.284235;-0.098191
1.05;9.25;6.5;7.0;3.75;0.25;0.0;0.0;0.0;1.25;0.0;0.5;0.5;0.0;1.0;0.25;0.25;-0.234375;0.023926;0.984375;0.21;0.35;0.7;347.0;-0.268015;0.004889;5.25;9.25;4.0;6.25;0.25;1.25;0.0;0.5;0.0;0.0;0.5;0.5;0.5;0.5;0.0;0.0;-0.252441;0.037109;0.968262;-0.98;-0.84;0.7;323.0;-0.293274;-0.100109
1.06;9.0;6.5;7.0;4.0;0.25;0.0;0.0;0.0;1.0;0.0;0.5;0.5;0.0;0.75;0.25;0.25;-0.23291;0.026367;0.98877;-0.0;0.42;0.63;341.0;-0.277202;-0.002001;5.0;9.25;4.0;6.25;0.25;1.25;0.0;0.5;0.0;0.0;0.5;0.25;0.5;0.5;0.0;0.0;-0.250488;0.039062;0.966797;-0.98;-0.91;0.63;318.0;-0.296853;-0.100198
1.07;9.25;6.5;7.0;4.0;0.25;0.0;0.0;0.0;1.0;0.25;0.5;0.25;0.0;0.75;0.25;0.25;-0.229004;0.026855;0.990234;-0.0;0.49;0.56;344.0;-0.278039;0.001923;5.25;9.25;4.0;6.25;0.25;1.5;0.0;0.5;0.0;0.0;0.5;0.25;0.5;0.25;0.0;0.0;-0.250488;0.035156;0.977539;-1.05;-0.91;0.77;321.0;-0.301579;-0.101964
1.08;9.5;6.75;6.5;4.0;0.25;0.0;0.0;0.0;0.75;0.0;0.25;0.25;0.0;1.0;0.5;0.25;-0.227539;0.024902;0.98877;-0.0;0.42;0.63;339.0;-0.284058;-0.001915;5.25;9.0;4.0;6.25;0.25;1.5;0.0;0.5;0.0;0.0;0.5;0.5;0.5;0.25;0.0;0.25;-0.245117;0.038086;0.974609;-1.05;-0.84;0.7;323.0;-0.293086;-0.104159
1.09;9.5;6.5;7.0;4.0;0.25;0.0;0.0;0.0;0.75;0.0;0.5;0.5;0.0;1.5;0.5;0.25;-0.229492;0.027832;0.986816;-0.14;0.49;0.63;353.0;-0.265453;-0.000126;5.0;8.75;4.0;6.5;0.25;1.25;0.0;0.5;0.0;0.25;0.75;0.5;0.5;0.25;0.0;0.25;-0.248047;0.036621;0.965332;-1.05;-0.84;0.63;323.0;-0.283124;-0.103734
1.1;9.25;6.5;6.5;4.0;0.25;0.0;0.0;0.0;1.0;0.0;0.5;0.25;0.0;1.25;0.25;0.25;-0.230469;0.023438;0.990234;-0.21;0.49;0.63;339.0;-0.273159;0.002239;5.0;9.25;4.0;6.25;0.5;1.25;0.0;0.5;0.0;0.25;0.5;0.75;0.5;0.25;0.0;0.25;-0.253418;0.038574;0.971191;-1.05;-0.7;0.56;328.0;-0.283804;-0.103654
1.11;9.25;6.5;7.0;4.0;0.25;0.0;0.0;0.0;1.0;0.0;0.25;0.25;0.0;0.5;0.5;0.25;-0.234375;0.025879;0.989746;-0.14;0.42;0.63;338.0;-0.285582;0.00048;5.25;9.25;4.0;6.0;0.25;1.25;0.0;0.25;0.25;0.25;0.5;0.75;0.5;0.25;0.0;0.0;-0.246582;0.035645;0.970215;-1.12;-0.84;0.7;323.0;-0.286759;-0.093346
1.12;9.5;6.75;7.0;4.0;0.25;0.0;0.0;0.0;1.0;0.25;0.25;0.25;0.0;0.5;0.25;0.25;-0.229004;0.024414;0.98584;-0.14;0.49;0.56;344.0;-0.288944;0.001364;5.5;9.5;4.0;6.25;0.25;1.25;0.0;0.5;0.0;0.25;0.75;0.5;0.25;0.25;0.25;0.0;-0.252441;0.036621;0.970215;-1.12;-0.77;0.63;333.0;-0.288282;-0.096792
1.13;9.25;6.5;7.0;4.0;0.25;0.0;0.0;0.0;1.0;0.25;0.5;0.25;0.0;1.0;0.25;0.25;-0.226562;0.023926;0.988281;-0.21;0.49;0.56;346.0;-0.273405;0.003103;5.0;9.5;4.0;6.25;0.25;1.25;0.0;0.5;0.0;0.0;0.75;0.5;0.5;0.25;0.25;0.0;-0.25293;0.041016;0.968262;-1.12;-0.77;0.63;326.0;-0.28759;-0.104386
1.14;9.25;6.75;7.0;4.0;0.0;0.0;0.0;0.0;0.75;0.0;0.25;0.25;0.0;0.75;0.5;0.25;-0.23291;0.026855;0.985352;-0.28;0.63;0.49;337.0;-0.288936;-0.002997;5.0;9.25;4.0;6.25;0.25;1.25;0.0;0.75;0.0;0.0;0.5;0.5;0.25;0.25;0.0;0.0;-0.249512;0.035645;0.969238;-1.12;-0.91;0.63;320.0;-0.297169;-0.105105
1.15;9.25;6.75;7.0;4.0;0.0;0.0;0.0;0.0;1.25;0.0;0.5;0.25;0.0;0.75;0.5;0.0;-0.22998;0.028809;0.990723;-0.28;0.63;0.56;345.0;-0.276158;0.003147;5.25;9.25;4.0;6.0;0.25;1.25;0.0;0.75;0.0;0.25;0.75;0.5;0.25;0.25;0.0;0.0;-0.254395;0.036133;0.96875;-1.12;-0.77;0.7;326.0;-0.288893;-0.100763
1.16;9.25;6.75;7.0;4.0;0.25;0.0;0.0;0.0;1.25;0.0;0.5;0.25;0.0;0.75;0.25;0.0;-0.227539;0.019531;0.988281;-0.42;0.63;0.49;345.0;-0.280523;0.004361;5.0;9.25;4.0;6.0;0.25;1.0;0.0;0.5;0.0;0.0;0.75;0.5;0.25;0.75;0.0;0.0;-0.246582;0.034668;0.970215;-1.12;-0.91;0.63;317.0;-0.287261;-0.094603
1.17;9.5;6.0;7.0;3.75;0.25;0.0;0.0;0.0;1.0;0.0;0.75;0.25;0.0;0.75;0.25;0.25;-0.231445;0.027832;0.987793;-0.49;0.56;0.49;338.0;-0.277033;0.005814;5.0;9.25;4.0;6.25;0.25;1.25;0.0;0.5;0.0;0.0;0.75;0.5;0.25;0.25;0.0;0.0;-0.249512;0.035645;0.976074;-1.12;-0.77;0.63;319.0;-0.296196;-0.101457
1.18;9.25;6.5;7.0;4.0;0.25;0.0;0.0;0.0;1.25;0.0;0.5;0.25;0.0;0.75;0.25;0.0;-0.236328;0.027832;0.98291;-0.42;0.63;0.42;343.0;-0.279522;0.005614;5.25;9.0;4.0;6.25;0.25;1.25;0.0;0.5;0.0;0.25;0.75;0.75;0.5;0.5;0.0;0.25;-0.242676;0.038086;0.974609;-1.19;-0.77;0.7;331.0;-0.275962;-0.10099
1.19;9.25;6.75;7.0;4.0;0.25;0.0;0.0;0.0;1.0;0.0;0.75;0.25;0.0;0.75;0.25;0.25;-0.231934;0.02002;0.983398;-0.42;0.7;0.49;346.0;-0.279142;-0.000784;5.25;9.25;4.0;5.75;0.5;1.0;0.0;0.5;0.0;0.25;0.75;0.5;0.25;0.5;0.0;0.0;-0.253418;0.037109;0.977051;-1.12;-0.84;0.63;321.0;-0.287156;-0.090698
1.2;9.5;6.75;7.0;4.0;0.25;0.0;0.0;0.0;1.0;0.25;0.5;0.5;0.0;0.75;0.25;0.25;-0.229492;0.028809;0.986328;-0.35;0.56;0.49;352.0;-0.276049;-0.00086;5.25;9.0;4.0;6.0;0.25;1.0;0.0;0.5;0.0;0.0;0.75;0.5;0.5;0.25;0.0;0.0;-0.248535;0.036133;0.973633;-1.26;-0.91;0.7;315.0;-0.294159;-0.098953
1.21;9.5;6.75;7.0;4.0;0.25;0.0;0.0;0.0;1.0;0.0;0.5;0.25;0.0;0.75;0.25;0.25;-0.233398;0.030762;0.984863;-0.21;0.7;0.56;346.0;-0.284331;0.001064;5.25;9.0;4.0;5.5;0.25;1.25;0.0;0.5;0.0;0.25;0.75;0.5;0.25;0.5;0.25;0.0;-0.245605;0.03125;0.972656;-1.12;-0.91;0.63;318.0;-0.28013;-0.091897
1.22;9.25;6.75;7.25;4.0;0.25;0.0;0.0;0.0;1.25;0.0;0.5;0.0;0.0;1.0;0.25;0.25;-0.228516;0.023438;0.986328;-0.21;0.42;0.63;349.0;-0.277107;0.007383;4.75;9.0;4.0;5.75;0.5;1.25;0.0;0.75;0.25;0.0;0.75;0.75;0.25;0.5;0.25;0.0;-0.249023;0.03418;0.976074;-1.19;-0.91;0.7;326.0;-0.26755;-0.098159
1.23;9.5;6.75;7.25;4.0;0.25;0.0;0.0;0.0;1.0;0.0;0.5;0.0;0.0;1.0;0.25;0.25;-0.225586;0.022949;0.98584;-0.28;0.49;0.56;349.0;-0.283606;0.005468;5.0;9.0;4.0;5.75;0.5;1.25;0.0;0.75;0.0;0.0;0.75;0.75;0.5;0.25;0.0;0.0;-0.246582;0.038086;0.971191;-1.12;-0.84;0.7;323.0;-0.282251;-0.105252
1.24;9.25;6.75;7.25;4.0;0.25;0.0;0.0;0.0;1.25;0.0;0.5;0.25;0.0;0.75;0.5;0.25;-0.224609;0.025879;0.984375;-0.35;0.56;0.63;353.0;-0.272108;0.003056;5.25;9.0;4.0;5.75;0.25;1.0;0.0;0.5;0.0;0.0;0.5;0.0;0.25;0.5;0.25;0.0;-0.245117;0.040039;0.970215;-1.12;-0.77;0.63;307.0;-0.300187;-0.088834
1.25;9.75;6.75;7.5;4.0;0.25;0.0;0.0;0.0;1.25;0.0;0.75;0.25;0.0;0.75;0.25;0.25;-0.234863;0.027832;0.984863;-0.21;0.35;0.63;361.0;-0.275556;0.005175;5.0;9.0;4.0;5.5;0.25;1.0;0.0;0.5;0.0;0.0;0.5;0.0;0.25;0.5;0.0;0.0;-0.245605;0.042969;0.973145;-1.19;-0.91;0.63;298.0;-0.306144;-0.089406
1.26;10.0;6.75;7.5;4.0;0.25;0.0;0.25;0.0;1.5;0.0;0.75;0.5;0.0;1.0;0.25;0.25;-0.230957;0.024902;0.981445;0.07;0.56;0.63;377.0;-0.259647;0.009859;5.25;9.0;4.0;5.75;0.5;1.0;0.0;0.5;0.0;0.0;0.75;0.25;0.5;0.25;0.0;0.0;-0.250977;0.032227;0.974121;-1.12;-0.77;0.7;313.0;-0.297244;-0.094395
1.27;9.5;6.75;7.25;4.25;0.25;0.0;0.0;0.0;1.25;0.0;0.75;0.5;0.0;1.0;0.25;0.25;-0.227051;0.022949;0.978516;0.56;0.49;0.77;364.0;-0.266515;0.000483;5.25;9.0;4.0;6.0;0.5;1.0;0.0;0.5;0.0;0.25;0.75;0.25;0.5;0.25;0.0;0.25;-0.25293;0.035645;0.969727;-1.19;-0.98;0.7;320.0;-0.289329;-0.095226
1.28;9.5;6.75;7.25;4.25;0.25;0.0;0.0;0.0;1.0;0.25;0.75;0.25;0.0;0.75;0.25;0.25;-0.223145;0.021973;0.987305;0.7;0.49;0.7;358.0;-0.275951;-0.000513;5.25;8.75;4.0;5.75;0.5;1.0;0.0;0.5;0.0;0.25;0.75;0.25;0.5;0.5;0.0;0.5;-0.248535;0.034668;0.973633;-1.05;-0.91;0.63;318.0;-0.28019;-0.092467
1.29;9.25;6.75;7.25;4.0;0.25;0.0;0.0;0.0;0.75;0.0;0.75;0.25;0.0;0.5;0.25;0.25;-0.231445;0.027832;0.983887;1.12;0.42;0.91;343.0;-0.289277;-0.004057;5.0;8.5;4.0;5.5;0.25;1.0;0.0;0.5;0.25;0.0;0.75;0.25;0.25;0.75;0.0;0.0;-0.245117;0.037598;0.964355;-1.33;-0.98;0.77;305.0;-0.282356;-0.084028
1.3;9.0;6.75;7.25;4.25;0.25;0.25;0.25;0.0;0.75;0.0;0.75;0.25;0.0;0.5;0.25;0.25;-0.228027;0.024902;0.990723;1.33;0.63;0.84;351.0;-0.282837;-0.006241;5.0;8.75;4.0;5.75;0.25;1.0;0.0;0.5;0.0;0.0;0.75;0.25;0.5;0.5;0.0;0.0;-0.251953;0.037109;0.969238;-1.05;-0.84;0.77;307.0;-0.29159;-0.095145
1.31;9.25;6.75;7.25;4.25;0.25;0.25;0.25;0.0;1.0;0.0;1.0;0.5;0.0;0.75;0.5;0.25;-0.234863;0.02002;0.98291;1.33;0.42;0.91;368.0;-0.260944;-0.00518;5.0;8.75;4.0;5.5;0.25;1.0;0.0;0.5;0.0;0.25;0.75;0.25;0.5;0.5;0.25;0.0;-0.246094;0.03418;0.97168;-0.91;-0.91;0.7;309.0;-0.280258;-0.092305
1.32;9.5;6.5;7.25;4.25;0.25;0.0;0.0;0.0;1.0;0.0;0.75;0.5;0.0;0.5;0.25;0.25;-0.23291;0.024902;0.976562;1.54;0.35;0.84;353.0;-0.27967;-0.003432;5.25;8.75;4.0;5.5;0.5;1.0;0.0;0.5;0.0;0.25;0.75;0.25;0.5;0.75;0.25;0.0;-0.249023;0.035156;0.971191;-0.77;-0.91;0.77;317.0;-0.274824;-0.087085
1.33;9.25;6.75;7.25;4.25;0.0;0.0;0.0;0.0;0.75;0.0;0.75;0.5;0.0;0.5;0.25;0.0;-0.228027;0.027344;0.983887;1.96;0.42;0.84;345.0;-0.289315;-0.007657;5.25;8.25;4.0;5.5;0.5;1.0;0.0;0.5;0.0;0.25;0.75;0.25;0.5;0.5;0.0;0.0;-0.248047;0.031738;0.967773;-0.77;-0.84;0.84;307.0;-0.284059;-0.087834
1.34;8.75;6.5;7.25;4.25;0.25;0.25;0.0;0.0;1.0;0.25;1.0;0.5;0.0;0.75;0.5;0.0;-0.230957;0.026855;0.985352;2.31;0.42;0.7;357.0;-0.260111;-0.00688;5.25;8.75;4.0;5.5;0.5;1.25;0.0;0.5;0.0;0.25;0.75;0.25;0.5;0.75;0.0;0.0;-0.250488;0.03418;0.973633;-0.91;-0.98;0.77;317.0;-0.279836;-0.08887
1.35;8.5;6.0;7.25;4.25;0.25;0.25;0.0;0.0;1.0;0.25;1.0;0.5;0.0;0.75;0.5;0.25;-0.224609;0.027344;0.980957;2.31;0.35;0.7;351.0;-0.254081;-0.006821;5.25;9.0;4.0;5.75;0.5;1.25;0.0;0.5;0.0;0.25;0.5;0.25;0.5;0.5;0.0;0.0;-0.251465;0.037598;0.972656;-0.91;-0.84;0.77;318.0;-0.290602;-0.09247
1.36;8.25;5.75;6.5;4.5;0.25;0.25;0.0;0.25;1.25;0.5;1.25;0.75;0.0;1.25;0.5;0.25;-0.235352;0.030762;0.987793;2.38;0.42;0.77;360.0;-0.223872;-0.012774;5.25;9.0;4.0;6.0;0.5;1.25;0.0;0.5;0.0;0.25;0.5;0.0;0.5;0.5;0.0;0.0;-0.249023;0.036133;0.974121;-0.91;-0.98;0.77;318.0;-0.295105;-0.091878
1.37;8.25;5.75;6.25;4.25;0.25;0.25;0.25;0.0;1.25;0.5;1.25;0.75;0.0;1.25;0.5;0.25;-0.231934;0.032227;0.988281;2.1;0.42;0.84;354.0;-0.221923;-0.004426;5.5;9.0;4.0;5.75;0.25;1.25;0.0;0.5;0.0;0.25;0.75;0.0;0.5;0.5;0.0;0.0;-0.251953;0.036621;0.968262;-0.84;-0.84;0.77;318.0;-0.293052;-0.090499
1.38;8.0;5.5;6.5;4.25;0.25;0.25;0.25;0.0;1.25;0.5;1.25;1.0;0.0;1.25;0.25;0.25;-0.230957;0.029785;0.992676;1.96;0.56;0.77;352.0;-0.221047;-0.005122;5.25;9.0;4.0;5.5;0.25;1.25;0.0;0.5;0.0;0.25;0.5;0.25;0.5;0.5;0.0;0.0;-0.250488;0.034668;0.974121;-0.91;-0.84;0.7;312.0;-0.292222;-0.092676
1.39;7.75;5.5;6.25;4.25;0.25;0.25;0.0;0.25;1.25;0.5;1.25;1.0;0.25;2.0;0.25;0.25;-0.22998;0.03418;0.984375;1.75;0.7;0.84;355.0;-0.205247;-0.013687;5.0;9.0;4.0;6.0;0.5;1.25;0.0;0.5;0.0;0.25;0.5;0.25;0.25;0.25;0.0;0.0;-0.25293;0.035156;0.969727;-1.05;-0.98;0.84;313.0;-0.298221;-0.094781
1.4;7.5;5.5;6.25;4.25;0.25;0.25;0.0;0.0;1.25;0.5;1.5;1.25;0.25;2.0;0.5;0.0;-0.233398;0.032715;0.990234;1.4;0.56;0.77;355.0;-0.196514;-0.012645;5.25;9.0;4.0;6.0;0.5;1.25;0.0;0.5;0.0;0.25;0.5;0.5;0.25;0.25;0.25;0.0;-0.251465;0.039551;0.965332;-0.91;-0.84;0.77;322.0;-0.288317;-0.094676
1.41;7.75;5.5;6.5;4.25;0.25;0.25;0.0;0.0;1.25;0.5;1.5;1.0;0.0;1.5;0.5;0.25;-0.228027;0.037598;0.984863;1.19;0.7;0.77;353.0;-0.210201;-0.009249;5.5;8.75;4.0;5.5;0.5;1.25;0.0;0.5;0.0;0.25;0.5;0.25;0.5;0.25;0.5;0.0;-0.252441;0.036133;0.976562;-0.91;-0.84;0.77;319.0;-0.283194;-0.090636
1.42;7.75;5.5;6.25;4.25;0.25;0.25;0.0;0.25;1.25;0.25;1.5;1.0;0.0;1.25;0.75;0.25;-0.233887;0.030762;0.991211;0.91;0.49;0.7;352.0;-0.210096;-0.017053;5.25;8.5;3.75;5.5;0.5;1.0;0.0;0.5;0.0;0.25;0.75;0.25;0.5;0.25;0.5;0.0;-0.253906;0.037109;0.976562;-0.98;-0.91;0.84;310.0;-0.277747;-0.092097
1.43;7.5;5.25;6.25;4.25;0.25;0.25;0.25;0.25;1.0;0.5;1.5;1.0;0.0;1.5;0.25;0.25;-0.227051;0.038086;0.98291;0.84;0.7;0.56;346.0;-0.210733;-0.01387;5.25;8.75;4.0;5.5;0.5;1.25;0.0;0.5;0.0;0.25;0.5;0.25;0.5;0.5;0.25;0.0;-0.246094;0.034668;0.973145;-0.84;-0.98;0.77;315.0;-0.283273;-0.090527
1.44;7.75;5.5;6.25;4.25;0.25;0.25;0.25;0.25;1.25;0.5;1.5;1.0;0.25;1.5;0.25;0.25;-0.231934;0.032715;0.981934;0.84;0.63;0.56;357.0;-0.206532;-0.014038;5.0;8.75;4.0;5.75;0.5;1.25;0.0;0.5;0.0;0.25;0.5;0.25;0.5;0.5;0.0;0.0;-0.251953;0.035156;0.972168;-0.84;-0.91;0.7;312.0;-0.288564;-0.093698
1.45;7.75;5.25;6.25;4.25;0.25;0.25;0.0;0.25;1.25;0.5;1.75;1.5;0.25;1.75;0.5;0.25;-0.232422;0.034668;0.982422;0.77;0.7;0.49;365.0;-0.189593;-0.020452;5.0;9.0;4.0;5.5;0.5;1.25;0.0;0.5;0.0;0.25;0.75;0.25;0.5;0.75;0.0;0.25;-0.249512;0.035156;0.967773;-0.98;-0.84;0.7;319.0;-0.276845;-0.092281
1.46;7.0;5.25;6.0;4.0;0.25;0.0;0.25;0.25;1.25;0.5;1.5;1.25;0.25;1.75;0.5;0.5;-0.231934;0.035645;0.983398;0.63;0.63;0.42;347.0;-0.184356;-0.015706;5.0;9.0;4.0;5.5;0.5;1.25;0.0;0.5;0.0;0.25;0.75;0.5;0.5;0.75;0.0;0.0;-0.246094;0.029297;0.96582;-0.84;-0.77;0.77;320.0;-0.275418;-0.093087
1.47;7.0;4.75;6.25;4.0;0.25;0.0;0.0;0.25;1.25;0.5;1.5;1.25;0.0;1.75;0.75;0.5;-0.225586;0.034668;0.986816;0.42;0.7;0.42;341.0;-0.182314;-0.013146;5.25;8.75;4.0;5.5;0.5;1.25;0.0;0.5;0.0;0.25;0.75;0.5;0.25;0.75;0.0;0.0;-0.245605;0.037109;0.973633;-0.98;-0.98;0.77;318.0;-0.27873;-0.087983
1.48;7.25;4.75;6.0;4.0;0.25;0.25;0.0;0.25;1.5;0.5;1.5;1.25;0.25;1.5;0.75;0.5;-0.233887;0.031738;0.981445;0.21;0.7;0.42;348.0;-0.180203;-0.016627;5.25;8.75;4.0;5.5;0.5;1.0;0.0;0.25;0.25;0.25;0.75;0.5;0.25;0.75;0.25;0.25;-0.248047;0.038574;0.969238;-0.91;-0.91;0.7;319.0;-0.268245;-0.079221
1.49;7.25;4.75;6.0;4.0;0.25;0.0;0.0;0.25;1.75;0.5;1.75;1.25;0.25;2.0;0.5;0.5;-0.229004;0.032227;0.98291;0.21;0.7;0.49;353.0;-0.169702;-0.009236;5.25;8.75;4.0;5.5;0.5;1.25;0.0;0.5;0.0;0.25;0.75;0.5;0.25;0.75;0.0;0.25;-0.25;0.035645;0.970215;-0.98;-0.84;0.7;320.0;-0.275766;-0.089028
1.5;7.0;4.5;6.25;4.0;0.25;0.0;0.25;0.25;1.5;0.75;1.5;1.25;0.0;1.75;0.5;0.5;-0.230469;0.035645;0.981445;0.14;0.56;0.56;347.0;-0.174375;-0.004826;5.0;8.75;4.0;5.75;0.25;1.25;0.0;0.5;0.0;0.25;0.5;0.5;0.25;0.75;0.0;0.0;-0.250977;0.034668;0.973633;-0.98;-0.91;0.77;312.0;-0.283781;-0.092258
1.51;6.5;4.75;6.0;3.75;0.25;0.25;0.25;0.25;1.0;0.5;1.5;1.0;0.25;1.75;0.75;0.5;-0.227051;0.027344;0.990723;0.35;0.56;0.49;333.0;-0.178939;-0.017224;5.25;8.5;4.0;5.75;0.25;1.25;0.0;0.5;0.0;0.0;0.5;0.5;0.25;0.75;0.0;0.0;-0.252441;0.034668;0.973145;-0.84;-0.91;0.7;310.0;-0.288601;-0.091253
1.52;6.5;4.75;6.0;3.75;0.25;0.25;0.0;0.25;1.75;0.5;2.0;1.25;0.25;2.0;0.75;0.5;-0.230957;0.035156;0.987305;0.07;0.7;0.49;350.0;-0.154929;-0.01396;5.25;8.5;4.0;5.5;0.5;1.25;0.0;0.5;0.0;0.0;0.5;0.75;0.5;0.75;0.0;0.0;-0.253418;0.030762;0.970215;-0.84;-0.98;0.77;315.0;-0.279079;-0.093165
1.53;6.5;4.5;5.75;3.75;0.25;0.25;0.0;0.0;1.5;0.5;2.0;1.5;0.25;2.25;0.75;0.5;-0.232422;0.036621;0.983398;-0.14;0.7;0.63;342.0;-0.151137;-0.013248;5.25;8.5;4.0;5.5;0.5;1.0;0.0;0.5;0.0;0.25;0.75;0.5;0.5;0.75;0.0;0.25;-0.253418;0.037109;0.970703;-0.91;-0.91;0.84;316.0;-0.272492;-0.089458
1.54;6.5;4.25;5.75;3.75;0.25;0.0;0.0;0.0;1.75;0.5;2.0;1.5;0.0;2.0;0.5;0.5;-0.226074;0.03418;0.986816;-0.21;0.7;0.42;333.0;-0.155753;-0.004243;5.25;8.75;4.0;5.75;0.5;1.0;0.0;0.5;0.0;0.25;0.5;0.25;0.5;0.75;0.25;0.0;-0.248535;0.035156;0.970703;-0.98;-1.05;0.84;318.0;-0.279454;-0.088127
1.55;6.5;4.25;6.25;3.75;0.25;0.0;0.0;0.25;1.5;0.5;1.75;1.5;0.0;2.0;0.5;0.25;-0.229492;0.030273;0.986816;-0.42;0.63;0.56;335.0;-0.165908;-0.008009;5.0;8.75;4.0;5.5;0.5;1.0;0.0;0.5;0.0;0.25;0.5;0.25;0.5;0.75;0.25;0.0;-0.251953;0.036621;0.97168;-0.84;-0.98;0.84;312.0;-0.278252;-0.088599
1.56;7.0;4.5;6.0;4.0;0.25;0.0;0.0;0.0;1.25;0.5;1.75;1.5;0.0;2.0;0.5;0.5;-0.227539;0.030273;0.980469;-0.35;0.49;0.56;337.0;-0.176018;-0.009638;4.75;8.5;4.0;5.5;0.5;1.0;0.0;0.5;0.25;0.25;0.5;0.25;0.5;0.5;0.25;0.0;-0.251465;0.033691;0.97168;-0.98;-0.91;0.84;308.0;-0.274964;-0.087569
1.57;7.0;4.25;6.0;4.0;0.25;0.25;0.0;0.0;1.5;0.5;2.0;1.25;0.25;2.0;0.75;0.5;-0.228027;0.035156;0.986816;-0.21;0.42;0.56;346.0;-0.162292;-0.009996;5.5;8.25;4.0;5.5;0.5;1.25;0.0;0.5;0.0;0.25;0.5;0.25;0.5;0.5;0.25;0.0;-0.25;0.037109;0.972656;-0.98;-0.91;0.77;313.0;-0.28221;-0.087507
1.58;6.5;4.5;6.0;4.0;0.25;0.25;0.0;0.0;1.5;0.5;2.0;1.25;0.25;1.75;0.5;0.5;-0.23877;0.038574;0.98291;-0.07;0.56;0.42;338.0;-0.16894;-0.01383;5.5;8.5;4.0;5.5;0.5;1.25;0.0;0.5;0.0;0.25;0.5;0.25;0.5;0.75;0.25;0.25;-0.247559;0.036133;0.96875;-0.84;-0.98;0.77;319.0;-0.275238;-0.087248
1.59;7.0;4.5;6.25;4.0;0.25;0.25;0.0;0.25;1.5;0.5;2.0;1.25;0.25;2.0;0.5;0.5;-0.233887;0.031738;0.984863;-0.14;0.42;0.56;353.0;-0.167859;-0.014171;5.25;8.75;4.0;5.5;0.5;1.25;0.0;0.5;0.0;0.25;0.5;0.5;0.25;0.5;0.25;0.0;-0.250977;0.033203;0.967285;-0.84;-0.98;0.77;316.0;-0.282153;-0.08963
1.6;7.0;4.5;6.25;4.0;0.25;0.25;0.0;0.25;1.5;0.5;2.0;1.25;0.0;1.75;0.5;0.5;-0.226074;0.036133;0.988281;-0.07;0.49;0.56;348.0;-0.174008;-0.012425;5.25;8.75;4.0;5.5;0.5;1.25;0.0;0.5;0.0;0.25;0.5;0.5;0.25;0.25;0.25;0.0;-0.251953;0.036133;0.971191;-0.7;-1.05;0.84;313.0;-0.287299;-0.09161
1.61;7.0;5.0;6.25;4.0;0.5;0.25;0.0;0.25;1.5;0.5;2.0;1.25;0.0;2.0;0.75;0.5;-0.235352;0.034668;0.987793;-0.14;0.63;0.7;362.0;-0.168608;-0.013288;5.25;8.75;3.75;5.5;0.5;1.25;0.0;0.5;0.25;0.25;0.5;0.5;0.25;0.5;0.0;0.0;-0.248535;0.034668;0.979004;-0.84;-0.98;0.77;313.0;-0.282478;-0.087286
1.62;7.0;4.5;6.0;3.75;0.25;0.25;0.0;0.25;1.5;0.75;1.75;1.5;0.0;2.0;0.75;0.5;-0.223633;0.037598;0.98877;-0.35;0.63;0.56;350.0;-0.160347;-0.01167;5.25;8.75;4.0;5.5;0.25;1.25;0.0;0.5;0.0;0.25;0.5;0.75;0.5;0.75;0.0;0.0;-0.24707;0.036133;0.969727;-0.77;-0.98;0.84;317.0;-0.276973;-0.093798
1.63;7.0;4.5;6.0;3.75;0.25;0.25;0.0;0.25;1.5;0.5;2.0;1.5;0.0;2.0;0.75;0.5;-0.227051;0.037598;0.980957;-0.35;0.63;0.63;350.0;-0.160445;-0.013134;5.25;8.75;4.0;5.75;0.5;1.0;0.0;0.5;0.0;0.25;0.5;0.5;0.5;0.75;0.25;0.25;-0.250488;0.030273;0.967773;-0.77;-0.91;0.77;322.0;-0.272134;-0.09102
1.64;7.0;4.5;6.0;4.0;0.25;0.25;0.25;0.25;1.5;0.5;2.0;1.5;0.0;2.0;0.75;0.5;-0.230957;0.037598;0.98291;-0.49;0.63;0.56;357.0;-0.158737;-0.011964;5.25;8.75;4.0;5.5;0.5;1.0;0.0;0.5;0.0;0.25;0.5;0.5;0.5;0.75;0.0;0.25;-0.248535;0.037109;0.97168;-0.77;-0.98;0.77;316.0;-0.278153;-0.08983
1.65;7.25;5.25;6.0;4.0;0.25;0.25;0.0;0.25;1.5;0.5;1.75;1.5;0.25;1.75;0.75;0.25;-0.231445;0.037598;0.981934;-0.42;0.42;0.77;359.0;-0.175567;-0.019273;5.25;8.5;4.0;5.75;0.5;1.0;0.0;0.5;0.0;0.25;0.75;0.75;0.5;0.5;0.0;0.5;-0.251953;0.036621;0.963867;-0.77;-0.98;0.84;321.0;-0.270344;-0.09553
1.66;7.25;5.25;6.0;4.25;0.25;0.25;0.0;0.25;1.5;0.5;1.75;1.5;0.25;1.25;0.5;0.25;-0.232422;0.035645;0.986816;-0.56;0.49;0.63;355.0;-0.188918;-0.023079;5.25;8.75;4.0;5.75;0.25;1.25;0.0;0.5;0.0;0.25;0.75;0.5;0.5;0.5;0.0;0.25;-0.245605;0.037598;0.967285;-0.77;-0.91;0.84;320.0;-0.27901;-0.096397
1.67;7.25;5.0;6.0;4.0;0.25;0.25;0.0;0.25;1.5;0.25;1.75;1.25;0.25;1.5;0.5;0.5;-0.231445;0.035645;0.987305;-0.7;0.56;0.63;347.0;-0.186865;-0.018646;5.25;9.0;4.0;5.75;0.5;1.25;0.0;0.5;0.0;0.0;0.75;0.5;0.5;0.75;0.0;0.0;-0.249512;0.033203;0.970703;-0.77;-0.98;0.77;323.0;-0.28119;-0.093923
1.68;7.25;5.0;6.25;4.0;0.25;0.0;0.0;0.25;1.0;0.25;2.0;1.25;0.25;1.75;0.5;0.5;-0.23291;0.033203;0.98291;-0.63;0.49;0.63;346.0;-0.189588;-0.021056;5.5;9.0;4.0;5.5;0.5;1.0;0.0;0.5;0.25;0.0;0.75;0.75;0.5;0.75;0.0;0.0;-0.249512;0.03418;0.969238;-0.91;-1.05;0.91;326.0;-0.273145;-0.087075
1.69;7.25;5.0;6.25;4.0;0.25;0.0;0.0;0.25;1.0;0.5;2.0;1.25;0.25;1.5;0.5;0.25;-0.227051;0.039551;0.985352;-0.84;0.56;0.63;345.0;-0.192462;-0.020436;5.5;8.75;4.0;5.5;0.25;1.0;0.0;0.5;0.25;0.0;0.75;0.25;0.5;0.75;0.25;0.25;-0.25;0.039551;0.96582;-0.84;-0.98;0.77;319.0;-0.273057;-0.08509
1.7;7.5;5.25;6.25;4.25;0.25;0.0;0.0;0.25;1.25;0.5;1.75;1.25;0.25;1.5;0.5;0.25;-0.235352;0.033691;0.983887;-0.63;0.35;0.63;354.0;-0.195397;-0.01842;5.25;9.0;4.0;5.5;0.25;1.0;0.0;0.5;0.0;0.25;0.5;0.25;0.5;0.5;0.0;0.0;-0.248535;0.035156;0.973145;-0.84;-0.98;0.7;309.0;-0.29357;-0.090941
1.71;7.5;5.25;6.5;4.25;0.25;0.0;0.0;0.25;1.25;0.5;1.75;1.25;0.25;1.5;0.75;0.5;-0.232422;0.036133;0.986816;-0.63;0.49;0.49;361.0;-0.188922;-0.019228;5.25;8.5;4.0;5.5;0.25;1.25;0.0;0.5;0.0;0.25;0.75;0.25;0.25;0.75;0.0;0.0;-0.246582;0.029785;0.973633;-0.77;-0.84;0.77;310.0;-0.283636;-0.086862
1.72;7.75;5.25;6.5;4.25;0.25;0.25;0.0;0.25;1.25;0.75;1.75;1.25;0.25;1.75;0.5;0.5;-0.235352;0.043457;0.981934;-0.56;0.49;0.56;369.0;-0.187813;-0.017923;5.0;8.75;4.0;5.5;0.5;1.25;0.0;0.5;0.0;0.25;0.75;0.25;0.25;0.75;0.0;0.25;-0.249512;0.03125;0.974609;-0.84;-0.91;0.84;314.0;-0.27907;-0.088915
1.73;7.75;5.25;6.25;4.25;0.25;0.25;0.0;0.0;1.25;0.5;1.75;1.25;0.25;1.5;0.5;0.5;-0.22998;0.032715;0.983398;-0.63;0.49;0.56;357.0;-0.196515;-0.016401;5.25;9.0;4.0;5.5;0.5;1.0;0.0;0.5;0.0;0.25;0.75;0.25;0.25;0.75;0.0;0.0;-0.249512;0.037109;0.971191;-0.77;-0.91;0.77;315.0;-0.285499;-0.08496
1.74;7.5;5.25;6.25;4.25;0.25;0.25;0.0;0.0;1.25;0.25;1.75;1.25;0.25;1.5;0.75;0.5;-0.229004;0.032227;0.981445;-0.49;0.49;0.63;354.0;-0.193478;-0.01858;5.25;9.0;4.0;5.75;0.5;1.0;0.0;0.5;0.25;0.0;0.5;0.25;0.25;0.5;0.25;0.0;-0.254395;0.038086;0.965332;-0.77;-0.84;0.63;316.0;-0.287585;-0.085184
1.75;7.5;5.0;6.25;4.0;0.25;0.25;0.0;0.25;1.25;0.25;1.75;1.25;0.25;1.5;0.5;0.5;-0.228027;0.032227;0.984863;-0.63;0.49;0.63;350.0;-0.193834;-0.01967;5.25;9.0;4.0;5.5;0.5;1.0;0.0;0.5;0.25;0.25;0.5;0.25;0.5;0.5;0.0;0.0;-0.245117;0.032227;0.975586;-0.84;-0.98;0.77;315.0;-0.285734;-0.085351
1.76;7.25;5.0;6.25;4.25;0.25;0.25;0.0;0.25;1.25;0.25;2.0;1.25;0.25;1.5;0.5;0.5;-0.231934;0.035645;0.983398;-0.56;0.42;0.56;353.0;-0.189547;-0.023225;5.25;8.75;4.0;5.75;0.5;1.0;0.0;0.5;0.25;0.25;0.75;0.25;0.5;0.5;0.0;0.25;-0.250977;0.03418;0.975098;-0.84;-0.98;0.7;320.0;-0.277162;-0.087349
1.77;7.5;5.0;6.25;4.25;0.25;0.25;0.0;0.0;1.25;0.25;2.0;1.25;0.25;1.5;0.5;0.5;-0.234375;0.029297;0.983887;-0.56;0.42;0.49;351.0;-0.193367;-0.017795;5.25;8.75;4.0;5.5;0.5;1.25;0.0;0.5;0.25;0.25;0.5;0.5;0.5;0.25;0.0;0.0;-0.249512;0.030762;0.969727;-0.77;-0.91;0.7;316.0;-0.28405;-0.090313
1.78;7.5;5.0;6.25;4.25;0.25;0.25;0.0;0.25;1.25;0.5;1.75;1.25;0.25;1.5;0.5;0.5;-0.230957;0.033691;0.98877;-0.49;0.56;0.63;356.0;-0.191153;-0.020732;5.5;8.75;4.0;5.5;0.25;1.25;0.0;0.5;0.0;0.0;0.5;0.5;0.5;0.5;0.0;0.0;-0.249023;0.031738;0.968262;-0.84;-0.84;0.63;312.0;-0.292444;-0.093554
1.79;7.25;5.0;6.25;4.25;0.0;0.25;0.0;0.25;1.5;0.5;1.75;1.25;0.25;1.75;0.75;0.25;-0.22998;0.03418;0.987305;-0.42;0.49;0.42;357.0;-0.179099;-0.017481;5.5;8.75;4.0;5.5;0.25;1.25;0.0;0.5;0.0;0.0;0.5;0.25;0.5;0.75;0.0;0.0;-0.250977;0.032715;0.970703;-0.84;-0.91;0.7;312.0;-0.291832;-0.089667
1.8;7.5;5.0;6.25;4.25;0.25;0.25;0.0;0.25;1.0;0.5;1.75;1.25;0.25;2.0;0.75;0.25;-0.234863;0.027344;0.986328;-0.56;0.49;0.49;358.0;-0.185282;-0.020386;5.0;8.75;4.0;5.5;0.5;1.25;0.0;0.5;0.25;0.25;0.5;0.25;0.5;0.75;0.0;0.0;-0.253906;0.035645;0.969238;-0.77;-0.98;0.7;315.0;-0.277234;-0.08628
1.81;7.0;5.0;6.25;4.0;0.25;0.25;0.0;0.25;1.25;0.5;1.75;1.25;0.25;1.75;1.0;0.25;-0.231445;0.032227;0.987793;-0.56;0.56;0.56;354.0;-0.175576;-0.019541;5.25;8.75;4.0;5.5;0.25;1.0;0.0;0.5;0.0;0.25;0.5;0.25;0.25;0.75;0.0;0.0;-0.245605;0.033203;0.973145;-0.77;-0.84;0.77;306.0;-0.290764;-0.085436
1.82;7.0;4.75;6.25;4.0;0.25;0.25;0.0;0.25;1.25;0.5;1.75;1.25;0.25;1.75;1.0;0.5;-0.229004;0.035156;0.981934;-0.63;0.7;0.56;352.0;-0.1716;-0.019728;5.25;8.5;4.0;5.5;0.5;0.75;0.0;0.5;0.0;0.25;0.5;0.25;0.25;0.25;0.25;0.0;-0.25293;0.030762;0.972168;-0.84;-0.98;0.77;302.0;-0.293618;-0.085472
1.83;7.25;4.75;6.25;4.0;0.25;0.25;0.0;0.25;1.5;0.5;2.0;1.5;0.25;1.75;0.75;0.5;-0.233887;0.039551;0.981934;-0.63;0.56;0.49;362.0;-0.167598;-0.018281;4.75;8.5;4.0;5.75;0.5;1.0;0.0;0.5;0.0;0.0;0.5;0.25;0.5;0.25;0.25;0.0;-0.250977;0.034668;0.969727;-0.77;-0.98;0.77;302.0;-0.291524;-0.096686
1.84;7.0;5.0;6.25;4.0;0.25;0.25;0.0;0.25;1.5;0.5;2.0;2.0;0.25;1.75;0.5;0.5;-0.231934;0.035156;0.983887;-0.7;0.49;0.42;364.0;-0.166064;-0.024178;5.25;8.75;4.0;5.5;0.5;1.0;0.0;0.5;0.0;0.25;0.75;0.25;0.25;0.5;0.25;0.25;-0.255371;0.035156;0.978516;-0.7;-0.84;0.84;314.0;-0.280235;-0.087301
1.85;7.25;5.25;6.0;4.25;0.25;0.25;0.0;0.25;1.25;0.25;1.75;1.5;0.25;1.75;0.5;0.5;-0.231445;0.033691;0.980957;-0.56;0.49;0.63;355.0;-0.18668;-0.02536;5.25;9.0;4.0;5.5;0.5;1.25;0.0;0.5;0.0;0.0;0.75;0.25;0.25;0.25;0.25;0.25;-0.249512;0.032715;0.969727;-0.77;-0.98;0.77;315.0;-0.289935;-0.09301
1.86;7.25;5.0;6.0;4.0;0.25;0.25;0.0;0.25;1.5;0.25;1.5;1.25;0.25;2.0;0.75;0.5;-0.231445;0.032715;0.984863;-0.7;0.63;0.63;352.0;-0.177474;-0.015784;5.5;8.75;4.0;5.5;0.5;1.0;0.0;0.5;0.0;0.0;0.5;0.25;0.5;0.25;0.0;0.25;-0.245605;0.028809;0.972168;-0.77;-0.91;0.77;308.0;-0.299026;-0.091529
1.87;7.0;4.75;6.0;4.0;0.25;0.25;0.0;0.25;1.5;0.5;1.75;1.25;0.25;2.0;0.5;0.25;-0.231445;0.035645;0.981934;-0.7;0.49;0.49;348.0;-0.174287;-0.014067;5.25;8.75;4.0;5.5;0.5;1.0;0.0;0.5;0.0;0.25;0.5;0.25;0.5;0.5;0.0;0.0;-0.250977;0.033691;0.967773;-0.7;-0.98;0.7;309.0;-0.290935;-0.088851
1.88;7.25;4.75;6.25;4.0;0.25;0.25;0.0;0.0;1.5;0.5;1.75;1.25;0.25;1.75;0.5;0.25;-0.233398;0.041016;0.98584;-0.77;0.56;0.56;348.0;-0.182813;-0.008915;5.5;8.75;4.25;5.5;0.5;1.0;0.0;0.5;0.0;0.0;0.5;0.25;0.5;0.5;0.0;0.0;-0.248535;0.036133;0.975098;-0.77;-0.91;0.84;312.0;-0.296539;-0.086711
1.89;7.25;5.25;6.25;4.0;0.25;0.25;0.0;0.0;1.25;0.5;2.0;1.25;0.0;1.75;0.5;0.5;-0.232422;0.035156;0.989258;-0.84;0.56;0.56;351.0;-0.187387;-0.01318;5.25;8.5;4.0;5.5;0.5;1.5;0.0;0.5;0.0;0.0;0.5;0.25;0.5;0.5;0.0;0.0;-0.246582;0.031738;0.976562;-0.56;-0.98;0.84;310.0;-0.292123;-0.093156
1.9;7.25;5.0;6.0;4.0;0.25;0.25;0.0;0.0;1.25;0.5;1.75;1.25;0.0;1.5;0.5;0.25;-0.233887;0.035156;0.986328;-0.77;0.42;0.7;339.0;-0.194975;-0.012092;5.0;8.75;4.0;5.5;0.5;1.25;0.0;0.5;0.0;0.0;0.5;0.25;0.25;0.25;0.0;0.0;-0.250977;0.033691;0.969727;-0.7;-1.05;0.84;302.0;-0.302513;-0.093095
1.91;7.25;5.5;6.25;4.0;0.25;0.25;0.0;0.0;1.25;0.5;1.75;1.25;0.0;1.75;0.5;0.25;-0.234375;0.033203;0.984375;-0.84;0.56;0.49;349.0;-0.194751;-0.012168;5.25;8.75;4.0;5.5;0.5;1.0;0.0;0.5;0.0;0.25;0.5;0.25;0.25;0.25;0.0;0.25;-0.252441;0.032715;0.970215;-0.56;-0.91;0.84;306.0;-0.296656;-0.089091
1.92;7.25;5.25;6.25;4.25;0.25;0.25;0.0;0.25;1.25;0.5;1.75;1.5;0.25;2.0;0.5;0.25;-0.229492;0.033691;0.986328;-0.91;0.42;0.56;361.0;-0.182378;-0.021204;5.25;8.5;4.0;5.5;0.5;1.25;0.0;0.5;0.0;0.25;0.5;0.25;0.25;0.5;0.0;0.0;-0.24707;0.03125;0.963867;-0.56;-0.98;0.77;307.0;-0.292087;-0.087143
1.93;7.75;5.0;6.25;4.25;0.25;0.0;0.0;0.25;1.25;0.5;1.75;1.5;0.25;1.5;0.5;0.5;-0.230469;0.031738;0.98584;-0.91;0.63;0.63;358.0;-0.189934;-0.019827;5.25;8.5;4.0;5.5;0.5;1.0;0.0;0.5;0.0;0.25;0.5;0.25;0.25;0.25;0.0;0.0;-0.247559;0.03418;0.971191;-0.7;-1.05;0.77;302.0;-0.298878;-0.087348
1.94;7.75;5.25;6.25;4.25;0.25;0.25;0.0;0.0;1.0;0.25;1.75;1.25;0.0;1.5;0.5;0.5;-0.233398;0.034668;0.984375;-0.84;0.42;0.56;348.0;-0.207213;-0.017033;5.25;8.75;4.0;5.5;0.5;1.0;0.0;0.5;0.0;0.25;0.5;0.25;0.25;0.25;0.0;0.0;-0.254883;0.033691;0.969238;-0.7;-0.98;0.91;305.0;-0.299852;-0.088
1.95;7.75;5.25;6.25;4.25;0.25;0.25;0.0;0.0;1.25;0.25;1.75;1.25;0.0;1.5;0.5;0.5;-0.228027;0.031738;0.981445;-1.12;0.42;0.56;352.0;-0.202498;-0.014069;5.25;8.5;4.0;5.75;0.5;1.0;0.0;0.5;0.25;0.25;0.5;0.25;0.25;0.25;0.0;0.0;-0.253418;0.033691;0.964844;-0.77;-0.91;0.84;309.0;-0.292335;-0.084494
1.96;8.0;5.25;6.25;4.25;0.25;0.0;0.0;0.0;1.5;0.5;1.5;1.0;0.0;1.5;0.75;0.5;-0.228516;0.036621;0.98291;-1.05;0.49;0.56;355.0;-0.198214;-0.004832;5.25;9.0;4.0;5.5;0.5;1.0;0.0;0.5;0.25;0.25;0.5;0.25;0.25;0.5;0.0;0.25;-0.24707;0.036133;0.973145;-0.7;-0.98;0.77;315.0;-0.286096;-0.083608
1.97;8.0;5.5;6.25;4.25;0.25;0.25;0.0;0.0;1.25;0.5;1.25;1.0;0.0;1.75;0.75;0.5;-0.230957;0.034668;0.984375;-1.05;0.49;0.49;356.0;-0.203363;-0.008931;5.25;9.0;4.0;5.5;0.5;1.0;0.0;0.5;0.0;0.0;0.75;0.25;0.5;0.25;0.0;0.0;-0.258789;0.038086;0.97168;-0.7;-0.91;0.84;310.0;-0.297337;-0.093131
1.98;7.75;5.5;7.0;4.25;0.25;0.25;0.0;0.25;1.0;0.25;1.5;1.0;0.0;1.5;0.5;0.5;-0.23291;0.033203;0.98877;-1.19;0.28;0.7;358.0;-0.214719;-0.01669;5.5;9.0;4.0;5.5;0.5;1.0;0.0;0.5;0.0;0.25;0.75;0.25;0.25;0.25;0.0;0.0;-0.245605;0.031738;0.974121;-0.77;-0.84;0.77;313.0;-0.296923;-0.087105
1.99;8.0;5.25;7.0;4.25;0.25;0.25;0.0;0.0;1.0;0.25;1.5;0.25;0.0;1.5;0.5;0.5;-0.229492;0.036621;0.984375;-1.26;0.49;0.63;346.0;-0.227828;-0.003069;5.25;9.0;4.0;5.5;0.5;1.25;0.0;0.5;0.0;0.25;0.75;0.25;0.25;0.25;0.0;0.0;-0.255859;0.038086;0.972168;-0.63;-0.84;0.77;313.0;-0.294586;-0.090641
2.0;8.0;5.5;6.25;4.25;0.25;0.25;0.0;0.0;1.0;0.25;1.5;0.75;0.0;1.25;0.5;0.5;-0.228027;0.034668;0.985352;-1.33;0.42;0.56;342.0;-0.2252;-0.012891;5.25;8.75;4.0;5.5;0.5;1.25;0.0;0.5;0.0;0.25;0.5;0.5;0.25;0.25;0.0;0.25;-0.248535;0.028809;0.974121;-0.77;-0.98;0.84;312.0;-0.290606;-0.092749
2.01;8.25;5.5;6.5;4.25;0.25;0.25;0.0;0.0;1.0;0.5;1.25;1.0;0.0;1.25;0.25;0.25;-0.233887;0.037109;0.978516;-1.12;0.56;0.63;347.0;-0.231035;-0.010015;5.25;9.0;4.0;5.5;0.5;1.0;0.0;0.5;0.0;0.25;0.5;0.5;0.25;0.25;0.0;0.25;-0.250977;0.038574;0.972656;-0.7;-0.91;0.77;312.0;-0.292947;-0.091623
2.02;8.25;5.5;7.0;4.25;0.25;0.25;0.0;0.25;1.0;0.25;1.5;1.25;0.0;1.5;0.25;0.25;-0.23877;0.035645;0.985352;-1.26;0.56;0.56;362.0;-0.221569;-0.015217;5.25;9.0;4.0;5.5;0.5;1.25;0.0;0.5;0.0;0.25;0.5;0.5;0.5;0.5;0.0;0.25;-0.24707;0.038086;0.971191;-0.7;-0.91;0.77;319.0;-0.283095;-0.094084
2.03;8.25;5.5;7.0;4.25;0.25;0.25;0.0;0.0;1.0;0.25;1.5;1.25;0.0;1.5;0.5;0.25;-0.226562;0.032227;0.985352;-1.26;0.56;0.56;361.0;-0.218987;-0.011406;5.25;9.0;4.0;5.5;0.25;1.0;0.0;0.5;0.0;0.25;0.75;0.5;0.5;0.75;0.0;0.25;-0.251953;0.035645;0.973145;-0.63;-0.91;0.77;318.0;-0.276162;-0.092093
2.04;8.25;6.0;7.0;4.25;0.25;0.25;0.0;0.25;0.75;0.0;1.25;1.0;0.0;1.25;0.25;0.25;-0.228027;0.036133;0.984375;-1.26;0.49;0.49;353.0;-0.244238;-0.019107;5.25;8.5;4.0;5.5;0.25;1.0;0.0;0.5;0.0;0.25;0.75;0.25;0.5;0.5;0.0;0.25;-0.248047;0.034668;0.96875;-0.77;-0.91;0.84;308.0;-0.28359;-0.091011
2.05;8.75;6.0;7.0;4.25;0.25;0.0;0.0;0.0;0.75;0.25;1.25;0.75;0.0;1.25;0.25;0.25;-0.227539;0.033691;0.984375;-1.19;0.42;0.63;351.0;-0.250125;-0.007538;5.25;8.5;4.0;5.75;0.25;1.0;0.0;0.5;0.25;0.25;0.75;0.5;0.5;0.5;0.0;0.25;-0.249023;0.034668;0.974609;-0.77;-0.91;0.84;318.0;-0.273076;-0.090017
2.06;8.5;6.0;7.0;4.25;0.25;0.0;0.0;0.25;0.75;0.25;1.25;1.0;0.0;1.25;0.25;0.25;-0.234375;0.032715;0.980957;-1.12;0.56;0.63;356.0;-0.242399;-0.015301;5.25;8.5;4.0;5.5;0.25;1.25;0.0;0.5;0.0;0.25;0.75;0.25;0.25;0.5;0.0;0.0;-0.249023;0.039062;0.976074;-0.7;-0.98;0.77;307.0;-0.288895;-0.08886
2.07;8.25;6.0;7.0;4.5;0.25;0.25;0.0;0.0;1.0;0.25;1.25;1.0;0.0;1.25;0.25;0.25;-0.226562;0.031738;0.984863;-0.91;0.49;0.56;358.0;-0.23845;-0.012907;5.25;8.75;4.0;5.75;0.25;0.5;0.0;0.5;0.0;0.25;0.75;0.25;0.25;0.5;0.0;0.0;-0.251953;0.032715;0.970703;-0.7;-0.98;0.77;304.0;-0.293955;-0.085439
2.08;8.5;6.25;7.0;4.25;0.25;0.0;0.0;0.0;1.0;0.25;1.25;0.75;0.0;1.25;0.5;0.25;-0.229492;0.02832;0.983398;-1.12;0.63;0.49;357.0;-0.239744;-0.007356;5.25;8.75;4.0;5.5;0.25;0.75;0.0;0.5;0.0;0.25;0.75;0.25;0.25;0.75;0.0;0.0;-0.25293;0.032227;0.967285;-0.77;-1.05;0.84;306.0;-0.287284;-0.0839
2.09;8.75;6.25;6.5;4.25;0.25;0.25;0.0;0.0;0.75;0.25;1.5;0.75;0.0;1.25;0.5;0.25;-0.233887;0.033203;0.982422;-1.05;0.56;0.49;356.0;-0.241114;-0.014;5.5;8.75;4.0;5.5;0.5;1.0;0.0;0.5;0.0;0.25;0.75;0.25;0.5;0.25;0.0;0.0;-0.244629;0.031738;0.975586;-0.7;-0.91;0.84;313.0;-0.292447;-0.089288
2.1;8.75;6.25;7.0;4.25;0.25;0.0;0.0;0.0;0.75;0.25;1.25;1.0;0.0;1.0;0.5;0.25;-0.227539;0.029297;0.987305;-0.98;0.42;0.63;357.0;-0.246625;-0.012785;5.25;8.75;4.0;5.5;0.25;1.0;0.0;0.5;0.0;0.25;0.5;0.25;0.5;0.25;0.0;0.0;-0.246094;0.041016;0.972656;-0.7;-0.91;0.77;304.0;-0.297941;-0.092368
2.11;8.75;6.25;7.0;4.5;0.25;0.0;0.0;0.0;0.75;0.25;1.25;1.0;0.0;1.0;0.5;0.25;-0.233887;0.030273;0.986328;-1.12;0.42;0.56;360.0;-0.246965;-0.01455;5.25;8.75;4.0;5.75;0.25;1.25;0.0;0.5;0.0;0.25;0.5;0.25;0.5;0.5;0.0;0.0;-0.249023;0.034668;0.970215;-0.63;-0.91;0.77;312.0;-0.291173;-0.093353
2.12;8.5;6.0;7.0;4.5;0.25;0.0;0.0;0.0;0.75;0.25;1.5;0.75;0.0;0.75;0.5;0.25;-0.232422;0.030762;0.980469;-0.98;0.49;0.63;353.0;-0.248732;-0.014246;5.25;8.75;4.0;5.5;0.5;1.0;0.0;0.5;0.0;0.25;0.75;0.5;0.5;0.5;0.25;0.0;-0.249512;0.035645;0.973633;-0.77;-0.98;0.84;318.0;-0.275455;-0.090907
2.13;8.75;6.5;7.0;4.5;0.25;0.25;0.0;0.0;0.75;0.25;1.5;0.75;0.0;1.0;0.5;0.25;-0.226074;0.030273;0.982422;-0.91;0.42;0.7;366.0;-0.24726;-0.016272;5.5;8.75;4.0;5.5;0.5;1.0;0.0;0.5;0.0;0.25;0.5;0.75;0.5;0.5;0.0;0.0;-0.246094;0.034668;0.971191;-0.7;-0.91;0.84;318.0;-0.282868;-0.090838
2.14;8.75;6.5;7.0;4.5;0.25;0.25;0.0;0.0;0.75;0.25;1.25;1.0;0.0;1.0;0.25;0.25;-0.235352;0.035645;0.986328;-1.05;0.49;0.49;363.0;-0.252538;-0.017186;5.25;8.75;4.0;5.5;0.25;1.0;0.0;0.5;0.0;0.0;0.5;0.25;0.5;0.5;0.0;0.25;-0.25293;0.040527;0.97168;-0.63;-0.84;0.77;305.0;-0.294351;-0.092842
2.15;8.75;6.5;7.0;4.5;0.25;0.25;0.0;0.25;0.5;0.0;1.0;0.75;0.25;1.25;0.25;0.25;-0.232422;0.032227;0.986816;-0.98;0.56;0.56;360.0;-0.259164;-0.023698;5.25;9.0;4.0;5.5;0.25;1.0;0.0;0.5;0.0;0.25;0.5;0.25;0.5;0.5;0.0;0.0;-0.252441;0.032715;0.968262;-0.63;-0.91;0.77;309.0;-0.29357;-0.090941
2.16;8.75;6.5;7.25;4.5;0.25;0.0;0.0;0.25;0.5;0.0;1.0;0.75;0.0;1.25;0.5;0.5;-0.230469;0.035645;0.98291;-1.05;0.7;0.56;362.0;-0.255064;-0.019495;5.5;9.0;4.0;5.75;0.5;1.0;0.0;0.5;0.0;0.25;0.5;0.25;0.5;0.5;0.25;0.0;-0.24707;0.035645;0.967773;-0.7;-0.91;0.84;321.0;-0.286638;-0.088927
2.17;8.75;6.5;7.0;4.25;0.25;0.0;0.0;0.0;0.5;0.25;1.0;0.75;0.0;0.75;0.5;0.25;-0.230469;0.024902;0.986328;-0.98;0.7;0.49;348.0;-0.265073;-0.014925;5.5;8.5;4.0;5.75;0.5;1.25;0.0;0.5;0.0;0.25;0.75;0.25;0.25;0.25;0.0;0.0;-0.245605;0.032227;0.96582;-0.77;-0.98;0.84;314.0;-0.293539;-0.088913
2.18;9.0;6.5;7.0;4.25;0.25;0.25;0.0;0.0;0.75;0.25;1.0;0.75;0.0;0.75;0.25;0.25;-0.232422;0.029297;0.977539;-0.84;0.42;0.63;355.0;-0.265407;-0.01264;5.5;8.75;4.0;5.75;0.5;1.0;0.0;0.5;0.0;0.0;0.5;0.25;0.25;0.25;0.0;0.0;-0.249512;0.032715;0.972168;-0.7;-0.91;0.84;308.0;-0.305676;-0.088927
2.19;9.0;6.25;7.0;4.5;0.25;0.0;0.0;0.0;0.75;0.25;1.0;0.75;0.0;0.75;0.5;0.25;-0.225586;0.035156;0.981445;-0.98;0.49;0.56;355.0;-0.260035;-0.011724;5.5;8.75;4.0;5.5;0.5;1.0;0.0;0.5;0.0;0.25;0.5;0.25;0.25;0.25;0.0;0.0;-0.24707;0.037598;0.964844;-0.77;-0.98;0.91;307.0;-0.300805;-0.086189
2.2;8.75;6.5;7.0;4.5;0.25;0.0;0.0;0.0;0.75;0.25;1.25;1.0;0.0;0.75;0.25;0.25;-0.23291;0.03125;0.979004;-1.05;0.49;0.63;358.0;-0.257689;-0.016324;5.25;8.75;4.0;5.5;0.5;1.0;0.0;0.5;0.0;0.0;0.5;0.25;0.25;0.5;0.0;0.0;-0.252441;0.03418;0.974609;-0.63;-0.84;0.77;304.0;-0.299464;-0.087392
2.21;9.0;6.75;6.5;4.5;0.25;0.25;0.0;0.0;0.75;0.25;1.0;1.0;0.0;0.75;0.25;0.25;-0.229492;0.031738;0.993652;-0.84;0.42;0.56;357.0;-0.262829;-0.019534;5.25;8.75;4.0;5.5;0.5;1.0;0.0;0.5;0.0;0.0;0.5;0.25;0.5;0.5;0.0;0.0;-0.244141;0.039551;0.969238;-0.63;-0.91;0.7;306.0;-0.295862;-0.090267
2.22;9.0;6.75;6.5;4.25;0.25;0.25;0.0;0.0;0.75;0.0;1.25;0.75;0.0;0.75;0.5;0.25;-0.227051;0.03125;0.983887;-0.91;0.49;0.63;354.0;-0.261125;-0.017501;5.5;9.0;4.0;5.75;0.5;1.25;0.0;0.5;0.0;0.0;0.75;0.25;0.5;0.25;0.0;0.25;-0.249023;0.029297;0.972168;-0.77;-0.91;0.77;320.0;-0.293787;-0.095272
2.23;9.0;6.5;7.0;4.5;0.0;0.25;0.0;0.25;0.75;0.25;1.0;0.75;0.0;0.5;0.25;0.25;-0.223145;0.02832;0.983887;-0.84;0.42;0.56;356.0;-0.268232;-0.020716;5.5;9.0;4.0;5.5;0.5;1.0;0.0;0.5;0.0;0.0;0.75;0.25;0.25;0.25;0.0;0.0;-0.25;0.037598;0.971191;-0.7;-0.91;0.84;310.0;-0.301849;-0.088489
2.24;9.0;6.5;7.0;4.5;0.0;0.0;0.0;0.25;0.75;0.0;0.75;0.75;0.0;0.5;0.25;0.0;-0.230957;0.035156;0.980469;-0.91;0.49;0.56;346.0;-0.280173;-0.017206;5.5;8.75;4.0;5.5;0.25;1.0;0.0;0.5;0.0;0.25;0.5;0.25;0.5;0.5;0.25;0.0;-0.248047;0.035156;0.972656;-0.63;-0.98;0.77;312.0;-0.28713;-0.088442
2.25;9.0;6.25;7.0;4.5;0.25;0.25;0.0;0.25;1.0;0.0;1.25;0.5;0.0;0.75;0.25;0.25;-0.231445;0.031738;0.984863;-0.84;0.28;0.63;360.0;-0.260311;-0.014025;5.5;8.75;4.0;5.5;0.25;1.0;0.0;0.5;0.0;0.25;0.5;0.0;0.25;0.25;0.25;0.0;-0.248535;0.031738;0.966309;-0.77;-1.05;0.91;304.0;-0.300693;-0.085624
2.26;9.0;6.5;7.25;4.5;0.25;0.25;0.0;0.25;1.0;0.25;1.0;0.5;0.0;0.5;0.5;0.25;-0.232422;0.03125;0.984375;-0.91;0.28;0.56;366.0;-0.260379;-0.01456;5.5;9.0;4.0;5.5;0.5;1.0;0.0;0.5;0.0;0.25;0.5;0.0;0.25;0.25;0.25;0.0;-0.25;0.033203;0.972168;-0.7;-1.12;0.77;310.0;-0.299939;-0.084856
2.27;9.0;6.75;7.25;4.5;0.0;0.25;0.0;0.0;0.75;0.0;0.75;0.25;0.0;0.5;0.25;0.0;-0.231445;0.031738;0.984375;-0.84;0.42;0.49;345.0;-0.291348;-0.01038;5.5;9.0;4.0;5.5;0.5;1.25;0.0;0.5;0.0;0.0;0.5;0.25;0.5;0.5;0.25;0.25;-0.24707;0.03125;0.969238;-0.7;-0.98;0.77;319.0;-0.287066;-0.091767
2.28;9.25;6.75;7.25;4.5;0.0;0.25;0.0;0.0;0.5;0.0;1.0;0.5;0.0;0.5;0.25;0.0;-0.236328;0.033203;0.982422;-0.84;0.49;0.63;350.0;-0.289501;-0.015539;5.25;8.75;4.0;5.5;0.25;1.25;0.0;0.5;0.0;0.25;0.25;0.25;0.5;0.5;0.0;0.25;-0.251953;0.030273;0.971191;-0.7;-0.98;0.77;308.0;-0.292875;-0.092921
2.29;9.25;6.75;7.0;4.75;0.0;0.25;0.0;0.0;0.5;0.0;1.0;0.5;0.0;0.75;0.25;0.25;-0.230957;0.032715;0.983887;-0.91;0.49;0.63;354.0;-0.282361;-0.018198;5.5;8.75;4.0;5.75;0.25;1.0;0.0;0.5;0.0;0.25;0.25;0.25;0.25;0.5;0.0;0.0;-0.24707;0.034668;0.973145;-0.77;-0.91;0.77;307.0;-0.301904;-0.086714
2.3;9.0;6.75;7.25;4.5;0.0;0.25;0.0;0.0;0.5;0.0;0.75;0.5;0.0;0.75;0.25;0.0;-0.229492;0.03125;0.985352;-0.84;0.56;0.56;347.0;-0.288123;-0.014432;5.5;8.75;4.0;5.5;0.25;1.0;0.0;0.5;0.0;0.0;0.5;0.25;0.25;0.5;0.25;0.0;-0.249512;0.035156;0.968262;-0.63;-0.84;0.77;307.0;-0.29552;-0.086988
2.31;9.25;6.75;7.25;4.5;0.25;0.25;0.0;0.0;0.5;0.0;0.75;0.5;0.0;0.75;0.25;0.0;-0.233398;0.035156;0.986816;-0.63;0.42;0.63;352.0;-0.287661;-0.012797;5.25;9.0;4.0;5.5;0.25;1.0;0.0;0.25;0.0;0.25;0.5;0.25;0.25;0.25;0.0;0.25;-0.250977;0.027832;0.976562;-0.56;-0.91;0.77;302.0;-0.30329;-0.087052
2.32;9.25;6.75;7.25;4.5;0.25;0.25;0.0;0.0;0.5;0.0;1.0;0.5;0.0;0.75;0.5;0.25;-0.229492;0.034668;0.987793;-0.91;0.49;0.56;360.0;-0.275364;-0.015409;5.5;9.0;4.0;6.0;0.5;1.25;0.0;0.5;0.0;0.25;0.5;0.0;0.25;0.25;0.0;0.25;-0.251465;0.03125;0.972656;-0.56;-0.91;0.84;318.0;-0.301626;-0.090352
2.33;9.25;6.5;7.0;4.5;0.25;0.25;0.0;0.0;0.5;0.0;1.0;0.75;0.0;0.75;0.5;0.0;-0.22998;0.029785;0.987305;-0.84;0.56;0.56;355.0;-0.273169;-0.016269;5.75;9.0;4.0;5.5;0.5;1.25;0.0;0.5;0.0;0.25;0.5;0.0;0.5;0.25;0.0;0.0;-0.246094;0.03125;0.967773;-0.56;-0.98;0.77;315.0;-0.302401;-0.087731
2.34;9.5;6.75;7.25;4.5;0.25;0.25;0.0;0.0;0.5;0.0;0.75;0.75;0.0;0.75;0.5;0.0;-0.228027;0.033203;0.989746;-0.84;0.63;0.56;361.0;-0.27908;-0.014654;5.25;9.0;4.0;5.5;0.5;1.0;0.0;0.5;0.0;0.25;0.5;0.25;0.25;0.25;0.0;0.0;-0.25293;0.03418;0.974609;-0.56;-0.91;0.77;307.0;-0.300811;-0.088641
2.35;9.25;6.75;7.25;4.5;0.25;0.25;0.0;0.0;0.75;0.0;1.0;0.75;0.0;0.75;0.5;0.0;-0.231934;0.033203;0.98584;-0.98;0.49;0.49;365.0;-0.268902;-0.013572;5.25;9.0;4.0;5.75;0.5;1.0;0.0;0.5;0.25;0.25;0.5;0.25;0.25;0.25;0.0;0.25;-0.250488;0.032715;0.975098;-0.56;-0.84;0.77;315.0;-0.291255;-0.086875
2.36;9.25;6.75;7.25;4.5;0.25;0.25;0.0;0.0;0.25;0.0;1.0;0.5;0.0;0.75;0.25;0.0;-0.229004;0.030273;0.980469;-0.77;0.49;0.56;352.0;-0.289018;-0.016555;5.5;9.0;4.0;5.5;0.25;1.25;0.0;0.5;0.0;0.0;0.25;0.25;0.25;0.5;0.0;0.25;-0.252441;0.033691;0.966309;-0.56;-0.91;0.84;308.0;-0.303354;-0.090296
2.37;9.25;6.75;7.25;4.5;0.0;0.25;0.0;0.0;0.25;0.0;1.0;0.5;0.0;0.75;0.25;0.0;-0.233398;0.033691;0.989258;-0.91;0.63;0.56;349.0;-0.290427;-0.017226;5.5;8.75;4.0;6.0;0.75;1.25;0.0;0.5;0.0;0.0;0.5;0.0;0.25;0.25;0.0;0.0;-0.249512;0.032715;0.972656;-0.63;-0.84;0.7;314.0;-0.307054;-0.088636
2.38;9.25;6.75;7.25;4.5;0.0;0.25;0.0;0.0;0.25;0.25;1.0;0.5;0.0;0.75;0.25;0.0;-0.231934;0.029297;0.984375;-0.84;0.49;0.56;352.0;-0.286134;-0.01657;5.5;9.0;4.0;6.0;0.5;1.0;0.0;0.5;0.0;0.25;0.5;0.0;0.25;0.25;0.0;0.0;-0.249512;0.032227;0.970703;-0.63;-0.91;0.77;313.0;-0.306179;-0.087563
2.39;9.25;6.75;7.25;4.5;0.25;0.25;0.0;0.0;0.25;0.25;1.0;0.5;0.0;0.75;0.5;0.25;-0.229492;0.026367;0.983398;-0.77;0.49;0.56;359.0;-0.276579;-0.017668;5.25;9.0;4.0;5.5;0.25;1.0;0.0;0.5;0.0;0.0;0.5;0.25;0.25;0.25;0.0;0.0;-0.25;0.038086;0.974121;-0.63;-0.91;0.77;301.0;-0.307663;-0.091573
2.4;9.25;6.75;7.25;4.5;0.25;0.0;0.0;0.0;0.25;0.0;0.5;0.5;0.0;0.75;0.5;0.0;-0.233398;0.033203;0.98291;-0.77;0.42;0.56;346.0;-0.292937;-0.013251;5.25;8.75;4.0;6.0;0.25;1.0;0.0;0.5;0.0;0.0;0.25;0.0;0.25;0.25;0.0;0.25;-0.25;0.039062;0.96875;-0.7;-0.98;0.77;301.0;-0.313089;-0.092514
2.41;9.5;6.75;7.25;4.5;0.0;0.0;0.0;0.0;0.25;0.0;0.5;0.25;0.0;0.75;0.5;0.0;-0.22998;0.029297;0.980469;-0.63;0.42;0.56;343.0;-0.299539;-0.01052;5.25;8.5;4.0;5.5;0.25;1.0;0.0;0.5;0.0;0.25;0.5;0.0;0.5;0.5;0.0;0.25;-0.253418;0.034668;0.97168;-0.7;-0.98;0.77;302.0;-0.293106;-0.088827
2.42;9.5;6.75;7.25;4.5;0.0;0.25;0.0;0.0;0.25;0.25;0.5;0.25;0.0;0.5;0.5;0.25;-0.23877;0.034668;0.988281;-0.7;0.35;0.7;348.0;-0.295806;-0.014704;5.25;9.0;4.0;5.75;0.25;1.0;0.0;0.5;0.0;0.25;0.5;0.0;0.25;0.25;0.0;0.0;-0.249023;0.031738;0.973145;-0.63;-0.91;0.77;304.0;-0.307242;-0.089504
2.43;9.0;6.75;7.25;4.75;0.0;0.25;0.0;0.0;0.25;0.0;0.75;0.5;0.0;0.5;0.25;0.0;-0.233887;0.032227;0.98291;-0.7;0.63;0.63;344.0;-0.298517;-0.020571;5.25;9.0;3.75;6.0;0.5;1.25;0.0;0.5;0.0;0.0;0.5;0.25;0.25;0.25;0.0;0.0;-0.24707;0.035156;0.970703;-0.7;-0.84;0.77;310.0;-0.304436;-0.096187
2.44;9.0;6.75;7.25;4.75;0.0;0.25;0.0;0.0;0.5;0.0;0.5;0.5;0.0;0.5;0.5;0.0;-0.233887;0.030273;0.98877;-0.77;0.42;0.56;347.0;-0.291293;-0.017257;5.25;8.75;3.75;5.5;0.5;1.25;0.0;0.5;0.0;0.0;0.5;0.25;0.25;0.25;0.0;0.25;-0.249512;0.038574;0.96875;-0.7;-0.84;0.77;303.0;-0.300587;-0.094122
2.45;9.5;6.75;7.5;4.75;0.25;0.25;0.0;0.0;0.25;0.0;0.5;0.5;0.0;0.5;0.25;0.0;-0.22998;0.03125;0.986328;-0.63;0.42;0.7;353.0;-0.302695;-0.016072;5.5;8.5;4.0;5.5;0.25;1.25;0.0;0.5;0.0;0.0;0.5;0.25;0.25;0.25;0.25;0.0;-0.250488;0.036133;0.976074;-0.63;-0.91;0.77;305.0;-0.29851;-0.090162
2.46;9.25;6.75;7.5;4.75;0.0;0.25;0.0;0.0;0.25;0.0;0.5;0.5;0.0;0.5;0.0;0.0;-0.233398;0.029297;0.989258;-0.49;0.28;0.63;344.0;-0.309336;-0.017225;5.5;8.75;4.0;6.0;0.75;1.25;0.0;0.5;0.0;0.0;0.5;0.25;0.25;0.25;0.25;0.0;-0.246582;0.033691;0.976074;-0.49;-0.91;0.84;319.0;-0.295984;-0.090445
2.47;9.5;6.75;7.5;4.75;0.25;0.0;0.0;0.0;0.25;0.25;0.5;0.5;0.0;0.5;0.25;0.0;-0.232422;0.033203;0.979004;-0.49;0.07;0.77;352.0;-0.299584;-0.013259;5.5;9.0;4.0;5.5;0.5;1.25;0.0;0.5;0.0;0.25;0.75;0.25;0.5;0.25;0.25;0.0;-0.251465;0.033203;0.97168;-0.7;-0.84;0.7;321.0;-0.285873;-0.091529
2.48;9.5;7.0;7.5;5.0;0.0;0.0;0.0;0.0;0.25;0.25;0.75;0.5;0.0;0.5;0.25;0.0;-0.229492;0.033203;0.98291;-0.21;-0.14;0.77;358.0;-0.297569;-0.017556;5.25;9.0;4.0;5.5;0.5;1.25;0.0;0.5;0.0;0.0;0.5;0.25;0.5;0.25;0.25;0.0;-0.253418;0.036621;0.96875;-0.63;-0.91;0.84;313.0;-0.294279;-0.094533
2.49;9.5;7.0;7.75;4.75;0.0;0.0;0.0;0.0;0.25;0.0;0.5;0.5;0.0;0.5;0.25;0.0;-0.233887;0.029297;0.980957;-0.42;0.07;0.77;352.0;-0.305971;-0.014724;5.5;9.0;4.0;5.5;0.5;1.25;0.0;0.5;0.0;0.0;0.5;0.25;0.5;0.5;0.0;0.0;-0.251953;0.041504;0.975098;-0.63;-0.84;0.7;315.0;-0.296438;-0.090811
2.5;9.5;7.0;7.25;4.75;0.0;0.0;0.0;0.0;0.25;0.0;0.5;0.5;0.0;0.5;0.25;0.25;-0.23291;0.032715;0.98584;-0.42;0.14;0.7;347.0;-0.30384;-0.017824;5.5;8.75;4.0;5.5;0.5;1.25;0.0;0.5;0.0;0.0;0.5;0.5;0.5;0.5;0.0;0.25;-0.250488;0.034668;0.97168;-0.77;-0.84;0.77;317.0;-0.287805;-0.093115
2.51;9.25;7.0;7.25;4.5;0.0;0.0;0.0;0.0;0.5;0.0;0.75;0.5;0.0;0.5;0.25;0.0;-0.231445;0.03418;0.983398;-0.42;0.14;0.7;347.0;-0.295857;-0.013598;5.5;8.75;4.0;5.5;0.5;1.25;0.0;0.5;0.25;0.25;0.5;0.25;0.5;0.5;0.0;0.25;-0.250488;0.036133;0.966797;-0.7;-0.91;0.7;320.0;-0.281512;-0.085796
2.52;9.5;7.0;7.0;4.75;0.25;0.0;0.0;0.0;0.25;0.0;0.75;0.5;0.0;0.5;0.25;0.0;-0.23291;0.030273;0.984863;-0.28;0.07;0.7;349.0;-0.301119;-0.017627;5.5;8.75;4.0;5.5;0.5;1.25;0.0;0.5;0.25;0.25;0.5;0.25;0.5;0.25;0.0;0.25;-0.248535;0.030273;0.966309;-0.77;-0.91;0.7;318.0;-0.28658;-0.08772
2.53;9.75;7.0;7.25;4.75;0.0;0.0;0.0;0.0;0.25;0.0;0.75;0.5;0.0;0.75;0.25;0.0;-0.232422;0.034668;0.984863;-0.35;0.14;0.63;354.0;-0.298439;-0.015083;5.5;8.75;3.75;5.5;0.25;1.25;0.0;0.5;0.0;0.0;0.75;0.5;0.5;0.5;0.0;0.25;-0.248535;0.036133;0.972168;-0.7;-0.84;0.84;313.0;-0.284891;-0.096576
2.54;9.5;7.5;7.25;4.75;0.0;0.25;0.0;0.0;0.25;0.0;0.5;0.25;0.0;0.5;0.25;0.0;-0.226562;0.035156;0.980957;-0.28;0.14;0.7;351.0;-0.311191;-0.018584;5.5;8.75;4.0;5.5;0.25;1.0;0.0;0.5;0.0;0.0;0.75;0.25;0.25;0.25;0.0;0.0;-0.251465;0.03125;0.97168;-0.7;-0.91;0.77;305.0;-0.302638;-0.089323
2.55;9.75;7.5;7.5;5.25;0.0;0.25;0.0;0.0;0.25;0.0;0.5;0.25;0.0;0.5;0.25;0.0;-0.225586;0.034668;0.986328;-0.21;0.07;0.63;363.0;-0.311135;-0.020092;5.25;8.75;4.0;5.5;0.25;1.0;0.0;0.5;0.0;0.25;0.75;0.0;0.25;0.25;0.0;0.0;-0.249512;0.035156;0.974121;-0.63;-0.84;0.77;302.0;-0.301468;-0.087768
2.56;9.5;7.25;7.5;5.5;0.0;0.25;0.0;0.0;0.25;0.25;0.25;0.25;0.0;0.5;0.25;0.0;-0.229004;0.035156;0.97998;-0.42;0.14;0.63;361.0;-0.30939;-0.020364;5.5;9.0;3.75;5.75;0.25;1.0;0.0;0.5;0.0;0.25;0.75;0.25;0.5;0.25;0.25;0.0;-0.250488;0.038574;0.970215;-0.77;-0.98;0.77;315.0;-0.288878;-0.094293
2.57;9.75;7.5;7.25;5.25;0.25;0.25;0.0;0.0;0.25;0.25;0.25;0.25;0.0;0.25;0.25;0.0;-0.227051;0.030273;0.987305;-0.42;0.14;0.63;361.0;-0.314546;-0.020191;5.5;8.75;4.0;5.5;0.25;1.0;0.0;0.5;0.0;0.25;0.75;0.25;0.25;0.25;0.0;0.25;-0.249023;0.037598;0.970703;-0.91;-1.05;0.77;309.0;-0.294459;-0.088987
2.58;9.75;7.5;7.25;5.25;0.0;0.25;0.0;0.0;0.0;0.0;0.5;0.25;0.0;0.25;0.25;0.0;-0.230469;0.030273;0.97998;-0.42;0.21;0.56;354.0;-0.322006;-0.025305;5.5;8.75;4.0;5.5;0.25;1.0;0.0;0.5;0.0;0.0;0.25;0.25;0.25;0.5;0.0;0.25;-0.250977;0.030762;0.966309;-0.77;-0.91;0.77;303.0;-0.303896;-0.087869
2.59;9.75;7.25;7.5;5.5;0.0;0.25;0.0;0.0;0.0;0.25;0.5;0.25;0.0;0.25;0.25;0.0;-0.234863;0.030273;0.990723;-0.35;0.21;0.56;360.0;-0.316144;-0.024308;5.5;8.75;4.0;5.5;0.25;1.0;0.0;0.5;0.25;0.25;0.25;0.5;0.25;0.5;0.0;0.0;-0.247559;0.032227;0.975098;-0.84;-0.98;0.77;310.0;-0.290864;-0.083158
2.6;9.75;7.5;7.5;5.25;0.0;0.25;0.0;0.0;0.25;0.25;0.5;0.5;0.0;0.5;0.25;0.0;-0.228516;0.028809;0.991211;-0.14;-0.07;0.7;369.0;-0.302816;-0.0216;5.25;8.5;4.0;5.5;0.25;1.0;0.0;0.5;0.0;0.25;0.5;0.5;0.25;0.75;0.0;0.0;-0.247559;0.035156;0.978516;-0.91;-0.98;0.77;307.0;-0.285031;-0.086747
2.61;10.0;7.5;7.5;5.25;0.0;0.25;0.0;0.0;0.25;0.0;0.25;0.5;0.0;0.25;0.25;0.0;-0.228516;0.04248;0.98584;-0.0;-0.0;0.63;364.0;-0.316573;-0.021784;5.25;8.75;4.0;5.5;0.25;1.0;0.0;0.5;0.0;0.0;0.25;0.25;0.25;0.75;0.0;0.0;-0.247559;0.031738;0.972656;-0.77;-0.98;0.77;301.0;-0.300702;-0.086558
2.62;10.0;7.75;7.5;5.25;0.25;0.25;0.0;0.0;0.25;0.0;0.25;0.25;0.0;0.25;0.5;0.0;-0.234375;0.03125;0.981445;-0.35;0.07;0.7;369.0;-0.314184;-0.020423;5.25;9.0;4.0;5.5;0.25;1.0;0.0;0.5;0.0;0.25;0.25;0.25;0.25;0.75;0.0;0.25;-0.246094;0.035156;0.967285;-0.7;-0.98;0.77;307.0;-0.293464;-0.086913
2.63;10.0;7.5;7.5;5.5;0.25;0.25;0.0;0.0;0.25;0.0;0.25;0.25;0.0;0.25;0.25;0.0;-0.228027;0.038574;0.983398;-0.49;0.07;0.63;367.0;-0.318905;-0.02061;5.5;9.0;4.0;5.5;0.25;1.25;0.0;0.5;0.0;0.25;0.5;0.25;0.5;0.5;0.0;0.25;-0.242676;0.035156;0.967285;-0.77;-0.98;0.7;316.0;-0.290157;-0.091907
2.64;10.0;7.5;7.5;5.5;0.0;0.25;0.0;0.0;0.0;0.0;0.5;0.5;0.0;0.25;0.25;0.0;-0.222168;0.036621;0.98291;-0.63;0.14;0.7;366.0;-0.317696;-0.027079;5.25;8.75;4.0;5.5;0.25;1.0;0.0;0.5;0.0;0.25;0.5;0.25;0.5;0.5;0.25;0.25;-0.250977;0.038086;0.97168;-0.84;-0.91;0.7;311.0;-0.282983;-0.091311
2.65;10.25;7.75;7.5;5.5;0.0;0.5;0.0;0.0;0.25;0.0;0.5;0.5;0.0;0.25;0.25;0.0;-0.234375;0.033203;0.989746;-0.63;0.14;0.56;378.0;-0.312259;-0.02607;5.5;8.5;4.0;5.5;0.25;1.0;0.0;0.5;0.0;0.25;0.75;0.25;0.5;0.5;0.0;0.0;-0.248535;0.035156;0.966797;-0.77;-0.98;0.77;310.0;-0.287768;-0.08812
2.66;10.0;7.75;7.5;5.5;0.0;0.25;0.0;0.0;0.25;0.25;0.5;0.5;0.0;0.5;0.25;0.0;-0.228027;0.031738;0.989258;-0.56;0.21;0.56;377.0;-0.30421;-0.023203;5.5;8.5;3.75;5.5;0.25;1.25;0.0;0.5;0.0;0.0;0.75;0.25;0.5;0.25;0.0;0.0;-0.252441;0.029785;0.970703;-0.77;-0.91;0.77;304.0;-0.296944;-0.095153
2.67;9.75;7.5;7.75;5.5;0.25;0.25;0.0;0.0;0.25;0.0;0.5;0.5;0.0;0.5;0.25;0.0;-0.225586;0.032227;0.983887;-0.63;0.21;0.63;375.0;-0.305087;-0.022308;5.25;8.75;4.0;5.5;0.25;1.0;0.0;0.5;0.0;0.0;0.75;0.25;0.5;0.5;0.25;0.25;-0.253418;0.032715;0.97168;-0.84;-0.84;0.7;311.0;-0.283087;-0.092957
2.68;9.75;7.75;7.75;5.5;0.0;0.25;0.0;0.0;0.25;0.0;0.25;0.5;0.0;0.5;0.5;0.0;-0.227539;0.03418;0.984863;-0.98;0.28;0.56;374.0;-0.305879;-0.023689;5.25;9.0;4.0;5.5;0.25;1.0;0.0;0.5;0.0;0.0;0.75;0.5;0.5;0.5;0.0;0.0;-0.247559;0.037109;0.966309;-0.84;-0.91;0.77;312.0;-0.289024;-0.094472
2.69;10.0;7.75;7.5;5.5;0.25;0.25;0.0;0.0;0.25;0.25;0.25;0.5;0.0;0.5;0.25;0.0;-0.227539;0.023926;0.986816;-1.05;0.42;0.56;377.0;-0.306806;-0.021828;5.25;9.0;4.0;5.5;0.25;1.0;0.0;0.5;0.0;0.25;0.5;0.25;0.5;0.75;0.0;0.0;-0.25;0.033203;0.975098;-0.91;-0.91;0.84;311.0;-0.288303;-0.088937
2.7;9.75;7.75;7.75;5.5;0.0;0.25;0.0;0.0;0.0;0.0;0.25;0.25;0.0;0.5;0.25;0.0;-0.228516;0.038574;0.984863;-1.19;0.35;0.42;365.0;-0.321054;-0.024002;5.25;9.0;4.0;5.5;0.5;1.0;0.0;0.5;0.0;0.25;0.5;0.25;0.5;0.75;0.0;0.0;-0.251953;0.037109;0.969238;-0.91;-0.84;0.77;314.0;-0.286746;-0.087502
2.71;10.0;7.75;7.75;5.5;0.0;0.0;0.0;0.0;0.25;0.0;0.25;0.25;0.0;0.5;0.25;0.0;-0.223145;0.038086;0.988281;-1.26;0.56;0.49;369.0;-0.317445;-0.018078;5.25;8.75;4.0;5.5;0.5;1.0;0.0;0.5;0.0;0.25;0.75;0.25;0.5;0.75;0.0;0.0;-0.252441;0.035645;0.972168;-0.98;-0.91;0.7;315.0;-0.281043;-0.08713
2.72;10.0;7.75;7.75;5.0;0.25;0.0;0.0;0.0;0.25;0.0;0.0;0.25;0.0;0.5;0.25;0.0;-0.227539;0.027832;0.986328;-1.19;0.56;0.42;363.0;-0.320634;-0.013231;5.25;8.75;4.0;5.75;0.25;1.0;0.0;0.5;0.0;0.0;0.5;0.25;0.5;0.75;0.0;0.0;-0.25;0.036133;0.97168;-0.84;-0.91;0.7;309.0;-0.292114;-0.091033
2.73;10.0;7.75;7.75;5.5;0.0;0.25;0.0;0.0;0.25;0.0;0.25;0.5;0.0;0.25;0.25;0.0;-0.232422;0.030762;0.983887;-1.12;0.42;0.42;372.0;-0.316598;-0.023488;5.5;9.0;3.75;5.25;0.25;1.0;0.0;0.5;0.0;0.25;0.5;0.0;0.5;0.75;0.25;0.0;-0.251465;0.033691;0.976562;-1.05;-0.98;0.84;308.0;-0.287772;-0.085566
2.74;9.75;7.75;8.0;5.75;0.25;0.25;0.0;0.0;0.25;0.0;0.25;0.5;0.0;0.25;0.25;0.0;-0.23291;0.027344;0.988281;-1.12;0.49;0.42;378.0;-0.313789;-0.024492;5.5;8.75;3.75;5.5;0.5;1.25;0.0;0.5;0.0;0.25;0.5;0.25;0.25;0.5;0.25;0.0;-0.250977;0.038086;0.96875;-1.12;-0.98;0.77;313.0;-0.287943;-0.087682
2.75;10.0;7.75;8.0;5.5;0.25;0.25;0.0;0.0;0.25;0.0;0.25;0.5;0.0;0.5;0.25;0.0;-0.230957;0.033691;0.98584;-1.26;0.49;0.35;380.0;-0.310231;-0.020687;5.5;8.5;4.0;5.5;0.5;1.0;0.0;0.5;0.0;0.25;0.5;0.25;0.25;0.5;0.25;0.0;-0.250977;0.032715;0.976562;-1.12;-0.84;0.7;310.0;-0.287978;-0.083528
2.76;10.0;8.0;8.0;5.5;0.25;0.25;0.0;0.0;0.25;0.0;0.25;0.25;0.0;0.25;0.25;0.0;-0.22998;0.030273;0.989746;-1.47;0.42;0.42;378.0;-0.319346;-0.020778;5.5;8.75;4.0;5.25;0.5;1.0;0.0;0.5;0.0;0.25;0.5;0.25;0.25;0.75;0.25;0.0;-0.250488;0.036133;0.969238;-1.12;-0.91;0.84;312.0;-0.283809;-0.080893
2.77;10.25;8.25;7.5;5.5;0.25;0.25;0.0;0.0;0.25;0.0;0.25;0.25;0.0;0.25;0.25;0.25;-0.228027;0.02832;0.985352;-1.54;0.49;0.35;379.0;-0.318829;-0.023696;5.5;8.75;4.0;5.5;0.5;1.0;0.0;0.5;0.0;0.25;0.5;0.25;0.25;0.5;0.25;0.0;-0.249023;0.030273;0.975098;-1.26;-0.98;0.7;313.0;-0.289015;-0.084194
2.78;10.5;7.5;7.5;5.25;0.25;0.0;0.0;0.0;0.25;0.0;0.25;0.25;0.0;0.5;0.0;0.25;-0.231445;0.032715;0.988281;-1.68;0.63;0.35;367.0;-0.320118;-0.014352;5.5;8.75;4.0;5.75;0.5;1.0;0.0;0.5;0.0;0.0;0.25;0.25;0.25;0.5;0.25;0.0;-0.244141;0.037598;0.97168;-1.19;-0.91;0.84;310.0;-0.298606;-0.08662
2.79;10.25;7.25;7.75;5.0;0.25;0.25;0.0;0.0;0.25;0.0;0.25;0.25;0.0;0.5;0.0;0.0;-0.228516;0.032227;0.98584;-1.54;0.56;0.42;363.0;-0.32001;-0.012549;5.5;8.75;4.0;5.75;0.5;1.0;0.0;0.5;0.0;0.0;0.5;0.25;0.5;0.25;0.0;0.0;-0.250977;0.034668;0.974121;-1.26;-0.91;0.7;310.0;-0.302068;-0.091758
2.8;10.0;7.25;8.0;5.5;0.25;0.25;0.0;0.0;0.25;0.0;0.5;0.25;0.0;0.25;0.25;0.0;-0.22998;0.02832;0.980957;-1.54;0.56;0.35;373.0;-0.313193;-0.018561;5.25;8.75;4.0;5.75;0.5;1.0;0.0;0.5;0.0;0.0;0.5;0.25;0.25;0.25;0.0;0.0;-0.247559;0.035156;0.970215;-1.19;-0.91;0.63;305.0;-0.304769;-0.090763
2.81;10.25;7.25;7.75;5.25;0.25;0.25;0.0;0.0;0.25;0.0;0.5;0.25;0.0;0.25;0.25;0.0;-0.230957;0.029785;0.976562;-1.47;0.56;0.42;370.0;-0.314485;-0.016803;5.5;8.5;4.0;5.5;0.5;1.0;0.0;0.5;0.0;0.25;0.5;0.0;0.25;0.25;0.0;0.0;-0.253418;0.033691;0.975098;-1.12;-0.91;0.63;302.0;-0.304704;-0.083525
2.82;10.0;7.25;8.0;5.25;0.25;0.25;0.0;0.0;0.25;0.0;0.5;0.25;0.0;0.5;0.25;0.0;-0.229492;0.02832;0.98877;-1.54;0.63;0.35;372.0;-0.308876;-0.015677;5.25;8.75;4.0;5.5;0.25;1.0;0.0;0.5;0.0;0.25;0.75;0.0;0.25;0.25;0.0;0.25;-0.25293;0.033203;0.972168;-1.05;-0.84;0.56;303.0;-0.298232;-0.08887
2.83;9.75;7.25;7.75;5.25;0.25;0.0;0.0;0.0;0.5;0.0;0.25;0.25;0.0;0.5;0.25;0.0;-0.230469;0.029785;0.984863;-1.75;0.56;0.35;364.0;-0.308434;-0.011788;5.25;8.75;4.0;5.5;0.25;1.0;0.0;0.5;0.0;0.0;0.5;0.0;0.25;0.25;0.25;0.25;-0.246094;0.033203;0.971191;-1.12;-0.91;0.77;300.0;-0.301585;-0.089995
2.84;9.75;7.25;8.0;5.25;0.25;0.25;0.0;0.0;0.5;0.0;0.25;0.25;0.0;0.5;0.25;0.0;-0.229004;0.031738;0.983398;-1.68;0.7;0.28;370.0;-0.306825;-0.013053;5.5;9.0;4.0;5.5;0.25;1.0;0.0;0.5;0.0;0.25;0.5;0.25;0.25;0.25;0.5;0.0;-0.249023;0.031738;0.976074;-1.19;-0.91;0.63;313.0;-0.290437;-0.088176
2.85;10.0;7.5;8.0;5.0;0.25;0.25;0.0;0.0;0.5;0.0;0.5;0.25;0.0;0.75;0.0;0.25;-0.23291;0.032227;0.983398;-1.82;0.7;0.35;376.0;-0.302769;-0.011736;5.25;8.75;4.0;5.5;0.25;1.0;0.0;0.5;0.0;0.25;0.5;0.25;0.25;0.25;0.25;0.0;-0.248535;0.029785;0.974609;-1.12;-0.84;0.7;305.0;-0.294913;-0.089417
2.86;10.0;7.25;8.0;4.75;0.25;0.25;0.0;0.0;0.5;0.0;0.25;0.5;0.0;0.75;0.0;0.0;-0.227051;0.023438;0.987305;-1.54;0.56;0.42;369.0;-0.304873;-0.009153;5.5;8.75;4.0;5.5;0.5;1.0;0.0;0.5;0.0;0.0;0.5;0.0;0.25;0.5;0.0;0.0;-0.246582;0.029297;0.96875;-1.26;-0.91;0.63;304.0;-0.305252;-0.083594
2.87;9.75;6.75;8.0;4.75;0.25;0.25;0.0;0.0;0.5;0.0;0.25;0.25;0.0;0.75;0.0;0.0;-0.229004;0.020508;0.981934;-1.75;0.77;0.35;359.0;-0.306656;-0.005575;5.5;8.75;4.0;5.5;0.5;1.0;0.0;0.5;0.0;0.0;0.5;0.25;0.25;0.5;0.0;0.0;-0.248535;0.030762;0.967773;-1.12;-0.84;0.7;307.0;-0.300421;-0.085583
2.88;9.75;7.0;8.0;4.75;0.25;0.0;0.0;0.0;0.5;0.0;0.25;0.25;0.0;0.75;0.0;0.0;-0.229492;0.024902;0.985352;-1.89;0.91;0.28;358.0;-0.308713;-0.004485;5.25;8.75;4.0;5.5;0.25;1.0;0.0;0.5;0.0;0.0;0.5;0.25;0.25;0.75;0.0;0.0;-0.247559;0.025391;0.966309;-1.19;-0.91;0.63;303.0;-0.295739;-0.086835
2.89;10.0;7.0;8.0;4.75;0.25;0.0;0.0;0.0;0.75;0.0;0.5;0.0;0.0;0.75;0.0;0.25;-0.228027;0.029297;0.987793;-1.89;0.84;0.28;366.0;-0.301117;-0.000712;5.5;8.5;4.0;5.5;0.25;1.0;0.0;0.5;0.0;0.25;0.5;0.25;0.25;0.75;0.25;0.25;-0.247559;0.036621;0.977051;-1.19;-0.91;0.63;311.0;-0.281228;-0.084071
2.9;9.75;7.0;8.0;4.75;0.25;0.0;0.0;0.0;0.75;0.0;0.5;0.25;0.0;1.0;0.25;0.0;-0.229492;0.027344;0.98584;-1.82;0.77;0.35;370.0;-0.289037;-0.002109;5.5;8.75;4.0;5.5;0.5;1.0;0.0;0.5;0.25;0.25;0.5;0.25;0.25;0.75;0.25;0.25;-0.250488;0.03418;0.96582;-1.12;-0.84;0.7;320.0;-0.274825;-0.079349
2.91;10.25;7.0;8.0;4.75;0.25;0.0;0.0;0.0;0.75;0.25;0.5;0.25;0.0;1.0;0.25;0.0;-0.230469;0.02832;0.983887;-1.96;0.77;0.42;378.0;-0.28677;4.7e-05;5.25;8.5;4.0;5.5;0.5;1.0;0.0;0.5;0.25;0.25;0.75;0.25;0.25;0.25;0.25;0.0;-0.251953;0.030762;0.96582;-1.12;-0.77;0.7;311.0;-0.28118;-0.08341
2.92;10.0;7.0;8.0;4.5;0.25;0.0;0.0;0.0;0.75;0.0;0.25;0.25;0.0;0.75;0.25;0.0;-0.234375;0.029297;0.988281;-1.89;0.7;0.21;365.0;-0.298444;0.000333;5.25;8.75;4.0;5.5;0.5;1.25;0.0;0.5;0.0;0.0;0.75;0.25;0.25;0.25;0.5;0.0;-0.249512;0.038086;0.96582;-1.19;-0.77;0.63;313.0;-0.285611;-0.091281
2.93;10.0;7.0;8.0;4.75;0.25;0.0;0.0;0.0;0.75;0.0;0.25;0.25;0.0;0.75;0.25;0.0;-0.226562;0.024902;0.987793;-1.89;0.7;0.21;368.0;-0.298356;-0.001504;5.5;8.25;4.0;5.5;0.5;1.0;0.0;0.5;0.0;0.25;0.75;0.25;0.25;0.5;0.25;0.0;-0.251953;0.035156;0.969238;-1.05;-0.98;0.7;310.0;-0.282199;-0.083155
2.94;10.0;7.0;8.0;4.5;0.25;0.0;0.0;0.0;0.75;0.0;0.25;0.25;0.0;1.0;0.25;0.0;-0.228516;0.025391;0.989258;-1.75;0.56;0.35;367.0;-0.293946;0.001455;5.5;8.25;4.0;5.5;0.5;1.0;0.0;0.5;0.0;0.25;0.75;0.25;0.25;0.25;0.0;0.0;-0.246582;0.030762;0.967285;-1.05;-0.84;0.7;305.0;-0.293958;-0.085147
2.95;10.0;7.0;8.0;4.5;0.25;0.0;0.0;0.0;0.75;0.0;0.25;0.25;0.0;0.75;0.25;0.25;-0.233398;0.026855;0.979492;-1.82;0.7;0.35;366.0;-0.295777;-0.000938;5.5;8.25;4.0;5.5;0.5;0.75;0.0;0.5;0.0;0.25;0.75;0.25;0.25;0.25;0.0;0.0;-0.254883;0.035156;0.972656;-1.05;-0.91;0.77;302.0;-0.295352;-0.0833
2.96;10.25;6.75;8.0;4.5;0.25;0.0;0.0;0.0;1.25;0.0;0.5;0.25;0.0;0.75;0.25;0.0;-0.225098;0.02832;0.983887;-1.68;0.7;0.35;375.0;-0.283853;0.006613;5.5;8.5;4.0;5.5;0.5;1.25;0.0;0.5;0.0;0.0;0.5;0.25;0.25;0.5;0.0;0.0;-0.248047;0.035156;0.976562;-0.84;-0.7;0.63;307.0;-0.298034;-0.086735
2.97;10.25;6.5;8.0;4.25;0.0;0.0;0.0;0.0;1.0;0.25;0.25;0.25;0.0;1.0;0.25;0.0;-0.225586;0.027832;0.981934;-1.75;0.63;0.35;365.0;-0.284985;0.009128;5.5;8.5;4.0;5.5;0.5;1.25;0.0;0.5;0.0;0.0;0.75;0.25;0.25;0.5;0.0;0.0;-0.248047;0.032227;0.976562;-0.91;-0.77;0.7;310.0;-0.293205;-0.087004
2.98;10.25;6.75;8.0;4.5;0.25;0.0;0.0;0.0;1.0;0.0;0.25;0.5;0.0;0.75;0.25;0.0;-0.225098;0.03418;0.990234;-1.68;0.77;0.35;371.0;-0.289156;0.00263;5.5;8.5;4.0;5.5;0.5;1.25;0.0;0.5;0.0;0.25;0.75;0.25;0.25;0.75;0.0;0.0;-0.253418;0.033691;0.96875;-0.98;-0.91;0.63;315.0;-0.283204;-0.083697
2.99;10.25;6.75;8.25;4.5;0.25;0.0;0.0;0.0;1.25;0.0;0.25;0.25;0.0;0.75;0.25;0.0;-0.230957;0.02832;0.984375;-1.54;0.63;0.35;375.0;-0.287591;0.008219;5.5;8.25;4.25;5.5;0.5;1.0;0.0;0.5;0.0;0.25;0.75;0.25;0.25;0.75;0.0;0.0;-0.250488;0.035156;0.971191;-0.91;-0.77;0.63;313.0;-0.283201;-0.07955
3.0;10.0;6.75;8.25;4.5;0.25;0.0;0.0;0.0;1.5;0.0;0.25;0.25;0.0;1.0;0.25;0.0;-0.228516;0.024414;0.991699;-1.47;0.56;0.35;378.0;-0.277281;0.011023;5.5;8.25;4.0;5.25;0.25;1.0;0.0;0.25;0.0;0.25;0.75;0.25;0.25;0.75;0.0;0.0;-0.249023;0.034668;0.971191;-0.91;-0.91;0.7;300.0;-0.288679;-0.076887
3.01;10.5;7.25;8.25;4.5;0.25;0.0;0.0;0.0;1.0;0.0;0.25;0.25;0.0;1.0;0.25;0.0;-0.226562;0.029297;0.98584;-1.33;0.56;0.42;382.0;-0.290993;0.0052;5.5;8.25;4.0;5.5;0.5;0.75;0.0;0.25;0.0;0.25;0.75;0.25;0.25;0.5;0.0;0.0;-0.251953;0.034668;0.967285;-0.84;-0.91;0.7;300.0;-0.293805;-0.07701
3.02;10.0;7.0;8.25;4.25;0.25;0.0;0.0;0.0;1.25;0.0;0.25;0.25;0.0;0.75;0.25;0.0;-0.227539;0.022461;0.98877;-1.4;0.7;0.42;372.0;-0.287585;0.008151;5.5;8.25;4.0;5.5;0.5;0.75;0.0;0.5;0.0;0.25;0.75;0.25;0.25;0.5;0.0;0.25;-0.25;0.027344;0.969238;-0.84;-0.77;0.63;306.0;-0.28681;-0.082435
3.03;10.0;6.5;8.25;4.25;0.25;0.25;0.0;0.0;1.25;0.0;0.25;0.25;0.0;1.0;0.5;0.0;-0.229492;0.023926;0.982422;-1.19;0.63;0.42;375.0;-0.275124;0.008624;5.5;8.5;4.0;5.25;0.5;0.75;0.0;0.5;0.0;0.25;0.5;0.5;0.25;0.75;0.0;0.0;-0.25293;0.029297;0.973633;-0.7;-0.84;0.7;307.0;-0.285823;-0.080335
3.04;10.0;6.5;8.25;4.25;0.25;0.0;0.0;0.0;2.25;0.0;0.25;0.25;0.0;1.0;0.5;0.0;-0.231934;0.022949;0.986816;-1.33;0.7;0.35;386.0;-0.256382;0.020634;5.5;8.25;4.0;5.5;0.5;1.0;0.0;0.5;0.0;0.25;0.5;0.25;0.5;0.25;0.0;0.0;-0.249512;0.035156;0.969238;-0.7;-0.91;0.77;305.0;-0.295257;-0.087767
3.05;10.25;6.75;8.5;4.5;0.25;0.0;0.25;0.0;2.0;0.0;0.5;0.25;0.0;1.0;0.5;0.0;-0.231445;0.025391;0.98877;-1.12;0.56;0.42;401.0;-0.256404;0.017813;5.5;8.25;4.0;5.25;0.5;1.0;0.0;0.5;0.25;0.25;0.75;0.25;0.5;0.25;0.0;0.0;-0.249023;0.035156;0.968262;-0.7;-0.91;0.63;308.0;-0.284095;-0.082493
3.06;10.0;6.75;8.5;4.25;0.25;0.0;0.0;0.0;1.75;0.0;0.5;0.25;0.0;1.0;0.25;0.0;-0.232422;0.022949;0.98877;-1.05;0.63;0.49;385.0;-0.268403;0.014987;5.25;8.25;4.25;5.5;0.5;1.0;0.0;0.5;0.25;0.25;0.75;0.25;0.5;0.75;0.0;0.0;-0.250977;0.028809;0.975098;-0.77;-0.98;0.77;316.0;-0.272649;-0.080078
3.07;10.0;6.75;8.25;4.25;0.5;0.0;0.0;0.0;1.5;0.0;0.5;0.0;0.0;1.25;0.5;0.0;-0.225098;0.028809;0.982422;-0.98;0.42;0.49;383.0;-0.266614;0.014937;5.5;8.25;4.0;5.5;0.5;1.0;0.0;0.5;0.0;0.25;0.5;0.25;0.5;0.75;0.0;0.25;-0.247559;0.031738;0.969238;-0.84;-0.91;0.77;311.0;-0.281563;-0.084879
3.08;10.0;6.75;8.25;4.25;0.25;0.0;0.25;0.0;1.5;0.0;0.5;0.25;0.0;1.0;0.5;0.0;-0.228516;0.025391;0.990723;-0.91;0.56;0.56;385.0;-0.264538;0.013701;5.5;8.25;4.0;5.5;0.5;1.25;0.0;0.5;0.0;0.25;0.75;0.25;0.5;0.5;0.0;0.0;-0.25;0.035156;0.975098;-0.63;-0.91;0.84;313.0;-0.283884;-0.087815
3.09;10.0;6.75;8.25;4.25;0.25;0.0;0.0;0.0;1.25;0.25;0.5;0.25;0.0;1.0;0.5;0.0;-0.227051;0.026367;0.986816;-0.91;0.63;0.49;380.0;-0.269399;0.009145;5.5;8.0;4.25;5.5;0.5;1.25;0.0;0.5;0.0;0.25;0.75;0.5;0.5;0.75;0.0;0.0;-0.250488;0.035156;0.970703;-0.7;-0.91;0.77;319.0;-0.273126;-0.085445
3.1;10.0;6.75;8.25;4.25;0.25;0.0;0.0;0.0;1.75;0.0;0.5;0.25;0.0;1.25;0.25;0.0;-0.225586;0.028809;0.989258;-0.7;0.49;0.49;384.0;-0.264308;0.015381;5.5;8.25;4.25;5.5;0.5;1.25;0.0;0.5;0.0;0.25;0.75;0.5;0.5;0.5;0.0;0.0;-0.249512;0.033203;0.970703;-0.56;-0.91;0.7;319.0;-0.279252;-0.087998
3.11;10.0;6.75;8.5;4.25;0.25;0.0;0.0;0.0;1.75;0.0;0.5;0.25;0.0;0.75;0.25;0.0;-0.228516;0.024414;0.986816;-0.77;0.35;0.49;382.0;-0.272538;0.013999;5.5;8.25;4.0;5.5;0.5;1.0;0.0;0.5;0.0;0.25;0.75;0.5;0.5;0.5;0.25;0.0;-0.248535;0.033203;0.973633;-0.63;-0.84;0.77;316.0;-0.274347;-0.087916
3.12;10.25;6.75;8.5;4.25;0.5;0.0;0.0;0.0;1.75;0.0;0.5;0.25;0.0;0.75;0.25;0.0;-0.229492;0.022949;0.985352;-0.56;0.42;0.56;388.0;-0.272353;0.015057;5.5;8.0;4.0;5.5;0.5;1.25;0.0;0.5;0.25;0.25;0.75;0.5;0.25;0.5;0.0;0.0;-0.25293;0.027832;0.97168;-0.7;-0.91;0.84;315.0;-0.275552;-0.082174
3.13;10.25;6.75;8.5;4.25;0.25;0.0;0.0;0.0;1.5;0.0;0.5;0.25;0.0;1.0;0.25;0.0;-0.225586;0.028809;0.981445;-0.63;0.35;0.49;384.0;-0.274287;0.013263;5.5;8.0;4.0;5.25;0.5;1.0;0.0;0.5;0.25;0.25;0.75;0.75;0.25;0.5;0.0;0.0;-0.250488;0.034668;0.974121;-0.84;-0.98;0.77;311.0;-0.27213;-0.080953
3.14;10.0;6.75;8.5;4.25;0.25;0.0;0.0;0.0;1.5;0.0;0.5;0.25;0.0;1.0;0.5;0.0;-0.231445;0.021484;0.980469;-0.56;0.42;0.63;384.0;-0.268244;0.011846;5.5;8.25;4.0;5.5;0.5;1.0;0.0;0.5;0.0;0.0;0.75;0.5;0.5;0.75;0.0;0.25;-0.250488;0.032227;0.97168;-0.7;-0.91;0.77;314.0;-0.277159;-0.088443
3.15;10.0;6.75;8.5;4.25;0.25;0.0;0.0;0.0;1.5;0.25;0.5;0.25;0.0;1.0;0.5;0.0;-0.226562;0.019043;0.984863;-0.63;0.35;0.56;387.0;-0.264506;0.012229;5.25;8.25;4.0;5.5;0.25;0.75;0.0;0.5;0.25;0.0;0.75;0.5;0.5;0.75;0.0;0.0;-0.254395;0.032715;0.977051;-0.7;-0.98;0.84;307.0;-0.275553;-0.084628
3.16;10.0;6.75;8.5;4.5;0.25;0.0;0.0;0.0;1.25;0.25;0.5;0.25;0.0;1.0;0.5;0.0;-0.232422;0.029297;0.983398;-0.63;0.42;0.56;386.0;-0.269509;0.00796;5.25;8.25;4.0;5.25;0.25;0.75;0.0;0.5;0.25;0.25;0.5;0.5;0.25;0.75;0.0;0.0;-0.251465;0.031738;0.97168;-0.77;-0.98;0.84;302.0;-0.278798;-0.078597
3.17;10.5;6.75;8.5;4.5;0.25;0.0;0.0;0.0;1.5;0.0;0.25;0.25;0.0;1.0;0.25;0.0;-0.228027;0.018555;0.982422;-0.56;0.35;0.56;387.0;-0.279032;0.013072;5.5;8.25;4.0;5.25;0.5;1.0;0.0;0.5;0.25;0.25;0.5;0.5;0.25;0.75;0.0;0.25;-0.249023;0.03418;0.975098;-0.7;-1.05;0.77;312.0;-0.27421;-0.078519
3.18;10.0;6.75;8.5;4.25;0.25;0.0;0.0;0.0;1.75;0.0;0.25;0.25;0.0;1.25;0.25;0.0;-0.228516;0.026367;0.97998;-0.7;0.42;0.56;384.0;-0.267968;0.016945;5.5;8.25;4.0;5.25;0.5;1.0;0.0;0.5;0.25;0.25;0.75;0.5;0.25;0.75;0.0;0.25;-0.255371;0.034668;0.970215;-0.77;-0.91;0.77;315.0;-0.269668;-0.078859
3.19;10.0;6.75;8.5;4.25;0.25;0.0;0.0;0.0;0.75;0.0;0.25;0.25;0.0;1.25;0.25;0.0;-0.231934;0.022461;0.987305;-0.56;0.49;0.63;370.0;-0.288255;0.006988;5.25;8.25;4.0;5.25;0.5;1.0;0.0;0.5;0.0;0.0;0.75;0.25;0.25;0.5;0.0;0.0;-0.25;0.033691;0.974609;-0.7;-0.84;0.77;299.0;-0.292581;-0.084958
3.2;10.25;7.0;8.5;4.25;0.25;0.0;0.0;0.0;1.5;0.0;0.25;0.25;0.0;1.0;0.5;0.0;-0.227051;0.027832;0.988281;-0.77;0.42;0.49;386.0;-0.27386;0.012341;5.5;8.25;4.0;5.25;0.5;0.75;0.0;0.5;0.0;0.25;0.75;0.25;0.5;0.5;0.0;0.0;-0.251465;0.038574;0.968262;-0.77;-0.84;0.77;304.0;-0.286425;-0.082842
3.21;10.25;7.0;8.5;4.25;0.25;0.25;0.25;0.0;1.75;0.25;0.5;0.0;0.0;1.0;0.25;0.0;-0.231445;0.02832;0.980957;-0.91;0.42;0.49;397.0;-0.265642;0.017319;5.25;8.25;4.0;5.5;0.5;1.0;0.0;0.5;0.25;0.25;0.75;0.25;0.25;0.5;0.5;0.0;-0.250977;0.035645;0.970215;-0.77;-0.84;0.77;314.0;-0.268681;-0.080805
3.22;10.5;7.0;8.5;4.25;0.5;0.0;0.0;0.0;2.0;0.25;0.5;0.0;0.0;1.25;0.25;0.0;-0.229492;0.026367;0.992676;-0.91;0.56;0.49;402.0;-0.261382;0.021348;5.25;8.25;4.0;5.5;0.5;0.75;0.0;0.5;0.25;0.0;0.75;0.5;0.25;0.75;0.5;0.0;-0.249023;0.040527;0.970215;-0.84;-0.84;0.7;314.0;-0.264965;-0.080355
3.23;10.5;6.75;8.25;4.25;0.5;0.0;0.0;0.0;1.75;0.0;0.25;0.25;0.0;1.0;0.5;0.25;-0.229492;0.029297;0.987305;-0.98;0.56;0.49;392.0;-0.265562;0.015123;5.5;8.25;4.0;5.5;0.5;1.0;0.0;0.5;0.25;0.25;0.75;0.5;0.5;0.75;0.25;0.0;-0.246094;0.036133;0.972168;-0.84;-0.77;0.7;322.0;-0.263488;-0.081972
3.24;10.5;6.75;8.5;4.25;0.5;0.0;0.0;0.0;1.75;0.0;0.25;0.25;0.0;1.0;0.5;0.0;-0.231445;0.03125;0.986328;-1.05;0.63;0.56;393.0;-0.26792;0.016936;5.5;8.5;3.75;5.5;0.5;1.25;0.0;0.25;0.0;0.25;0.5;0.5;0.25;0.75;0.0;0.0;-0.252441;0.032715;0.973145;-0.84;-0.84;0.84;308.0;-0.287157;-0.082929
3.25;10.5;7.0;8.5;4.5;0.25;0.0;0.0;0.0;1.5;0.0;0.25;0.0;0.0;1.0;0.25;0.0;-0.227539;0.02832;0.985352;-0.84;0.49;0.56;386.0;-0.283571;0.014208;5.5;8.0;4.0;5.5;0.5;1.0;0.0;0.25;0.0;0.25;0.5;0.25;0.25;0.75;0.25;0.0;-0.250488;0.031738;0.977051;-0.84;-0.84;0.77;303.0;-0.284261;-0.075923
3.26;10.5;6.75;8.25;4.5;0.25;0.0;0.0;0.0;1.5;0.0;0.5;0.0;0.0;1.0;0.0;0.0;-0.233398;0.024414;0.985352;-0.91;0.49;0.42;381.0;-0.284211;0.014548;5.25;8.25;4.0;5.5;0.5;1.0;0.0;0.25;0.0;0.25;0.5;0.25;0.25;0.75;0.25;0.0;-0.25;0.032715;0.973633;-0.77;-1.05;0.77;303.0;-0.28425;-0.078399
3.27;10.25;6.75;8.5;4.25;0.25;0.0;0.0;0.0;1.5;0.25;0.25;0.25;0.0;1.25;0.25;0.0;-0.223145;0.027344;0.984863;-1.05;0.63;0.49;386.0;-0.270074;0.015581;5.25;8.25;4.0;5.5;0.5;1.0;0.0;0.25;0.0;0.25;0.75;0.25;0.25;0.75;0.0;0.25;-0.249023;0.033203;0.97168;-0.77;-0.91;0.77;304.0;-0.282833;-0.079859
3.28;10.25;6.75;8.5;4.25;0.25;0.0;0.25;0.0;1.25;0.0;0.25;0.25;0.0;1.25;0.25;0.0;-0.226562;0.026367;0.983398;-1.05;0.56;0.49;384.0;-0.275001;0.015248;5.25;8.25;4.0;5.5;0.5;1.0;0.0;0.5;0.25;0.25;0.5;0.25;0.25;0.75;0.0;0.0;-0.253418;0.030273;0.97168;-0.77;-0.98;0.84;308.0;-0.280733;-0.078504
3.29;10.25;6.75;8.5;4.25;0.25;0.0;0.25;0.0;1.5;0.0;0.25;0.25;0.0;1.25;0.25;0.0;-0.226562;0.024414;0.98584;-0.98;0.49;0.49;387.0;-0.270095;0.01764;5.25;8.0;4.0;5.5;0.5;1.0;0.0;0.5;0.0;0.25;0.5;0.25;0.25;0.75;0.0;0.0;-0.25;0.030762;0.972656;-0.77;-1.05;0.77;302.0;-0.285964;-0.081955
3.3;10.25;6.75;8.5;4.25;0.25;0.0;0.0;0.0;1.5;0.0;0.5;0.25;0.0;1.0;0.25;0.0;-0.227051;0.024902;0.984375;-0.98;0.63;0.49;384.0;-0.274287;0.013263;5.25;8.25;4.25;5.5;0.5;1.0;0.0;0.5;0.0;0.25;0.5;0.5;0.25;0.75;0.25;0.0;-0.251465;0.03125;0.972656;-0.77;-0.91;0.77;313.0;-0.275908;-0.082932
3.31;10.25;6.75;8.5;4.25;0.5;0.25;0.0;0.0;1.5;0.0;0.25;0.0;0.0;1.0;0.25;0.0;-0.229492;0.024902;0.981934;-0.98;0.56;0.56;384.0;-0.27953;0.014705;5.25;8.25;4.0;5.25;0.5;1.0;0.0;0.25;0.0;0.25;0.5;0.5;0.5;0.75;0.5;0.0;-0.248047;0.030762;0.969727;-0.77;-0.91;0.77;308.0;-0.269698;-0.081969
3.32;10.25;6.75;8.5;4.25;0.5;0.0;0.25;0.0;1.5;0.0;0.5;0.25;0.0;1.0;0.25;0.0;-0.228516;0.026367;0.983887;-0.98;0.77;0.35;391.0;-0.269409;0.016048;5.25;8.25;4.0;5.25;0.25;1.0;0.0;0.5;0.25;0.25;0.5;0.25;0.25;0.75;0.0;0.0;-0.250977;0.030273;0.975586;-0.7;-0.84;0.77;302.0;-0.28221;-0.07844
3.33;10.5;6.75;8.5;4.5;0.5;0.25;0.0;0.0;1.75;0.0;0.25;0.25;0.0;1.0;0.25;0.0;-0.234375;0.023438;0.980957;-0.84;0.63;0.49;396.0;-0.272086;0.013649;5.5;8.5;4.0;5.5;0.25;1.0;0.0;0.5;0.25;0.25;0.75;0.25;0.25;0.75;0.0;0.0;-0.247559;0.032715;0.975098;-0.7;-0.91;0.7;313.0;-0.279797;-0.079199
3.34;10.25;6.75;8.5;4.25;0.5;0.0;0.0;0.0;1.5;0.25;0.25;0.25;0.0;1.0;0.25;0.0;-0.229004;0.022461;0.98584;-0.84;0.49;0.49;387.0;-0.273048;0.014963;5.5;8.5;4.25;5.5;0.25;1.25;0.0;0.25;0.0;0.5;0.5;0.5;0.5;0.75;0.25;0.0;-0.250488;0.037109;0.975098;-0.7;-1.12;0.77;319.0;-0.273969;-0.082474
3.35;10.25;6.75;8.5;4.25;0.25;0.0;0.0;0.0;1.5;0.0;0.25;0.25;0.0;1.0;0.25;0.0;-0.230469;0.023438;0.98877;-0.7;0.49;0.56;381.0;-0.278042;0.014233;5.25;8.25;4.0;5.25;0.25;1.0;0.0;0.5;0.0;0.25;0.75;0.5;0.5;0.75;0.25;0.0;-0.250488;0.027344;0.972168;-0.63;-0.84;0.77;309.0;-0.269328;-0.087843
3.36;10.5;6.75;8.25;4.25;0.25;0.0;0.0;0.0;1.25;0.0;0.25;0.25;0.0;0.75;0.25;0.0;-0.224609;0.029785;0.979492;-0.56;0.49;0.56;375.0;-0.288465;0.010843;5.5;8.25;4.0;5.5;0.5;1.0;0.0;0.5;0.0;0.25;0.75;0.5;0.5;0.75;0.0;0.0;-0.252441;0.030762;0.972656;-0.63;-0.91;0.84;315.0;-0.275489;-0.086012
3.37;10.5;7.0;8.5;4.25;0.25;0.0;0.0;0.0;0.75;0.0;0.5;0.25;0.0;0.75;0.25;0.0;-0.227539;0.023438;0.988281;-0.63;0.49;0.63;376.0;-0.295587;0.004319;5.5;8.25;4.0;5.5;0.25;0.75;0.0;0.5;0.0;0.25;0.75;0.5;0.5;0.75;0.25;0.0;-0.249023;0.031738;0.968262;-0.77;-1.05;0.84;312.0;-0.271834;-0.085613
3.38;10.25;6.75;8.25;4.25;0.25;0.0;0.25;0.0;1.25;0.0;0.25;0.25;0.0;1.0;0.0;0.25;-0.229004;0.022949;0.98584;-0.63;0.35;0.63;377.0;-0.282002;0.013098;5.5;8.5;4.0;5.5;0.25;1.0;0.0;0.5;0.0;0.25;0.75;0.5;0.5;0.75;0.0;0.25;-0.25293;0.03125;0.968262;-0.84;-0.98;0.77;316.0;-0.27506;-0.089115
3.39;10.5;6.75;8.5;4.25;0.25;0.0;0.25;0.0;1.5;0.0;0.25;0.0;0.0;1.0;0.0;0.0;-0.231445;0.025391;0.984375;-0.7;0.49;0.63;382.0;-0.283925;0.020456;5.5;8.5;4.0;5.5;0.5;1.0;0.0;0.5;0.25;0.25;0.75;0.75;0.5;0.75;0.0;0.25;-0.245605;0.035645;0.972168;-0.7;-0.98;0.84;326.0;-0.263559;-0.085564
3.4;10.25;6.75;8.5;4.25;0.25;0.0;0.0;0.0;1.25;0.0;0.25;0.25;0.0;1.0;0.25;0.0;-0.231934;0.025879;0.987305;-0.63;0.56;0.56;377.0;-0.283106;0.011768;5.5;8.25;4.0;5.5;0.25;1.0;0.0;0.5;0.0;0.25;0.75;0.75;0.25;0.75;0.0;0.0;-0.249512;0.032715;0.973633;-0.63;-0.91;0.84;313.0;-0.275813;-0.086528
3.41;10.5;6.75;8.5;4.25;0.25;0.0;0.0;0.0;1.25;0.0;0.25;0.25;0.0;1.0;0.25;0.0;-0.225098;0.020996;0.990234;-0.56;0.49;0.56;380.0;-0.284001;0.012491;5.75;8.75;4.0;5.5;0.25;1.25;0.0;0.5;0.0;0.25;0.75;0.5;0.5;0.75;0.0;0.0;-0.245605;0.033203;0.967773;-0.42;-1.12;0.91;323.0;-0.279072;-0.088646
3.42;10.25;6.75;8.0;4.25;0.25;0.0;0.0;0.0;1.5;0.25;0.5;0.25;0.0;1.0;0.25;0.0;-0.234863;0.019531;0.984863;-0.42;0.42;0.49;381.0;-0.270585;0.012424;5.75;8.5;3.75;5.5;0.25;1.0;0.0;0.5;0.0;0.5;0.5;0.5;0.5;0.5;0.0;0.0;-0.244141;0.035645;0.971191;-0.56;-0.91;0.77;312.0;-0.284343;-0.088345
3.43;10.25;7.0;8.25;4.5;0.25;0.0;0.0;0.0;1.5;0.0;0.5;0.25;0.0;1.0;0.25;0.0;-0.225586;0.026367;0.983398;-0.49;0.35;0.56;386.0;-0.275389;0.009645;5.25;8.75;4.0;5.5;0.5;1.0;0.0;0.5;0.0;0.25;0.5;0.5;0.25;0.5;0.0;0.0;-0.255859;0.033691;0.973145;-0.63;-0.98;0.84;310.0;-0.28978;-0.08794
3.44;10.5;7.0;8.5;4.5;0.25;0.0;0.0;0.0;1.25;0.0;0.25;0.25;0.0;0.75;0.5;0.0;-0.229492;0.024414;0.980469;-0.56;0.49;0.49;386.0;-0.283948;0.007788;5.25;8.75;4.0;5.5;0.5;1.0;0.0;0.5;0.0;0.25;0.5;0.5;0.25;0.5;0.0;0.0;-0.25;0.035645;0.976562;-0.56;-0.91;0.91;310.0;-0.28978;-0.08794
3.45;10.5;6.75;8.25;4.25;0.25;0.0;0.25;0.0;1.5;0.25;0.25;0.25;0.0;0.75;0.5;0.0;-0.23291;0.022461;0.986816;-0.42;0.28;0.56;388.0;-0.270525;0.01543;5.75;8.75;4.0;5.5;0.5;0.75;0.0;0.5;0.0;0.25;0.5;0.25;0.25;0.5;0.0;0.0;-0.249512;0.03418;0.973145;-0.77;-0.91;0.77;310.0;-0.297822;-0.080636
3.46;10.5;7.0;8.75;4.25;0.25;0.0;0.0;0.0;0.75;0.25;0.5;0.25;0.0;1.0;0.25;0.0;-0.230469;0.023438;0.989746;-0.49;0.35;0.56;384.0;-0.287108;0.006481;5.25;8.5;4.25;5.5;0.25;0.75;0.0;0.25;0.0;0.25;0.5;0.25;0.5;0.25;0.0;0.0;-0.251465;0.035156;0.969238;-0.7;-1.12;0.91;297.0;-0.302057;-0.083882
3.47;10.5;7.0;8.75;4.5;0.25;0.0;0.0;0.0;1.25;0.0;0.25;0.25;0.0;0.75;0.25;0.0;-0.22998;0.023438;0.984863;-0.49;0.49;0.49;386.0;-0.288931;0.009098;5.25;8.5;4.0;5.5;0.5;1.0;0.0;0.5;0.0;0.25;0.5;0.5;0.5;0.25;0.0;0.0;-0.251465;0.035645;0.970703;-0.63;-0.98;0.84;307.0;-0.290527;-0.092167
3.48;10.5;7.0;8.5;4.5;0.25;0.0;0.0;0.0;1.5;0.0;0.5;0.25;0.0;1.0;0.25;0.0;-0.225098;0.020508;0.984375;-0.49;0.42;0.49;392.0;-0.276234;0.01098;5.25;9.0;4.0;5.5;0.5;1.25;0.0;0.5;0.25;0.25;0.75;0.5;0.5;0.5;0.0;0.0;-0.253418;0.033691;0.975098;-0.63;-1.05;0.77;324.0;-0.275594;-0.089209
3.49;10.25;7.0;8.5;4.25;0.25;0.0;0.25;0.0;1.5;0.0;0.25;0.25;0.0;1.0;0.25;0.0;-0.231445;0.025391;0.989258;-0.56;0.63;0.49;388.0;-0.275136;0.015486;5.5;8.5;4.0;5.5;0.5;0.75;0.0;0.5;0.25;0.25;0.5;0.5;0.5;0.5;0.25;0.0;-0.251953;0.032227;0.972656;-0.77;-1.05;0.91;316.0;-0.275152;-0.082446
3.5;10.5;7.0;8.5;4.25;0.25;0.0;0.0;0.0;1.5;0.0;0.25;0.25;0.0;1.0;0.25;0.25;-0.229004;0.023438;0.98584;-0.49;0.56;0.56;388.0;-0.277417;0.012499;5.5;8.5;4.0;5.5;0.5;1.0;0.0;0.5;0.25;0.25;0.5;0.25;0.5;0.75;0.0;0.0;-0.250488;0.036133;0.969727;-0.77;-0.84;0.77;316.0;-0.27956;-0.080384
3.51;10.25;7.0;8.5;4.5;0.25;0.25;0.0;0.0;1.25;0.0;0.25;0.25;0.0;1.0;0.25;0.0;-0.233887;0.024414;0.987305;-0.49;0.63;0.56;386.0;-0.283004;0.006574;5.25;8.25;4.0;5.5;0.5;1.25;0.0;0.5;0.0;0.25;0.25;0.25;0.5;0.75;0.0;0.0;-0.251953;0.033691;0.974609;-0.84;-0.84;0.77;307.0;-0.287019;-0.087096
3.52;10.25;7.0;8.5;4.25;0.25;0.0;0.0;0.0;1.0;0.0;0.25;0.25;0.0;1.0;0.25;0.0;-0.231934;0.025879;0.985352;-0.56;0.56;0.63;376.0;-0.289127;0.008082;5.25;8.25;4.0;5.5;0.5;1.0;0.0;0.5;0.0;0.5;0.25;0.25;0.25;0.75;0.0;0.0;-0.25;0.035645;0.975586;-0.77;-0.98;0.77;304.0;-0.286941;-0.08097
3.53;10.5;7.0;8.5;4.25;0.25;0.0;0.25;0.0;1.25;0.0;0.25;0.25;0.0;1.0;0.25;0.0;-0.229004;0.024414;0.984863;-0.49;0.42;0.63;387.0;-0.280987;0.013777;5.5;8.5;4.25;5.5;0.5;0.75;0.0;0.5;0.0;0.25;0.5;0.5;0.25;0.75;0.0;0.0;-0.252441;0.037109;0.969238;-0.84;-0.98;0.7;313.0;-0.285641;-0.080067
3.54;10.5;7.0;8.75;4.5;0.25;0.0;0.25;0.0;1.5;0.0;0.25;0.25;0.0;1.0;0.25;0.0;-0.230469;0.019043;0.991211;-0.56;0.49;0.56;397.0;-0.276071;0.014903;5.5;9.0;4.0;5.5;0.5;1.0;0.0;0.5;0.0;0.0;0.5;0.25;0.25;0.75;0.0;0.0;-0.251465;0.033203;0.972656;-0.84;-0.91;0.77;312.0;-0.296053;-0.084275
3.55;10.25;7.0;8.75;4.5;0.5;0.0;0.25;0.0;1.25;0.0;0.25;0.25;0.0;1.0;0.25;0.0;-0.225586;0.032227;0.982422;-0.7;0.42;0.56;393.0;-0.278848;0.012221;5.5;8.75;4.0;5.5;0.5;1.0;0.0;0.5;0.0;0.0;0.5;0.25;0.25;0.25;0.0;0.0;-0.25;0.036133;0.967773;-0.77;-1.05;0.77;305.0;-0.305854;-0.087589
3.56;10.25;7.25;8.75;4.5;0.5;0.0;0.25;0.0;1.25;0.0;0.25;0.25;0.0;1.25;0.25;0.0;-0.226074;0.021484;0.97998;-0.63;0.42;0.49;398.0;-0.275688;0.012057;5.5;8.5;4.0;5.5;0.5;1.0;0.0;0.5;0.25;0.25;0.5;0.25;0.25;0.25;0.0;0.25;-0.250488;0.03418;0.972168;-0.98;-0.98;0.7;310.0;-0.290275;-0.082466
3.57;10.5;7.25;8.5;4.25;0.5;0.0;0.0;0.0;1.5;0.0;0.5;0.25;0.0;1.25;0.25;0.0;-0.228516;0.020996;0.981934;-0.63;0.42;0.56;397.0;-0.271873;0.012993;5.5;8.5;4.0;5.5;0.5;1.0;0.0;0.5;0.0;0.25;0.5;0.25;0.25;0.25;0.25;0.0;-0.246582;0.03125;0.974121;-0.91;-0.91;0.77;308.0;-0.29326;-0.085497
3.58;10.5;7.25;8.25;4.5;0.5;0.0;0.0;0.0;1.25;0.0;0.5;0.25;0.0;1.0;0.25;0.0;-0.228027;0.022461;0.990234;-0.63;0.49;0.49;391.0;-0.280936;0.007207;5.5;8.5;4.25;5.5;0.5;1.0;0.0;0.5;0.0;0.25;0.5;0.25;0.5;0.25;0.0;0.0;-0.255859;0.037598;0.971191;-0.98;-0.84;0.84;310.0;-0.29595;-0.086664
3.59;10.75;7.25;8.25;4.5;0.5;0.0;0.0;0.0;1.25;0.25;0.5;0.25;0.0;0.75;0.25;0.0;-0.229492;0.021484;0.986328;-0.63;0.49;0.63;394.0;-0.282139;0.007341;5.5;8.5;4.25;5.5;0.5;1.0;0.0;0.5;0.0;0.25;0.5;0.25;0.5;0.25;0.0;0.0;-0.248047;0.032715;0.970215;-0.84;-0.91;0.77;310.0;-0.29595;-0.086664
3.6;10.75;7.0;8.5;4.5;0.5;0.0;0.0;0.0;1.5;0.0;0.5;0.25;0.0;1.0;0.25;0.25;-0.233398;0.022949;0.983887;-0.63;0.42;0.49;400.0;-0.27364;0.010848;5.5;8.0;4.0;5.5;0.5;1.0;0.0;0.5;0.25;0.0;0.5;0.5;0.5;0.25;0.0;0.0;-0.253418;0.03418;0.962402;-0.91;-0.91;0.7;306.0;-0.288031;-0.086254
3.61;10.75;7.0;8.75;4.75;0.5;0.0;0.0;0.0;1.25;0.25;0.5;0.25;0.0;1.0;0.25;0.0;-0.23291;0.021973;0.988281;-0.56;0.42;0.56;403.0;-0.277088;0.008918;5.5;8.0;4.0;5.5;0.5;1.0;0.0;0.5;0.25;0.25;0.5;0.5;0.5;0.25;0.0;0.0;-0.251953;0.032715;0.97168;-0.98;-0.84;0.77;309.0;-0.283166;-0.084872
3.62;10.5;7.0;8.75;4.5;0.5;0.0;0.0;0.0;1.25;0.25;0.5;0.25;0.0;1.0;0.25;0.0;-0.224609;0.030762;0.982422;-0.63;0.56;0.49;398.0;-0.27611;0.00997;5.5;8.25;4.0;5.5;0.5;1.0;0.0;0.5;0.25;0.25;0.75;0.5;0.5;0.75;0.0;0.0;-0.246582;0.032227;0.973145;-0.91;-0.91;0.63;319.0;-0.269522;-0.08197
3.63;10.5;7.0;8.75;4.25;0.5;0.0;0.0;0.0;1.5;0.0;0.5;0.25;0.0;1.0;0.25;0.0;-0.229492;0.022461;0.989746;-0.63;0.56;0.49;395.0;-0.274919;0.013756;5.5;8.5;4.0;5.5;0.5;1.0;0.0;0.5;0.25;0.25;0.75;0.25;0.25;0.25;0.0;0.0;-0.246094;0.034668;0.976074;-0.91;-0.91;0.7;311.0;-0.28863;-0.081674
3.64;10.25;7.0;8.5;4.25;0.5;0.0;0.0;0.0;1.25;0.0;0.5;0.25;0.0;1.0;0.25;0.0;-0.228516;0.028809;0.986328;-0.56;0.35;0.56;386.0;-0.278978;0.010045;5.5;8.5;4.0;5.5;0.5;1.0;0.0;0.5;0.25;0.25;0.5;0.25;0.25;0.25;0.25;0.0;-0.246094;0.03418;0.969727;-0.77;-0.91;0.7;311.0;-0.286947;-0.081365
3.65;10.5;7.0;8.5;4.25;0.5;0.0;0.0;0.0;1.5;0.0;0.5;0.25;0.0;1.0;0.25;0.0;-0.23291;0.025879;0.983887;-0.49;0.42;0.56;392.0;-0.274993;0.013168;5.5;8.25;4.0;5.5;0.5;1.0;0.0;0.5;0.0;0.0;0.5;0.25;0.25;0.5;0.0;0.0;-0.249512;0.034668;0.973633;-0.91;-0.98;0.77;302.0;-0.298481;-0.084238
3.66;10.25;7.0;8.5;4.25;0.5;0.0;0.0;0.0;1.5;0.0;0.25;0.25;0.0;1.0;0.25;0.0;-0.231445;0.029297;0.985352;-0.49;0.42;0.56;387.0;-0.27776;0.013423;5.5;8.75;4.0;5.5;0.5;1.0;0.0;0.5;0.0;0.25;0.75;0.25;0.25;0.75;0.0;0.0;-0.250977;0.036133;0.971191;-0.91;-0.91;0.77;315.0;-0.285508;-0.08257
3.67;10.25;6.75;8.25;4.25;0.5;0.0;0.25;0.0;1.5;0.0;0.25;0.5;0.0;1.25;0.25;0.0;-0.229004;0.021973;0.986816;-0.49;0.49;0.63;390.0;-0.265479;0.015101;5.5;8.75;4.0;5.5;0.5;1.0;0.0;0.5;0.0;0.25;0.75;0.25;0.25;0.25;0.25;0.0;-0.246582;0.034668;0.970215;-0.77;-0.84;0.77;313.0;-0.289512;-0.086424
3.68;10.25;6.75;8.5;4.25;0.5;0.0;0.0;0.0;1.75;0.25;0.5;0.25;0.0;1.25;0.5;0.0;-0.230957;0.027344;0.98877;-0.56;0.56;0.56;398.0;-0.255824;0.016602;5.5;8.75;4.0;5.5;0.5;1.0;0.0;0.5;0.25;0.25;0.75;0.25;0.5;0.25;0.0;0.0;-0.250488;0.031738;0.975098;-0.91;-0.84;0.77;316.0;-0.286241;-0.085176
3.69;10.5;7.0;8.5;4.5;0.25;0.0;0.0;0.0;1.5;0.25;0.25;0.25;0.0;1.25;0.25;0.0;-0.228516;0.022949;0.981445;-0.56;0.63;0.42;394.0;-0.2721;0.013262;5.5;8.5;4.0;5.5;0.5;1.0;0.0;0.5;0.0;0.0;0.5;0.25;0.5;0.5;0.0;0.0;-0.248535;0.03418;0.971191;-0.84;-0.98;0.7;307.0;-0.295861;-0.087808
3.7;10.25;7.0;8.5;4.5;0.25;0.25;0.0;0.0;1.75;0.25;0.25;0.25;0.0;1.25;0.5;0.0;-0.225098;0.025391;0.987793;-0.49;0.63;0.56;401.0;-0.260715;0.012111;5.5;8.5;4.0;5.5;0.5;1.0;0.0;0.5;0.0;0.25;0.5;0.5;0.5;0.5;0.25;0.0;-0.25;0.035645;0.96875;-0.84;-0.91;0.77;315.0;-0.28002;-0.088288
3.71;10.0;7.0;8.5;4.25;0.25;0.0;0.0;0.0;1.5;0.25;0.5;0.25;0.0;1.25;0.5;0.0;-0.229492;0.029785;0.984375;-0.56;0.42;0.56;392.0;-0.261472;0.012062;5.5;8.25;4.0;5.5;0.5;1.0;0.0;0.5;0.0;0.0;0.75;0.25;0.25;0.5;0.0;0.0;-0.248047;0.029297;0.968262;-0.77;-0.84;0.7;305.0;-0.29356;-0.084536
3.72;10.0;6.75;8.25;4.5;0.25;0.0;0.0;0.0;1.5;0.25;0.25;0.25;0.0;1.25;0.25;0.0;-0.229004;0.025879;0.987305;-0.56;0.42;0.42;383.0;-0.269264;0.012425;5.25;8.5;4.0;5.5;0.5;1.0;0.0;0.5;0.0;0.0;0.75;0.25;0.25;0.5;0.0;0.0;-0.250488;0.037109;0.978027;-0.91;-0.91;0.7;304.0;-0.293559;-0.087008
3.73;10.25;6.75;8.25;4.25;0.5;0.0;0.0;0.0;1.5;0.25;0.25;0.25;0.0;1.5;0.25;0.0;-0.224121;0.020508;0.98584;-0.7;0.56;0.56;388.0;-0.264913;0.016326;5.5;8.25;4.0;5.25;0.5;1.0;0.0;0.5;0.25;0.0;0.75;0.25;0.25;0.75;0.0;0.0;-0.25;0.038086;0.973145;-0.84;-0.98;0.77;308.0;-0.281899;-0.077018
3.74;10.25;6.75;8.25;4.25;0.5;0.0;0.0;0.0;1.5;0.0;0.5;0.25;0.0;1.25;0.25;0.0;-0.229004;0.022949;0.986328;-0.63;0.56;0.49;386.0;-0.26907;0.014026;5.25;8.25;4.0;5.25;0.5;1.0;0.0;0.5;0.0;0.25;0.5;0.25;0.25;0.75;0.0;0.25;-0.248535;0.030762;0.966797;-0.98;-0.91;0.7;303.0;-0.283873;-0.082372
3.75;10.25;6.75;8.25;4.25;0.5;0.0;0.25;0.0;1.5;0.0;0.25;0.25;0.0;1.5;0.25;0.0;-0.227051;0.023438;0.985352;-0.77;0.7;0.49;390.0;-0.26495;0.01837;5.25;8.25;4.0;5.5;0.5;1.0;0.0;0.5;0.0;0.0;0.5;0.5;0.25;0.5;0.0;0.25;-0.246094;0.031738;0.970215;-0.84;-0.84;0.7;303.0;-0.289464;-0.089163
3.76;10.0;6.75;8.5;4.25;0.5;0.0;0.25;0.0;1.5;0.25;0.25;0.25;0.0;1.5;0.25;0.0;-0.226562;0.020996;0.991699;-0.63;0.56;0.63;393.0;-0.2603;0.018598;5.5;8.25;4.0;5.25;0.5;1.0;0.0;0.5;0.0;0.0;0.5;0.25;0.25;0.5;0.0;0.25;-0.249512;0.032227;0.97168;-0.91;-0.84;0.7;300.0;-0.295339;-0.083965
3.77;10.0;6.75;8.5;4.25;0.5;0.0;0.25;0.0;1.5;0.25;0.25;0.25;0.0;1.5;0.5;0.0;-0.228516;0.02002;0.993164;-0.7;0.77;0.56;396.0;-0.255461;0.017868;5.5;8.0;4.25;5.25;0.5;1.0;0.0;0.5;0.25;0.25;0.5;0.25;0.25;0.5;0.25;0.25;-0.250488;0.034668;0.972168;-0.91;-0.91;0.63;310.0;-0.276296;-0.076092
3.78;10.25;6.5;8.25;4.25;0.5;0.0;0.0;0.0;1.5;0.0;0.25;0.25;0.0;1.25;0.5;0.0;-0.231934;0.022461;0.98877;-0.63;0.63;0.63;384.0;-0.266734;0.015459;5.5;8.0;4.25;5.25;0.5;1.0;0.0;0.5;0.0;0.25;0.5;0.25;0.25;0.75;0.25;0.0;-0.25293;0.033203;0.977051;-1.05;-0.91;0.63;307.0;-0.28036;-0.077109
3.79;10.0;6.5;8.25;4.25;0.25;0.0;0.0;0.0;1.5;0.0;0.5;0.25;0.0;1.25;0.5;0.25;-0.23291;0.029297;0.984863;-0.7;0.63;0.49;382.0;-0.260714;0.012148;5.25;8.25;4.0;5.5;0.5;1.0;0.0;0.5;0.0;0.25;0.5;0.25;0.25;0.75;0.0;0.0;-0.254395;0.032227;0.978027;-0.98;-0.91;0.77;304.0;-0.287047;-0.082652
3.8;10.0;6.5;8.25;4.5;0.25;0.0;0.0;0.0;1.5;0.0;0.5;0.25;0.0;1.25;0.5;0.0;-0.227051;0.020996;0.992188;-0.7;0.7;0.63;384.0;-0.263323;0.011554;5.0;8.25;4.0;5.5;0.5;1.0;0.0;0.5;0.0;0.25;0.5;0.25;0.5;0.75;0.0;0.0;-0.25;0.036133;0.975586;-0.98;-0.91;0.77;304.0;-0.282426;-0.087373
3.81;10.25;6.5;8.5;4.25;0.25;0.0;0.0;0.0;1.5;0.0;0.5;0.0;0.0;1.25;0.25;0.0;-0.22998;0.022461;0.989746;-0.63;0.56;0.63;381.0;-0.272816;0.017794;5.5;8.25;4.0;5.25;0.5;1.0;0.0;0.5;0.25;0.25;0.5;0.5;0.25;0.75;0.0;0.0;-0.247559;0.040039;0.969727;-0.98;-0.77;0.7;311.0;-0.277238;-0.077399
3.82;10.0;6.75;8.5;4.25;0.25;0.0;0.25;0.0;1.75;0.25;0.5;0.0;0.0;1.5;0.25;0.0;-0.228516;0.022949;0.98877;-0.7;0.63;0.49;393.0;-0.256536;0.021924;5.0;8.0;4.0;5.25;0.5;1.0;0.0;0.5;0.25;0.25;0.75;0.25;0.25;0.75;0.25;0.0;-0.249512;0.035645;0.96875;-0.91;-0.91;0.77;305.0;-0.267195;-0.078464
3.83;9.75;6.75;8.5;4.25;0.25;0.0;0.0;0.0;1.75;0.0;0.5;0.25;0.0;1.25;0.25;0.0;-0.229492;0.025391;0.989746;-0.7;0.56;0.49;384.0;-0.263293;0.015279;5.25;8.0;4.0;5.25;0.5;0.75;0.0;0.5;0.25;0.25;0.75;0.25;0.25;0.75;0.0;0.0;-0.249512;0.03418;0.969727;-0.91;-0.77;0.7;302.0;-0.276002;-0.074762
3.84;9.75;6.5;8.25;4.25;0.5;0.0;0.25;0.0;1.5;0.0;0.5;0.25;0.0;1.25;0.25;0.0;-0.229004;0.024414;0.983887;-0.77;0.56;0.56;382.0;-0.262342;0.016273;5.25;8.0;4.0;5.25;0.5;1.0;0.0;0.5;0.0;0.0;0.75;0.25;0.25;0.75;0.0;0.0;-0.250488;0.03125;0.969238;-0.98;-0.84;0.7;299.0;-0.286056;-0.082232
3.85;10.25;6.75;8.25;4.25;0.25;0.25;0.25;0.0;1.5;0.0;0.5;0.25;0.0;1.5;0.25;0.0;-0.231445;0.027832;0.986328;-0.77;0.42;0.56;393.0;-0.261587;0.014856;4.75;7.75;4.0;5.25;0.5;1.0;0.0;0.25;0.0;0.25;0.75;0.5;0.25;0.75;0.0;0.0;-0.250977;0.030273;0.973145;-0.98;-0.77;0.63;292.0;-0.27655;-0.08148
3.86;10.0;6.75;8.25;4.25;0.25;0.25;0.25;0.0;1.75;0.0;0.5;0.0;0.0;1.25;0.0;0.0;-0.228027;0.026367;0.987793;-0.84;0.49;0.56;385.0;-0.268301;0.018639;4.75;7.75;4.0;5.25;0.5;0.75;0.0;0.25;0.25;0.25;0.75;0.25;0.25;0.75;0.0;0.25;-0.248047;0.030273;0.976074;-1.05;-0.91;0.7;291.0;-0.272843;-0.07422
3.87;9.75;6.5;8.25;4.25;0.25;0.0;0.25;0.0;2.0;0.0;0.25;0.25;0.0;1.5;0.0;0.0;-0.230469;0.024414;0.984375;-0.77;0.49;0.49;383.0;-0.258295;0.023444;5.0;7.75;4.0;5.25;0.5;1.0;0.0;0.5;0.0;0.25;0.75;0.25;0.25;0.75;0.0;0.0;-0.249023;0.032715;0.978027;-0.98;-0.91;0.7;296.0;-0.278773;-0.081941
3.88;10.0;6.5;8.25;4.0;0.25;0.0;0.25;0.0;1.75;0.25;0.5;0.25;0.0;1.5;0.25;0.0;-0.230469;0.023438;0.992676;-0.91;0.56;0.49;388.0;-0.251722;0.022162;4.75;7.75;4.0;5.25;0.5;1.0;0.0;0.5;0.0;0.25;0.75;0.25;0.25;0.75;0.0;0.0;-0.251465;0.033203;0.967773;-0.91;-0.98;0.63;293.0;-0.277572;-0.083781
3.89;10.25;6.5;8.5;4.0;0.25;0.0;0.25;0.0;1.75;0.25;0.5;0.25;0.0;1.25;0.25;0.0;-0.225098;0.018555;0.982422;-0.91;0.63;0.56;391.0;-0.256868;0.022389;5.25;7.5;4.0;5.25;0.5;0.75;0.0;0.5;0.0;0.5;0.75;0.25;0.25;0.75;0.0;0.0;-0.253418;0.030273;0.969238;-0.91;-0.91;0.7;296.0;-0.275082;-0.07609
3.9;9.75;6.5;8.5;4.25;0.25;0.0;0.0;0.0;1.5;0.0;0.25;0.25;0.0;1.0;0.5;0.0;-0.226562;0.025391;0.981445;-0.84;0.42;0.56;376.0;-0.269993;0.013281;4.25;8.0;4.0;5.25;0.5;0.75;0.0;0.5;0.0;0.25;0.75;0.25;0.25;0.75;0.0;0.25;-0.253418;0.029785;0.975586;-0.84;-0.91;0.56;289.0;-0.27434;-0.087503
3.91;9.75;6.25;8.75;4.25;0.5;0.25;0.0;0.0;1.5;0.0;0.25;0.0;0.0;1.0;0.25;0.0;-0.233398;0.023438;0.98584;-0.91;0.49;0.49;376.0;-0.275718;0.016314;4.5;7.75;4.0;5.25;0.5;1.0;0.0;0.5;0.0;0.0;0.75;0.25;0.25;0.75;0.0;0.25;-0.25;0.031738;0.974121;-0.91;-0.98;0.7;289.0;-0.278164;-0.088292
3.92;10.0;6.5;8.75;4.25;0.25;0.0;0.0;0.0;1.75;0.0;0.25;0.25;0.0;1.25;0.25;0.0;-0.230469;0.027832;0.998047;-0.91;0.42;0.49;385.0;-0.266974;0.018718;4.75;7.75;4.0;5.25;0.5;1.0;0.0;0.5;0.0;0.0;0.75;0.25;0.5;0.75;0.0;0.25;-0.253906;0.032227;0.97168;-0.98;-0.77;0.77;294.0;-0.275788;-0.089384
3.93;10.25;6.5;8.25;4.25;0.25;0.0;0.25;0.0;2.0;0.25;0.5;0.25;0.0;1.25;0.0;0.0;-0.228027;0.024902;0.986816;-0.91;0.49;0.42;392.0;-0.257212;0.023041;5.25;8.0;4.0;5.25;0.5;1.0;0.0;0.5;0.25;0.0;0.75;0.25;0.5;0.75;0.0;0.0;-0.251953;0.033203;0.974121;-0.84;-0.91;0.63;305.0;-0.276169;-0.080979
3.94;10.0;6.5;8.5;4.25;0.5;0.0;0.0;0.0;2.0;0.25;0.5;0.25;0.0;1.25;0.25;0.0;-0.22998;0.030273;0.981934;-0.91;0.56;0.42;394.0;-0.253912;0.020167;5.0;7.5;4.0;5.25;0.5;1.0;0.0;0.5;0.25;0.0;0.75;0.25;0.25;0.75;0.0;0.0;-0.253906;0.027832;0.969727;-0.77;-0.91;0.77;294.0;-0.276105;-0.078301
3.95;9.75;6.5;8.5;4.25;0.5;0.0;0.0;0.0;2.0;0.0;0.5;0.25;0.0;1.25;0.25;0.0;-0.234375;0.023926;0.98877;-1.05;0.42;0.56;388.0;-0.256442;0.0192;5.0;7.75;4.0;5.25;0.5;1.0;0.0;0.5;0.25;0.25;0.75;0.25;0.25;0.75;0.0;0.25;-0.251465;0.036133;0.975586;-0.84;-0.84;0.7;301.0;-0.269278;-0.078851
3.96;10.5;6.5;8.5;4.25;0.5;0.0;0.25;0.0;1.75;0.0;0.5;0.25;0.0;1.25;0.5;0.0;-0.235352;0.023926;0.98584;-1.05;0.49;0.56;400.0;-0.255919;0.020396;5.25;8.0;4.0;5.25;0.5;0.75;0.0;0.5;0.0;0.25;0.75;0.25;0.25;0.75;0.0;0.25;-0.251953;0.030762;0.968262;-0.84;-0.91;0.7;300.0;-0.279204;-0.0801
3.97;10.5;6.5;8.5;4.25;0.5;0.25;0.25;0.0;2.0;0.0;0.25;0.25;0.0;1.5;0.25;0.0;-0.226562;0.024414;0.98291;-0.98;0.56;0.49;403.0;-0.254896;0.023087;5.5;7.5;4.0;5.25;0.25;1.0;0.0;0.25;0.0;0.25;0.5;0.5;0.5;1.0;0.0;0.0;-0.253418;0.032227;0.967773;-0.7;-0.91;0.84;297.0;-0.27643;-0.077422
3.98;10.25;6.5;8.5;4.25;0.5;0.25;0.25;0.0;2.0;0.0;0.5;0.25;0.0;1.5;0.25;0.0;-0.225098;0.024902;0.985352;-1.05;0.21;0.49;403.0;-0.250444;0.021499;5.25;7.5;4.0;5.25;0.5;0.75;0.0;0.25;0.0;0.25;0.5;0.25;0.5;0.75;0.0;0.0;-0.249023;0.030762;0.965332;-0.63;-0.84;0.7;289.0;-0.285276;-0.075666
3.99;10.25;6.5;8.5;4.25;0.5;0.0;0.25;0.0;2.0;0.0;0.5;0.25;0.0;1.5;0.5;0.0;-0.224121;0.023926;0.987305;-1.26;0.49;0.49;403.0;-0.24649;0.022934;4.5;7.75;4.0;5.25;0.5;1.0;0.0;0.5;0.0;0.25;0.75;0.25;0.25;0.75;0.0;0.0;-0.249512;0.036621;0.962891;-0.56;-0.91;0.84;291.0;-0.276348;-0.085656
4.0;10.0;6.5;8.5;4.25;0.5;0.0;0.25;0.0;2.0;0.0;0.5;0.25;0.0;1.5;0.25;0.0;-0.225586;0.023926;0.986328;-1.19;0.42;0.49;397.0;-0.250091;0.02308;4.75;7.75;4.0;5.25;0.5;1.0;0.0;0.5;0.25;0.25;0.5;0.25;0.25;0.75;0.0;0.0;-0.248047;0.029785;0.967285;-0.63;-0.98;0.84;294.0;-0.275975;-0.079114
4.01;10.25;6.5;8.75;4.25;0.5;0.0;0.25;0.0;2.0;0.0;0.5;0.0;0.0;1.5;0.0;0.0;-0.22998;0.023438;0.986816;-1.12;0.42;0.42;398.0;-0.259371;0.02727;4.75;7.5;4.0;5.25;0.5;1.0;0.0;0.25;0.25;0.25;0.5;0.5;0.25;0.75;0.0;0.0;-0.256348;0.029297;0.972656;-0.7;-0.98;0.84;290.0;-0.273719;-0.076023
4.02;10.25;6.5;8.75;4.25;0.5;0.0;0.25;0.0;2.0;0.25;0.5;0.0;0.0;1.5;0.25;0.0;-0.229492;0.023926;0.978027;-1.05;0.56;0.42;403.0;-0.251107;0.026751;5.5;7.75;4.0;5.25;0.5;1.0;0.0;0.5;0.25;0.25;0.5;0.5;0.0;0.75;0.0;0.0;-0.255371;0.038086;0.97168;-0.63;-1.05;0.84;303.0;-0.278388;-0.072939
4.03;10.25;6.5;8.75;4.25;0.5;0.0;0.0;0.0;2.0;0.25;0.5;0.25;0.0;1.25;0.25;0.0;-0.22998;0.022949;0.987305;-1.05;0.56;0.42;400.0;-0.255057;0.021322;5.0;7.75;4.0;5.25;0.5;1.0;0.0;0.5;0.25;0.25;0.75;0.25;0.25;0.25;0.0;0.0;-0.245605;0.032715;0.969238;-0.7;-0.91;0.84;295.0;-0.283162;-0.081708
4.04;10.0;6.75;8.75;4.25;0.5;0.0;0.0;0.0;2.0;0.0;0.25;0.25;0.0;1.25;0.25;0.0;-0.228027;0.024414;0.98291;-0.91;0.35;0.49;394.0;-0.262098;0.020182;4.75;7.75;4.0;5.25;0.5;1.0;0.0;0.5;0.25;0.25;0.75;0.25;0.25;0.25;0.0;0.0;-0.253906;0.029785;0.964844;-0.7;-0.91;0.77;292.0;-0.281999;-0.083551
4.05;10.5;6.5;8.75;4.25;0.5;0.0;0.25;0.0;1.75;0.25;0.25;0.25;0.0;1.5;0.25;0.0;-0.230469;0.03125;0.989746;-1.05;0.49;0.56;403.0;-0.25678;0.023831;4.75;7.75;4.0;5.25;0.5;1.0;0.0;0.5;0.25;0.25;0.75;0.25;0.25;0.5;0.0;0.0;-0.252441;0.030273;0.974121;-0.7;-0.84;0.84;295.0;-0.276528;-0.081494
4.06;10.75;6.75;8.75;4.25;0.5;0.0;0.25;0.0;2.0;0.25;0.25;0.25;0.0;1.25;0.25;0.0;-0.226074;0.020508;0.98584;-0.91;0.35;0.49;409.0;-0.25809;0.024566;5.25;7.75;4.0;5.25;0.5;1.0;0.0;0.5;0.0;0.25;0.75;0.25;0.0;0.25;0.0;0.0;-0.252441;0.037109;0.965332;-0.63;-1.05;0.7;292.0;-0.29458;-0.081159
4.07;10.5;6.75;8.75;4.0;0.5;0.0;0.25;0.0;2.0;0.25;0.5;0.25;0.0;1.5;0.25;0.0;-0.228027;0.024414;0.984375;-0.84;0.28;0.49;408.0;-0.249668;0.0257;5.25;8.0;4.0;5.25;0.25;1.0;0.0;0.5;0.0;0.25;0.5;0.25;0.25;0.25;0.0;0.0;-0.250488;0.029297;0.967285;-0.7;-0.98;0.84;291.0;-0.298743;-0.0861
4.08;10.25;6.75;8.5;4.25;0.5;0.0;0.25;0.0;2.0;0.0;0.25;0.25;0.0;1.5;0.25;0.0;-0.226562;0.016113;0.980469;-0.91;0.42;0.49;400.0;-0.255629;0.023488;5.25;8.0;4.0;5.25;0.5;1.0;0.0;0.5;0.25;0.25;0.5;0.25;0.25;0.25;0.0;0.0;-0.251465;0.036621;0.97168;-0.56;-0.98;0.77;298.0;-0.290326;-0.080283
4.09;10.25;6.75;8.75;4.25;0.5;0.25;0.25;0.0;2.25;0.0;0.25;0.25;0.0;1.5;0.25;0.25;-0.230469;0.023438;0.986816;-0.84;0.42;0.49;411.0;-0.248277;0.022799;5.5;7.75;4.0;5.25;0.5;0.75;0.0;0.5;0.25;0.25;0.5;0.25;0.25;0.25;0.0;0.0;-0.248047;0.032227;0.973633;-0.56;-0.91;0.77;295.0;-0.291723;-0.075794
4.1;10.25;6.75;9.0;4.25;0.5;0.25;0.25;0.0;2.25;0.25;0.5;0.25;0.0;1.75;0.25;0.0;-0.228516;0.023438;0.98584;-0.91;0.56;0.42;421.0;-0.240372;0.024656;5.25;8.0;4.0;5.25;0.5;0.75;0.0;0.5;0.25;0.25;0.75;0.25;0.25;0.25;0.0;0.0;-0.250977;0.041016;0.973145;-0.7;-1.12;0.77;298.0;-0.286745;-0.0787
4.11;10.25;6.75;8.75;4.25;0.5;0.0;0.25;0.0;2.0;0.0;0.5;0.25;0.0;1.75;0.5;0.0;-0.228027;0.026367;0.994141;-0.91;0.63;0.56;411.0;-0.243952;0.023141;5.0;8.0;4.0;5.5;0.5;1.25;0.0;0.5;0.0;0.25;0.5;0.25;0.25;0.5;0.0;0.0;-0.252441;0.035156;0.971191;-0.7;-0.91;0.77;300.0;-0.28894;-0.087664
4.12;10.25;6.75;8.75;4.25;0.5;0.0;0.25;0.0;2.0;0.0;0.5;0.25;0.0;1.75;0.5;0.0;-0.232422;0.026367;0.983887;-0.63;0.49;0.63;411.0;-0.243952;0.023141;5.25;8.0;4.0;5.25;0.5;1.25;0.0;0.5;0.0;0.25;0.5;0.25;0.25;0.5;0.25;0.0;-0.247559;0.030762;0.97168;-0.77;-0.98;0.77;302.0;-0.283419;-0.084412
4.13;10.5;6.75;8.75;4.25;0.5;0.0;0.25;0.0;2.0;0.0;0.25;0.25;0.0;1.25;0.5;0.0;-0.231934;0.022949;0.983887;-0.7;0.56;0.56;406.0;-0.25587;0.022951;5.25;8.0;4.0;5.25;0.5;1.0;0.0;0.5;0.0;0.25;0.75;0.25;0.25;0.75;0.0;0.0;-0.251465;0.033691;0.97168;-0.7;-0.91;0.84;302.0;-0.281094;-0.080856
4.14;10.25;6.75;8.75;4.25;0.5;0.0;0.25;0.0;2.25;0.0;0.25;0.25;0.0;1.5;0.25;0.0;-0.236328;0.021973;0.981934;-0.77;0.77;0.49;407.0;-0.251199;0.026188;5.5;8.0;4.0;5.25;0.5;1.0;0.0;0.5;0.0;0.25;0.5;0.25;0.25;0.75;0.0;0.25;-0.249512;0.031738;0.971191;-0.63;-0.84;0.77;303.0;-0.283884;-0.079891
4.15;10.25;6.5;8.75;4.25;0.5;0.0;0.25;0.0;2.25;0.0;0.5;0.25;0.0;1.25;0.25;0.0;-0.229492;0.022949;0.987305;-0.63;0.63;0.56;405.0;-0.250603;0.025512;5.5;8.0;4.0;5.25;0.5;1.0;0.0;0.5;0.0;0.25;0.5;0.25;0.25;0.75;0.0;0.25;-0.251953;0.033203;0.969238;-0.77;-0.98;0.84;303.0;-0.283884;-0.079891
4.16;10.25;6.75;8.75;4.25;0.5;0.0;0.25;0.0;2.0;0.0;0.5;0.25;0.0;1.5;0.25;0.0;-0.230469;0.02832;0.986816;-0.63;0.49;0.63;406.0;-0.252309;0.023;5.25;8.0;4.0;5.25;0.5;1.25;0.0;0.5;0.25;0.25;0.5;0.25;0.0;0.75;0.0;0.5;-0.250488;0.032715;0.96875;-0.7;-0.91;0.77;306.0;-0.27555;-0.077564
