Time;left pressure 1[N/cm²];left pressure 2[N/cm²];left pressure 3[N/cm²];left pressure 4[N/cm²];left pressure 5[N/cm²];left pressure 6[N/cm²];left pressure 7[N/cm²];left pressure 8[N/cm²];left pressure 9[N/cm²];left pressure 10[N/cm²];left pressure 11[N/cm²];left pressure 12[N/cm²];left pressure 13[N/cm²];left pressure 14[N/cm²];left pressure 15[N/cm²];left pressure 16[N/cm²];left acceleration X[g];left acceleration Y[g];left acceleration Z[g];left angular X[dps];left angular Y[dps];left angular Z[dps];left total force[N];left center of pressure X[-0.5...+0.5];left center of pressure Y[-0.5...+0.5];right pressure 1[N/cm²];right pressure 2[N/cm²];right pressure 3[N/cm²];right pressure 4[N/cm²];right pressure 5[N/cm²];right pressure 6[N/cm²];right pressure 7[N/cm²];right pressure 8[N/cm²];right pressure 9[N/cm²];right pressure 10[N/cm²];right pressure 11[N/cm²];right pressure 12[N/cm²];right pressure 13[N/cm²];right pressure 14[N/cm²];right pressure 15[N/cm²];right pressure 16[N/cm²];right acceleration X[g];right acceleration Y[g];right acceleration Z[g];right angular X[dps];right angular Y[dps];right angular Z[dps];right total force[N];right center of pressure X[-0.5...+0.5];right center of pressure Y[-0.5...+0.5]
0.0;4.75;5.5;4.5;5.75;0.5;1.25;0.0;0.5;0.5;1.5;2.25;1.75;1.25;2.5;0.5;1.5;-0.206055;0.026367;0.969727;-2.03;1.75;-0.42;350.0;-0.128627;-0.082185;5.75;5.0;7.0;4.75;2.5;1.5;0.0;1.0;0.5;1.5;2.75;3.0;1.5;4.5;0.75;1.75;-0.240723;0.018555;0.991699;-0.49;-1.68;0.21;446.0;-0.093789;-0.061364
0.01;4.75;5.25;4.5;6.0;0.5;1.25;0.0;0.5;0.5;1.25;2.25;2.25;1.0;1.75;0.5;0.75;-0.209473;0.030762;0.979004;-2.1;1.75;-0.28;340.0;-0.143479;-0.086881;5.75;5.0;7.0;4.75;2.5;1.5;0.0;1.0;0.5;1.5;2.75;3.0;1.5;4.5;0.75;1.75;-0.240723;0.018555;0.991699;-0.49;-1.68;0.21;446.0;-0.093789;-0.061364
0.02;4.75;5.5;4.5;5.75;0.5;1.25;0.0;0.5;0.5;1.25;2.25;2.5;1.0;1.75;0.5;0.75;-0.210449;0.032715;0.974609;-1.89;1.68;-0.35;342.0;-0.14145;-0.087916;5.75;5.0;6.5;4.0;2.5;1.5;0.0;0.75;0.25;1.5;2.75;3.0;1.5;4.25;0.75;1.75;-0.241211;0.018066;0.990234;-0.42;-1.75;0.28;423.0;-0.093745;-0.060998
0.03;4.75;5.5;4.25;5.25;0.5;1.0;0.0;0.5;0.5;1.0;2.0;2.5;1.0;2.0;0.5;0.75;-0.205566;0.027344;0.976074;-1.82;1.54;-0.21;328.0;-0.140225;-0.084857;5.75;4.75;6.75;4.25;2.5;1.25;0.0;0.75;0.25;1.25;2.75;3.25;1.5;4.0;0.75;1.75;-0.240234;0.019043;0.98877;-0.42;-1.82;0.35;422.0;-0.09673;-0.06257
0.04;4.75;5.5;4.25;5.75;0.5;1.0;0.0;0.5;0.25;1.0;2.25;2.25;1.0;1.75;0.5;0.75;-0.206543;0.029297;0.983887;-2.03;1.82;-0.28;328.0;-0.150109;-0.091035;5.75;4.5;6.75;4.25;2.5;1.25;0.0;0.75;0.25;1.25;2.75;3.0;1.25;4.0;0.5;1.75;-0.240723;0.016602;0.989258;-0.49;-1.75;0.21;412.0;-0.101516;-0.058275
0.05;4.75;5.5;4.5;5.75;0.5;1.25;0.0;0.25;0.25;1.0;2.0;2.5;0.75;1.5;0.5;0.75;-0.208008;0.030762;0.976562;-1.96;1.68;-0.21;326.0;-0.158646;-0.088241;5.75;5.0;6.5;4.25;2.5;1.0;0.0;0.75;0.0;1.25;2.75;3.0;1.5;4.25;0.5;1.75;-0.240234;0.016602;0.98877;-0.49;-1.75;0.28;412.0;-0.102354;-0.062606
0.06;4.75;5.5;4.25;5.75;0.5;1.25;0.0;0.25;0.5;1.0;2.0;2.5;1.0;1.75;0.25;0.75;-0.207031;0.028809;0.979492;-2.03;1.68;-0.21;328.0;-0.152259;-0.086923;5.75;4.5;6.75;4.75;2.25;1.0;0.0;0.75;0.0;1.25;2.75;3.0;1.0;4.5;0.5;1.75;-0.240234;0.019043;0.992188;-0.42;-1.82;0.35;411.0;-0.102456;-0.057954
0.07;5.25;5.5;4.25;5.75;0.5;1.25;0.0;0.25;0.25;0.75;2.25;2.25;1.25;2.25;0.5;0.75;-0.200684;0.029785;0.974609;-2.03;1.75;-0.35;336.0;-0.149418;-0.086208;5.75;4.5;6.75;4.25;2.25;1.25;0.0;0.75;0.25;1.5;2.75;3.0;1.25;4.25;0.25;1.5;-0.238281;0.018066;0.985352;-0.56;-1.68;0.28;410.0;-0.101316;-0.056075
0.08;4.75;5.5;4.5;5.75;0.5;1.25;0.0;0.25;0.25;1.0;2.0;2.0;1.25;1.75;0.5;0.75;-0.209473;0.030273;0.975586;-2.03;1.75;-0.28;327.0;-0.156503;-0.088115;5.75;4.5;7.0;4.25;2.5;1.25;0.0;1.0;0.25;1.5;3.0;2.25;1.25;4.25;0.25;1.75;-0.239746;0.016113;0.984863;-0.42;-1.68;0.28;415.0;-0.10409;-0.054054
0.09;4.75;5.25;4.5;5.75;0.5;1.25;0.0;0.25;0.25;1.25;2.0;2.0;1.0;2.25;0.25;0.75;-0.211914;0.025391;0.975098;-2.03;1.68;-0.28;327.0;-0.150794;-0.08046;5.5;4.5;7.0;4.25;2.5;1.25;0.0;1.0;0.25;1.5;3.25;2.25;1.25;4.25;0.25;1.75;-0.239258;0.02002;0.988281;-0.49;-1.75;0.28;415.0;-0.100146;-0.055459
0.1;4.5;5.25;4.25;5.25;0.25;1.25;0.0;0.5;0.25;1.0;2.0;2.25;1.0;2.25;0.5;1.0;-0.208984;0.025391;0.979492;-1.96;1.68;-0.35;321.0;-0.137471;-0.089839;5.5;4.5;6.75;4.25;2.5;1.25;0.0;1.0;0.25;1.25;3.25;3.0;1.25;4.25;0.25;1.75;-0.23877;0.019531;0.98584;-0.42;-1.68;0.14;418.0;-0.095318;-0.061717
0.11;4.75;5.25;4.25;5.75;0.25;1.25;0.0;0.5;0.25;1.0;2.5;1.75;1.0;2.0;0.5;1.0;-0.212402;0.027344;0.974609;-1.89;1.54;-0.28;327.0;-0.145445;-0.089373;5.75;4.25;6.75;4.25;2.5;1.25;0.0;0.75;0.25;1.5;3.0;3.25;1.5;4.25;0.5;1.75;-0.240723;0.02002;0.988281;-0.42;-1.68;0.28;422.0;-0.089728;-0.059655
0.12;4.25;5.25;4.5;5.75;0.5;1.25;0.0;0.5;0.5;1.25;2.5;1.75;1.25;2.25;0.25;1.0;-0.212402;0.025879;0.970215;-1.96;1.61;-0.21;335.0;-0.134123;-0.085733;5.5;4.5;7.0;4.25;2.5;1.0;0.0;0.75;0.25;1.5;3.0;3.25;1.5;4.25;0.0;1.75;-0.23877;0.01709;0.986328;-0.49;-1.61;0.21;416.0;-0.096644;-0.058616
0.13;4.5;5.5;4.25;5.25;0.5;1.25;0.0;0.5;0.5;1.25;2.25;2.0;1.25;2.25;0.25;1.0;-0.211426;0.026855;0.977051;-2.03;1.68;-0.21;331.0;-0.134659;-0.085374;5.5;4.5;6.75;4.25;2.5;1.0;0.0;0.75;0.25;1.5;3.0;3.25;1.5;4.5;0.0;1.75;-0.241211;0.018066;0.987305;-0.49;-1.68;0.21;416.0;-0.0929;-0.058398
0.14;4.25;5.5;4.5;5.25;0.5;1.0;0.0;0.5;0.5;1.0;2.25;2.0;0.75;2.0;0.5;1.0;-0.208984;0.027344;0.973145;-1.96;1.68;-0.28;322.0;-0.139792;-0.081696;5.5;4.5;6.5;4.25;2.5;1.0;0.0;0.75;0.25;1.5;3.0;3.0;1.25;4.25;0.25;1.75;-0.237793;0.01416;0.986328;-0.49;-1.75;0.28;408.0;-0.09447;-0.05712
0.15;4.5;5.5;4.5;5.75;0.5;0.75;0.0;0.5;0.25;1.0;2.25;1.75;0.75;2.0;0.5;1.0;-0.212402;0.026855;0.977051;-2.03;1.68;-0.35;322.0;-0.151208;-0.082856;5.5;4.5;6.5;4.25;2.0;1.0;0.0;0.75;0.25;1.5;3.0;3.0;1.25;4.25;0.0;1.75;-0.23877;0.023438;0.990234;-0.49;-1.68;0.35;400.0;-0.097347;-0.05858
0.16;4.25;5.5;4.5;5.75;0.5;1.0;0.0;0.25;0.25;1.0;2.25;2.25;1.25;2.0;0.5;0.75;-0.209961;0.029785;0.975586;-1.96;1.75;-0.35;326.0;-0.142895;-0.089863;5.5;4.25;6.75;4.25;2.25;1.0;0.0;0.75;0.5;1.5;3.0;3.0;1.25;4.5;0.25;1.75;-0.241211;0.021484;0.987305;-0.49;-1.61;0.21;412.0;-0.088211;-0.052459
0.17;4.25;5.5;4.25;5.25;0.5;1.0;0.0;0.25;0.25;1.25;2.5;2.0;1.0;2.25;0.5;0.75;-0.208496;0.026855;0.976074;-2.03;1.75;-0.35;321.0;-0.134547;-0.082098;5.5;4.5;6.75;4.25;2.5;1.25;0.0;0.75;0.5;1.5;3.0;3.25;1.5;4.5;0.25;1.75;-0.237793;0.020508;0.992188;-0.49;-1.68;0.28;424.0;-0.087484;-0.057355
0.18;5.0;5.5;4.25;5.25;0.5;1.0;0.0;0.25;0.5;1.25;2.5;2.0;1.0;2.25;0.5;1.0;-0.212402;0.022461;0.985352;-1.89;1.68;-0.28;333.0;-0.13495;-0.075089;5.5;4.5;6.75;4.0;2.5;1.25;0.0;0.75;0.5;1.5;3.0;3.25;1.25;4.5;0.25;1.75;-0.241211;0.020508;0.987305;-0.49;-1.75;0.28;419.0;-0.087503;-0.05417
0.19;4.75;5.25;4.25;5.25;0.5;1.0;0.0;0.25;0.25;1.0;2.25;2.0;1.0;2.25;0.5;1.0;-0.211426;0.026367;0.975586;-1.96;1.61;-0.28;320.0;-0.140763;-0.080296;5.5;4.5;6.75;4.0;2.5;1.25;0.0;0.75;0.25;1.5;3.0;3.0;1.25;4.25;0.5;2.0;-0.242676;0.02002;0.981934;-0.49;-1.68;0.28;415.0;-0.090054;-0.05744
0.2;4.75;5.25;4.25;5.25;0.25;1.25;0.0;0.25;0.25;1.25;2.25;2.25;0.75;2.25;0.5;1.0;-0.208496;0.02832;0.979492;-1.89;1.75;-0.28;323.0;-0.137147;-0.081161;5.5;4.5;7.0;4.0;2.5;1.25;0.0;0.5;0.25;1.25;3.0;3.0;1.5;4.25;0.25;1.75;-0.239746;0.015625;0.987305;-0.42;-1.75;0.28;410.0;-0.097384;-0.055235
0.21;4.75;5.25;4.5;5.25;0.25;1.0;0.0;0.25;0.25;1.25;2.25;2.25;1.0;2.25;0.5;1.25;-0.213379;0.026855;0.975586;-1.89;1.68;-0.28;326.0;-0.13401;-0.081599;5.5;4.25;6.75;4.25;2.5;1.25;0.0;0.5;0.25;1.5;3.25;3.25;1.5;4.5;0.25;1.75;-0.240723;0.013184;0.989746;-0.49;-1.75;0.35;417.0;-0.087083;-0.056673
0.22;4.75;5.25;4.5;5.0;0.25;1.0;0.0;0.25;0.25;1.5;2.25;2.0;1.0;2.25;0.25;1.0;-0.210449;0.029297;0.974609;-1.96;1.61;-0.21;319.0;-0.139035;-0.076428;5.5;4.25;6.75;4.0;2.5;1.25;0.0;1.0;0.25;1.5;3.0;3.0;1.5;4.5;0.5;1.75;-0.23877;0.016602;0.989258;-0.42;-1.82;0.28;420.0;-0.085125;-0.059939
0.23;4.75;5.5;4.25;5.25;0.25;1.25;0.0;0.5;0.5;1.25;2.25;2.25;1.5;2.0;0.25;0.75;-0.212402;0.029297;0.974121;-1.89;1.75;-0.28;332.0;-0.137652;-0.089944;5.0;4.5;6.75;4.25;2.5;1.0;0.0;0.75;0.25;1.5;2.75;3.0;1.5;4.5;0.5;1.75;-0.237305;0.017578;0.990234;-0.42;-1.61;0.28;410.0;-0.08654;-0.058921
0.24;4.5;5.25;4.5;5.25;0.5;1.0;0.0;0.25;0.25;1.0;2.25;2.25;1.5;2.0;0.25;1.0;-0.202148;0.032227;0.973633;-1.82;1.75;-0.35;322.0;-0.140836;-0.088929;5.5;4.5;6.5;4.0;2.25;1.0;0.0;0.75;0.5;1.5;3.0;3.0;1.0;4.5;0.75;2.0;-0.241699;0.02002;0.987793;-0.35;-1.68;0.28;413.0;-0.081078;-0.051997
0.25;4.75;5.25;4.5;6.25;0.5;1.25;0.0;0.25;0.25;1.5;2.25;2.25;1.25;2.0;0.5;1.0;-0.20752;0.03125;0.974609;-1.89;1.61;-0.14;344.0;-0.139575;-0.088523;5.5;4.5;6.75;4.0;2.5;1.25;0.0;0.75;0.5;1.25;2.75;3.0;1.5;4.5;0.5;1.75;-0.23877;0.018555;0.984863;-0.35;-1.75;0.21;416.0;-0.088931;-0.055287
0.26;4.5;5.25;4.5;6.0;0.5;1.0;0.0;0.25;0.25;1.0;2.25;2.5;1.25;2.0;0.5;1.0;-0.210449;0.029297;0.977539;-1.96;1.68;-0.28;333.0;-0.139382;-0.091443;5.5;4.5;6.75;4.25;1.5;1.25;0.0;0.75;0.25;1.5;3.0;3.0;1.75;5.0;0.5;1.5;-0.23877;0.021973;0.994141;-0.35;-1.61;0.35;415.0;-0.082931;-0.060613
0.27;4.5;5.25;4.0;5.25;0.5;1.25;0.0;0.25;0.25;1.25;2.25;2.25;1.0;2.25;0.5;1.0;-0.208008;0.02832;0.976074;-1.96;1.75;-0.21;322.0;-0.131735;-0.085508;5.5;4.5;6.75;4.25;2.0;1.25;0.0;0.75;0.5;1.5;2.75;3.0;1.5;5.0;0.75;1.75;-0.23877;0.021973;0.982422;-0.42;-1.54;0.14;423.0;-0.079585;-0.05499
0.28;4.5;5.25;4.0;5.25;0.5;0.75;0.0;0.25;0.25;1.5;2.25;2.25;0.75;2.0;0.25;1.0;-0.206543;0.02832;0.984375;-1.89;1.61;-0.28;312.0;-0.138618;-0.080214;5.5;4.5;6.75;4.25;2.5;1.25;0.0;0.75;0.5;1.5;3.25;3.0;1.25;5.0;0.75;2.0;-0.236816;0.016602;0.987793;-0.35;-1.68;0.28;433.0;-0.076335;-0.053028
0.29;4.5;5.25;4.0;5.25;0.5;0.75;0.0;0.25;0.25;1.25;2.25;2.25;1.25;2.0;0.25;1.0;-0.208008;0.030273;0.980957;-2.1;1.61;-0.21;314.0;-0.137506;-0.086667;5.75;4.5;6.75;4.0;2.0;1.25;0.0;0.75;0.5;1.5;2.75;3.25;1.25;5.0;0.75;2.0;-0.234375;0.025391;0.995117;-0.28;-1.54;0.21;425.0;-0.078289;-0.053143
0.3;4.25;5.0;4.25;5.0;0.5;1.0;0.0;0.5;0.25;1.25;2.25;2.0;1.0;2.0;0.5;1.0;-0.209961;0.029785;0.983398;-1.96;1.75;-0.42;314.0;-0.13216;-0.085856;5.5;4.25;6.5;3.5;2.0;1.5;0.0;1.0;0.5;1.5;3.25;3.0;1.5;5.0;0.75;1.75;-0.23877;0.019531;0.988281;-0.42;-1.68;0.35;421.0;-0.068518;-0.057226
0.31;4.25;5.0;4.25;5.0;0.5;0.75;0.0;0.5;0.5;1.5;2.25;1.75;1.0;2.0;0.5;1.0;-0.210449;0.026367;0.978027;-1.96;1.68;-0.28;314.0;-0.127716;-0.077486;5.5;4.5;6.75;4.0;2.25;1.5;0.0;1.0;0.5;1.5;3.0;3.0;1.5;5.0;0.5;2.0;-0.234863;0.015625;0.983398;-0.49;-1.54;0.28;431.0;-0.078147;-0.058538
0.32;4.25;5.0;4.25;5.0;0.5;0.75;0.0;0.5;0.5;1.75;2.25;2.0;1.25;2.0;0.5;1.0;-0.208008;0.027344;0.972656;-2.03;1.75;-0.28;322.0;-0.11998;-0.080719;5.25;4.25;6.0;4.0;2.25;1.5;0.0;0.75;0.5;1.5;3.25;3.0;1.5;4.75;0.25;2.0;-0.244629;0.01416;0.989258;-0.35;-1.61;0.14;412.0;-0.074716;-0.060349
0.33;4.5;5.0;4.25;5.25;0.5;1.0;0.0;0.5;0.25;1.75;2.25;2.25;1.25;2.0;0.5;1.0;-0.212402;0.029785;0.980469;-1.82;1.54;-0.14;329.0;-0.12498;-0.087272;5.5;4.25;6.5;4.0;2.25;1.5;0.0;0.75;0.25;1.25;3.25;3.25;1.5;4.75;0.5;1.75;-0.241699;0.023926;0.980957;-0.42;-1.61;0.28;418.0;-0.080446;-0.061495
0.34;4.5;5.25;4.25;5.25;0.5;1.0;0.0;0.5;0.0;1.5;2.5;2.25;1.25;2.25;0.5;1.0;-0.213867;0.030762;0.974609;-2.1;1.75;-0.28;330.0;-0.127424;-0.091115;5.75;4.0;6.5;4.0;2.25;1.5;0.0;0.75;0.25;1.5;3.0;3.25;1.5;5.0;0.75;1.75;-0.242188;0.020996;0.992188;-0.42;-1.68;0.35;423.0;-0.074994;-0.0577
0.35;4.5;5.0;4.5;5.25;0.5;0.75;0.0;0.5;0.25;1.5;2.25;1.75;1.0;2.25;0.75;1.0;-0.213379;0.032227;0.974609;-1.89;1.75;-0.28;324.0;-0.12844;-0.077724;5.5;4.25;6.75;4.0;2.5;1.25;0.0;1.0;0.5;1.75;3.0;3.25;1.25;4.75;0.75;1.75;-0.238281;0.021484;0.986816;-0.42;-1.68;0.35;431.0;-0.074581;-0.055038
0.36;4.5;5.25;4.5;5.25;0.5;1.0;0.0;0.5;0.5;1.5;2.25;2.0;1.0;2.25;0.75;0.75;-0.20752;0.026855;0.972656;-1.96;1.75;-0.21;333.0;-0.126176;-0.077234;5.5;4.25;6.75;4.0;2.25;1.0;0.0;1.0;0.5;1.5;3.25;2.75;1.0;5.0;0.75;1.75;-0.244141;0.01709;0.987793;-0.42;-1.61;0.28;420.0;-0.076167;-0.049204
0.37;4.75;5.0;4.5;5.0;0.5;1.0;0.0;0.5;0.5;1.5;2.0;2.25;1.0;2.25;0.75;1.0;-0.208008;0.027344;0.978027;-1.96;1.68;-0.28;332.0;-0.123115;-0.076345;5.5;4.5;6.75;4.0;2.5;1.25;0.0;1.0;0.5;1.5;3.0;3.0;1.25;4.75;0.25;1.75;-0.239258;0.02002;0.986328;-0.42;-1.68;0.28;423.0;-0.086153;-0.054535
0.38;4.25;5.25;4.5;5.25;0.5;1.0;0.0;0.5;0.5;1.5;2.5;2.25;1.0;2.25;0.75;1.0;-0.210449;0.02832;0.971191;-1.96;1.68;-0.28;337.0;-0.116743;-0.08162;5.5;4.5;6.5;4.0;2.5;1.25;0.0;0.75;0.5;1.5;3.25;3.25;1.5;4.75;0.25;2.0;-0.242188;0.01709;0.983398;-0.49;-1.68;0.14;425.0;-0.079152;-0.057239
0.39;4.75;5.5;4.5;5.25;0.5;1.25;0.0;0.5;0.5;1.25;2.25;2.25;1.0;2.0;0.5;1.0;-0.20459;0.030273;0.97168;-2.17;1.82;-0.28;338.0;-0.136296;-0.083303;5.5;4.25;6.5;4.0;2.5;1.25;0.0;1.0;0.5;1.5;3.25;3.0;1.5;5.0;0.5;1.75;-0.239258;0.022949;0.98291;-0.35;-1.68;0.21;427.0;-0.07446;-0.056327
0.4;4.25;5.0;4.25;5.25;0.5;1.0;0.0;0.5;0.5;1.25;2.0;2.25;1.0;2.25;0.5;0.75;-0.21582;0.030273;0.978516;-2.03;1.75;-0.35;320.0;-0.128114;-0.082133;5.5;4.5;6.5;4.25;2.5;1.25;0.0;1.0;0.25;1.5;3.0;3.25;1.5;5.0;0.25;1.75;-0.241699;0.018066;0.98584;-0.35;-1.54;0.28;426.0;-0.083289;-0.061499
0.41;4.25;5.0;4.25;5.25;0.5;1.25;0.0;0.25;0.5;1.0;2.0;2.5;1.0;2.0;0.5;1.0;-0.211914;0.028809;0.983887;-2.03;1.75;-0.28;319.0;-0.131452;-0.085743;5.5;4.5;6.5;4.0;2.5;1.25;0.0;1.0;0.25;1.5;3.25;3.25;1.5;5.0;0.25;1.75;-0.235352;0.024902;0.987793;-0.35;-1.68;0.28;426.0;-0.080075;-0.060782
0.42;4.0;5.0;4.25;5.0;0.5;1.0;0.0;0.25;0.5;1.25;2.25;2.25;1.25;2.0;0.5;1.0;-0.209961;0.028809;0.984863;-1.96;1.75;-0.35;315.0;-0.122429;-0.08436;5.5;4.25;6.5;4.0;2.25;1.5;0.0;0.75;0.5;1.75;3.25;3.25;1.5;5.0;0.5;1.75;-0.240723;0.020508;0.990723;-0.42;-1.68;0.28;428.0;-0.071528;-0.05622
0.43;4.25;4.75;4.25;5.0;0.5;1.0;0.0;0.5;0.5;1.25;2.25;2.0;1.25;2.25;0.5;1.0;-0.208496;0.026367;0.978516;-1.89;1.68;-0.28;319.0;-0.120435;-0.082375;5.5;4.5;6.5;4.0;2.25;0.75;0.0;1.0;0.25;1.5;3.25;3.25;1.5;5.0;0.25;1.75;-0.240234;0.018555;0.990234;-0.42;-1.75;0.28;418.0;-0.078839;-0.058822
0.44;4.5;5.0;4.25;5.25;0.5;1.0;0.0;0.5;0.5;1.0;2.0;2.25;1.5;2.5;0.5;0.75;-0.210449;0.028809;0.968262;-1.89;1.54;-0.21;327.0;-0.125758;-0.08512;5.5;4.25;6.5;4.0;2.25;0.75;0.0;0.75;0.0;1.5;3.0;3.0;1.5;4.75;0.5;2.0;-0.231934;0.01709;0.985352;-0.42;-1.68;0.28;405.0;-0.082041;-0.058114
0.45;4.5;5.25;4.25;5.25;0.5;1.0;0.0;0.5;0.5;1.25;2.25;2.25;1.25;2.5;0.5;0.75;-0.208984;0.032715;0.973633;-2.03;1.61;-0.35;332.0;-0.124063;-0.082304;5.5;4.25;6.0;4.0;2.25;1.0;0.0;0.75;0.25;1.5;3.0;3.25;1.25;4.75;0.75;1.75;-0.238281;0.016113;0.986328;-0.42;-1.61;0.28;407.0;-0.075048;-0.057592
0.46;4.5;5.25;4.25;5.25;0.5;1.25;0.0;0.5;0.5;1.0;2.25;1.75;1.0;2.25;0.5;1.0;-0.209961;0.020996;0.978027;-1.89;1.54;-0.28;324.0;-0.13609;-0.081748;5.5;4.0;6.0;3.75;2.25;1.25;0.0;0.75;0.25;1.5;3.0;3.25;1.25;4.75;0.25;1.75;-0.240234;0.015625;0.991699;-0.42;-1.61;0.28;400.0;-0.0785;-0.056961
0.47;4.25;5.25;4.25;5.25;0.5;1.25;0.0;0.5;0.25;1.25;2.5;2.0;1.0;2.25;0.5;1.25;-0.208496;0.030762;0.977051;-1.89;1.54;-0.21;328.0;-0.127182;-0.088611;5.5;4.25;6.0;3.75;2.25;1.0;0.0;0.75;0.25;1.5;3.25;3.25;1.5;5.0;0.25;1.75;-0.239258;0.02002;0.987305;-0.42;-1.68;0.28;406.0;-0.074064;-0.057442
0.48;4.75;5.5;4.5;5.25;0.5;1.0;0.0;0.5;0.25;1.5;2.5;2.0;1.25;1.75;0.5;1.0;-0.20752;0.027832;0.979004;-1.89;1.61;-0.21;334.0;-0.138479;-0.086811;5.5;4.25;6.5;4.0;2.25;1.0;0.0;0.75;0.25;1.5;3.25;3.0;1.5;5.0;0.5;1.75;-0.240234;0.019531;0.995117;-0.49;-1.75;0.28;414.0;-0.076795;-0.055215
0.49;4.75;5.25;4.5;5.25;0.5;0.75;0.0;0.5;0.25;1.25;2.25;2.5;1.25;2.0;0.5;1.0;-0.212891;0.030273;0.976074;-1.96;1.68;-0.28;331.0;-0.13322;-0.087307;5.5;4.25;6.5;4.0;2.25;1.25;0.0;0.75;0.5;1.5;3.25;3.0;1.5;5.0;0.5;2.0;-0.242188;0.018555;0.984375;-0.49;-1.75;0.35;422.0;-0.073289;-0.054896
0.5;4.25;5.0;4.5;5.25;0.5;1.25;0.0;0.5;0.5;1.75;2.25;2.0;1.25;2.0;0.5;1.0;-0.206055;0.026367;0.982422;-1.96;1.68;-0.28;333.0;-0.12311;-0.083626;5.5;4.25;6.5;3.75;2.25;1.25;0.0;0.5;0.25;1.25;3.25;3.0;1.5;5.0;0.5;1.75;-0.239746;0.023438;0.985352;-0.42;-1.75;0.28;408.0;-0.078505;-0.053147
0.51;4.25;5.0;4.25;5.25;0.5;1.25;0.0;0.5;0.25;1.0;2.5;2.25;0.75;2.0;0.5;1.0;-0.213379;0.029297;0.981445;-1.89;1.68;-0.35;320.0;-0.132996;-0.089288;5.25;4.25;6.5;4.0;2.5;1.0;0.0;0.5;0.0;1.5;3.25;3.25;1.5;5.0;0.5;2.0;-0.239746;0.020996;0.989258;-0.49;-1.68;0.28;412.0;-0.07504;-0.057372
0.52;4.25;5.25;4.5;5.75;0.5;1.25;0.0;0.5;0.25;1.25;2.5;2.0;1.5;1.75;0.5;1.0;-0.215332;0.029785;0.980469;-1.96;1.75;-0.21;335.0;-0.135974;-0.096667;5.25;4.25;6.5;4.25;2.5;1.0;0.0;0.75;0.25;1.5;3.25;3.0;1.25;4.75;0.5;1.75;-0.237305;0.019531;0.976562;-0.42;-1.75;0.28;413.0;-0.080286;-0.055664
0.53;4.5;5.0;4.25;5.25;0.5;1.25;0.0;0.5;0.5;1.25;2.5;2.0;1.0;2.0;0.5;1.25;-0.214844;0.025879;0.972168;-1.89;1.61;-0.28;329.0;-0.127006;-0.084628;5.5;4.25;6.75;4.0;2.5;1.5;0.0;1.0;0.25;1.5;3.25;3.25;1.5;4.75;0.0;1.75;-0.241699;0.019531;0.984863;-0.49;-1.75;0.28;424.0;-0.085424;-0.061646
0.54;4.25;5.0;4.25;5.0;0.5;1.0;0.0;0.5;0.5;1.5;2.25;2.0;1.25;2.5;0.5;1.25;-0.209961;0.024902;0.979004;-1.89;1.68;-0.35;327.0;-0.114188;-0.081072;5.5;4.0;6.0;3.75;2.25;1.5;0.0;1.0;0.25;1.5;3.25;3.0;1.25;5.0;0.25;1.75;-0.242188;0.018555;0.992188;-0.49;-1.82;0.35;408.0;-0.075714;-0.059133
0.55;4.0;5.0;4.25;5.75;0.5;1.25;0.0;0.5;0.5;1.75;2.0;2.0;1.25;2.0;0.75;1.25;-0.206055;0.027832;0.97168;-1.82;1.68;-0.14;334.0;-0.119038;-0.089552;5.5;4.5;6.5;3.75;2.5;1.0;0.0;1.0;0.25;1.5;3.25;3.25;1.25;5.0;0.5;2.0;-0.240723;0.019531;0.986816;-0.42;-1.82;0.35;422.0;-0.07509;-0.057242
0.56;4.25;5.0;4.25;5.75;0.5;1.0;0.0;0.5;0.5;1.75;2.5;2.25;1.25;2.0;0.5;1.0;-0.208496;0.025391;0.97998;-1.89;1.61;-0.21;338.0;-0.119076;-0.087728;5.5;4.5;6.5;4.0;2.5;1.25;0.0;1.0;0.25;1.5;3.25;3.25;1.5;5.0;0.75;1.75;-0.243164;0.018066;0.986328;-0.42;-1.82;0.35;431.0;-0.074127;-0.061043
0.57;4.25;5.0;4.25;5.25;0.5;1.0;0.0;0.5;0.5;1.75;2.75;2.0;1.25;1.75;0.5;1.0;-0.206543;0.027344;0.974609;-2.1;1.68;-0.21;330.0;-0.119588;-0.085724;5.25;4.5;6.75;4.0;2.25;1.25;0.0;0.75;0.0;1.5;2.75;3.25;1.25;5.0;0.5;1.75;-0.235352;0.016113;0.984863;-0.56;-1.61;0.28;412.0;-0.084389;-0.058576
0.58;4.5;5.25;4.25;5.25;0.5;1.0;0.0;0.5;0.25;1.75;2.25;2.25;1.25;2.25;0.5;1.0;-0.20752;0.02832;0.973145;-1.89;1.68;-0.14;333.0;-0.123562;-0.086125;5.25;4.0;6.75;3.75;2.5;1.25;0.0;0.75;0.0;1.5;2.75;3.0;1.5;5.0;0.25;1.75;-0.239746;0.021973;0.987305;-0.49;-1.61;0.28;404.0;-0.083251;-0.055865
0.59;4.25;5.0;4.25;5.25;0.5;1.0;0.0;0.5;0.25;1.5;2.25;2.25;1.25;2.25;0.5;0.75;-0.211426;0.02832;0.983398;-1.89;1.61;-0.28;325.0;-0.124196;-0.087361;5.5;4.25;6.5;3.75;2.0;1.25;0.0;0.75;0.25;1.25;3.25;3.0;1.5;5.0;0.25;1.75;-0.238281;0.016602;0.989746;-0.35;-1.54;0.28;406.0;-0.080715;-0.056902
0.6;4.5;5.0;4.25;5.0;0.5;1.25;0.0;0.5;0.5;1.75;2.25;2.5;1.25;2.25;0.5;0.75;-0.208008;0.029297;0.977539;-1.96;1.68;-0.28;336.0;-0.116092;-0.083167;5.25;4.25;6.5;3.75;2.0;1.0;0.0;0.75;0.0;1.75;3.25;3.25;1.0;5.0;0.25;2.0;-0.240723;0.015137;0.990234;-0.49;-1.68;0.28;403.0;-0.076062;-0.055716
0.61;4.75;5.0;4.5;5.0;0.5;1.25;0.0;0.5;0.5;1.0;2.25;2.5;1.25;2.0;0.5;1.25;-0.209473;0.029785;0.975098;-2.1;1.75;-0.28;334.0;-0.127389;-0.087212;5.25;4.25;6.5;4.0;2.5;1.0;0.0;0.75;0.0;1.5;3.25;3.25;1.5;5.0;0.75;2.0;-0.240723;0.012207;0.98584;-0.49;-1.54;0.28;418.0;-0.071431;-0.060572
0.62;4.75;5.25;4.5;5.25;0.5;1.25;0.0;0.5;0.5;1.0;2.0;2.5;1.25;2.0;0.25;1.25;-0.208496;0.027832;0.977539;-2.03;1.75;-0.28;334.0;-0.13769;-0.088703;5.5;4.25;6.5;4.0;2.0;1.25;0.0;0.75;0.0;1.5;3.0;3.25;1.5;5.0;0.25;1.75;-0.239258;0.01709;0.990723;-0.49;-1.61;0.28;409.0;-0.082857;-0.061077
0.63;4.5;5.25;4.5;5.75;0.5;1.25;0.0;0.5;0.5;1.0;2.0;2.0;1.25;2.5;0.25;1.5;-0.208496;0.026367;0.972656;-1.96;1.75;-0.21;337.0;-0.134547;-0.086741;5.25;4.25;6.5;3.75;2.5;1.25;0.0;1.0;0.25;1.5;3.0;3.25;1.5;5.0;0.25;1.75;-0.240723;0.02002;0.982422;-0.42;-1.61;0.28;416.0;-0.076758;-0.059825
0.64;4.25;5.25;4.5;5.25;0.5;1.25;0.0;0.5;0.5;1.75;2.25;2.0;1.0;2.25;0.5;1.25;-0.203125;0.026367;0.974609;-1.89;1.68;-0.21;336.0;-0.121659;-0.081031;5.25;4.25;6.5;3.75;2.0;1.0;0.0;0.75;0.5;1.5;3.25;3.25;1.5;5.0;0.0;2.0;-0.23877;0.016602;0.990723;-0.42;-1.54;0.28;408.0;-0.073261;-0.055325
0.65;4.25;5.25;4.5;5.25;0.5;1.25;0.0;0.5;0.5;1.75;2.25;2.0;1.0;2.0;0.5;1.25;-0.215332;0.025391;0.978516;-1.96;1.68;-0.28;334.0;-0.125064;-0.082679;5.5;4.25;6.75;3.75;2.25;1.0;0.0;1.0;0.5;1.5;3.25;3.25;1.5;5.0;0.0;1.75;-0.238281;0.016113;0.980957;-0.49;-1.47;0.35;419.0;-0.077773;-0.054801
0.66;4.75;5.0;4.5;5.25;0.5;1.0;0.0;0.25;0.25;1.75;2.25;2.0;1.0;2.25;0.25;1.0;-0.211426;0.025879;0.969727;-1.96;1.82;-0.14;325.0;-0.135171;-0.07476;5.5;4.25;6.0;3.75;2.0;1.0;0.0;1.0;0.5;1.5;2.75;3.25;1.25;5.0;0.5;1.75;-0.242188;0.024414;0.984863;-0.49;-1.54;0.28;406.0;-0.072523;-0.055954
0.67;4.75;5.25;4.5;5.25;0.5;1.0;0.0;0.5;0.0;1.25;2.25;2.0;1.25;2.5;0.25;0.75;-0.210938;0.029297;0.976562;-1.82;1.75;-0.28;326.0;-0.142115;-0.084753;5.5;4.25;6.0;4.0;2.0;1.0;0.0;1.0;0.5;1.5;3.0;3.25;1.25;5.0;0.5;1.75;-0.242188;0.018066;0.986328;-0.42;-1.61;0.35;411.0;-0.072057;-0.057462
0.68;4.5;5.25;4.5;5.25;0.5;1.25;0.0;0.5;0.25;1.75;2.5;2.25;1.25;2.25;0.5;1.0;-0.207031;0.024902;0.979004;-1.89;1.61;-0.21;342.0;-0.122273;-0.086408;5.5;4.25;6.5;3.75;2.25;1.25;0.0;0.75;0.5;1.5;3.0;3.25;1.5;4.75;0.5;1.75;-0.239746;0.017578;0.984375;-0.49;-1.61;0.35;416.0;-0.07588;-0.055263
0.69;4.75;5.5;4.5;5.25;0.5;1.0;0.0;0.25;0.5;1.75;2.25;2.5;1.0;2.0;0.25;1.0;-0.212402;0.022949;0.971191;-1.96;1.54;-0.21;336.0;-0.133294;-0.077676;5.25;4.0;6.5;3.75;2.25;1.0;0.0;0.75;0.5;1.5;3.0;3.25;1.5;4.75;0.25;1.75;-0.240234;0.020996;0.986816;-0.42;-1.68;0.35;405.0;-0.074479;-0.054046
0.7;4.5;5.25;4.5;5.25;0.5;1.25;0.0;0.5;0.5;1.0;2.25;2.25;1.0;2.25;0.25;1.0;-0.211426;0.03125;0.984375;-1.96;1.68;-0.21;330.0;-0.136008;-0.083717;5.25;4.0;6.5;4.0;2.25;1.25;0.0;0.75;0.5;1.5;3.25;3.25;1.5;5.0;0.25;1.75;-0.244141;0.023926;0.991699;-0.35;-1.54;0.21;416.0;-0.072007;-0.055808
0.71;4.25;5.0;4.25;5.25;0.5;1.25;0.0;0.25;0.25;1.0;2.25;2.25;1.25;2.0;0.5;1.0;-0.209961;0.02832;0.980469;-1.96;1.61;-0.35;318.0;-0.133273;-0.090524;5.5;4.25;6.5;3.5;2.25;1.25;0.0;0.75;0.5;1.5;3.25;3.25;1.25;4.75;0.5;1.75;-0.241211;0.018555;0.983398;-0.42;-1.61;0.28;413.0;-0.073851;-0.052392
0.72;4.0;5.5;4.5;5.25;0.5;1.25;0.0;0.5;0.25;1.0;2.5;2.5;1.25;2.0;0.5;1.25;-0.205566;0.026855;0.977051;-1.75;1.61;-0.21;333.0;-0.127272;-0.097793;5.5;4.5;6.5;4.0;2.25;1.25;0.0;0.75;0.5;1.75;3.0;3.25;1.25;5.0;0.5;1.75;-0.247559;0.015137;0.98584;-0.49;-1.47;0.28;423.0;-0.075961;-0.052982
0.73;4.5;5.25;4.25;5.75;0.5;1.25;0.0;0.5;0.5;1.25;2.5;2.25;1.25;2.0;0.5;1.0;-0.211426;0.025391;0.975586;-1.96;1.68;-0.35;340.0;-0.129013;-0.090562;5.25;4.5;6.0;4.0;2.25;1.25;0.0;0.75;0.5;1.75;2.75;3.25;1.25;5.0;0.5;1.75;-0.243164;0.019531;0.979492;-0.35;-1.82;0.28;412.0;-0.073258;-0.055523
0.74;4.5;5.25;4.5;5.25;0.5;1.25;0.0;0.25;0.25;1.0;2.25;2.25;1.0;2.25;0.5;1.0;-0.213867;0.028809;0.975098;-1.96;1.75;-0.28;325.0;-0.137007;-0.083702;5.5;4.5;6.0;4.0;2.0;1.25;0.0;0.75;0.5;1.75;2.75;3.25;1.25;5.0;0.75;1.75;-0.245117;0.019043;0.984863;-0.35;-1.68;0.35;415.0;-0.071923;-0.05544
0.75;4.5;5.25;4.5;5.75;0.5;1.25;0.0;0.25;0.0;1.5;2.25;2.25;1.25;2.0;0.5;1.0;-0.208496;0.027344;0.974121;-2.03;1.54;-0.28;333.0;-0.138978;-0.091379;5.25;4.25;5.5;4.0;2.25;0.75;0.0;0.75;0.5;1.5;2.75;3.25;1.25;5.0;0.25;1.75;-0.235352;0.01709;0.990234;-0.35;-1.68;0.35;394.0;-0.072717;-0.054536
0.76;4.25;5.25;4.5;5.25;0.5;1.0;0.0;0.25;0.25;1.25;2.25;2.25;1.0;2.25;0.5;1.0;-0.211914;0.030762;0.978516;-1.89;1.61;-0.21;322.0;-0.131698;-0.082462;5.25;4.25;6.0;4.0;2.0;1.25;0.0;0.75;0.5;1.25;3.25;3.25;1.5;5.0;0.25;1.75;-0.244141;0.021484;0.987305;-0.35;-1.82;0.42;407.0;-0.072941;-0.059977
0.77;4.25;5.25;4.25;5.75;0.5;1.0;0.0;0.25;0.5;1.25;3.0;2.5;1.0;2.5;0.5;1.0;-0.210449;0.03125;0.973633;-1.96;1.75;-0.21;341.0;-0.115127;-0.083528;5.25;4.5;6.0;4.0;2.25;1.5;0.0;0.75;0.5;1.25;3.25;3.0;1.5;5.0;0.25;1.75;-0.239258;0.013184;0.985352;-0.42;-1.61;0.28;412.0;-0.077533;-0.05966
0.78;4.25;5.0;4.5;5.75;0.5;1.0;0.0;0.5;0.5;1.0;2.5;2.5;1.25;2.5;0.25;0.75;-0.211426;0.028809;0.972656;-2.1;1.68;-0.21;336.0;-0.125398;-0.087175;5.5;4.0;6.0;4.0;2.25;1.5;0.0;0.75;0.5;1.5;3.5;3.25;1.5;5.0;0.5;1.75;-0.237793;0.019043;0.98877;-0.35;-1.75;0.35;421.0;-0.067142;-0.058663
0.79;4.25;5.25;4.5;5.75;0.5;1.0;0.0;0.5;0.5;1.0;2.25;2.5;1.25;2.5;0.25;0.75;-0.206055;0.02832;0.978027;-1.89;1.68;-0.28;335.0;-0.13014;-0.087493;5.25;4.0;6.5;4.0;2.0;1.25;0.0;0.75;0.25;1.5;3.25;3.25;1.25;5.0;0.75;1.75;-0.241699;0.018555;0.98584;-0.42;-1.75;0.28;413.0;-0.06941;-0.05741
0.8;4.75;5.5;4.25;5.25;0.5;1.25;0.0;0.5;0.25;0.75;2.5;2.0;1.25;2.25;0.5;1.0;-0.205566;0.026855;0.97998;-1.96;1.68;-0.21;331.0;-0.139363;-0.089978;5.25;4.25;6.0;4.0;2.0;1.25;0.0;0.75;0.25;1.5;3.0;3.25;1.5;5.0;0.75;1.75;-0.241699;0.019531;0.982422;-0.42;-1.61;0.35;409.0;-0.069313;-0.061792
0.81;4.75;5.5;4.5;5.25;0.5;1.25;0.0;0.5;0.25;1.25;2.5;2.0;1.25;2.25;0.5;1.0;-0.209961;0.025391;0.978516;-1.96;1.68;-0.21;339.0;-0.13457;-0.086138;5.5;4.25;5.5;3.5;2.25;1.0;0.0;0.75;0.25;1.5;3.0;3.25;1.5;5.0;0.75;1.75;-0.242188;0.019531;0.986328;-0.42;-1.82;0.42;400.0;-0.065567;-0.058283
0.82;4.75;5.5;4.5;5.75;0.5;1.0;0.0;0.25;0.5;1.5;2.5;2.5;1.25;2.0;0.5;1.0;-0.206055;0.029785;0.978027;-2.03;1.75;-0.21;347.0;-0.12983;-0.08379;5.5;4.25;6.0;4.25;2.25;1.0;0.0;0.75;0.5;1.5;3.0;3.25;1.5;4.75;0.25;1.75;-0.243652;0.017578;0.98877;-0.49;-1.68;0.28;410.0;-0.078724;-0.057882
0.83;4.75;5.25;4.5;5.75;0.5;1.0;0.0;0.25;0.5;0.75;2.25;2.25;1.0;2.25;0.5;1.0;-0.206543;0.027344;0.976562;-1.96;1.68;-0.28;331.0;-0.140532;-0.080604;5.5;4.25;6.0;4.0;2.25;1.0;0.0;0.5;0.5;1.25;3.0;3.25;1.5;4.75;0.25;1.75;-0.238281;0.01709;0.987793;-0.49;-1.68;0.28;401.0;-0.079996;-0.054361
0.84;4.75;5.25;4.5;5.75;0.5;1.25;0.0;0.5;0.5;1.0;2.0;2.5;1.25;2.5;0.5;1.0;-0.209961;0.02832;0.975586;-1.89;1.82;-0.21;345.0;-0.13108;-0.086644;5.25;4.25;6.0;4.0;2.25;1.25;0.0;0.75;0.25;1.0;2.75;3.25;1.5;4.75;0.5;1.75;-0.239258;0.017578;0.987793;-0.35;-1.75;0.21;399.0;-0.081384;-0.063371
0.85;4.5;5.25;4.5;5.25;0.5;0.75;0.0;0.5;0.25;1.5;2.25;2.5;1.25;2.0;0.5;1.0;-0.20459;0.026855;0.98291;-1.89;1.75;-0.14;331.0;-0.12818;-0.087653;5.25;4.25;6.5;4.0;2.0;1.0;0.0;0.75;0.25;1.5;3.25;3.0;1.25;4.5;0.75;1.75;-0.240723;0.018555;0.986328;-0.49;-1.68;0.35;405.0;-0.077698;-0.057501
0.86;4.0;5.25;4.5;5.75;0.5;1.0;0.0;0.5;0.25;1.75;2.25;2.0;1.0;1.75;0.5;1.0;-0.205078;0.028809;0.979492;-1.89;1.82;-0.28;327.0;-0.134683;-0.089295;5.5;4.25;6.5;4.0;2.0;1.0;0.0;1.0;0.5;1.75;3.25;3.25;1.5;4.75;0.75;1.75;-0.241211;0.020996;0.983398;-0.35;-1.68;0.42;425.0;-0.069076;-0.058545
0.87;4.5;5.25;4.5;5.25;0.5;1.25;0.0;0.5;0.25;1.0;2.25;2.0;1.25;2.0;0.5;1.0;-0.211914;0.024902;0.97998;-1.96;1.82;-0.14;326.0;-0.139896;-0.089796;5.5;4.25;6.5;4.0;2.25;1.25;0.0;0.75;0.5;1.5;3.25;3.0;1.5;4.75;0.5;1.75;-0.240234;0.01709;0.991699;-0.49;-1.75;0.28;418.0;-0.077171;-0.055239
0.88;4.75;5.25;4.5;5.75;0.5;1.25;0.0;0.5;0.0;1.0;2.5;2.25;1.5;2.0;0.25;1.0;-0.210449;0.03125;0.977051;-1.96;1.68;-0.35;336.0;-0.1449;-0.098293;5.25;4.25;6.5;4.0;2.25;1.25;0.0;0.75;0.5;1.5;3.25;3.25;1.5;5.0;0.5;1.75;-0.242676;0.018066;0.984375;-0.42;-1.75;0.28;421.0;-0.070894;-0.056577
0.89;4.75;5.25;4.25;5.25;0.5;0.75;0.0;0.5;0.0;1.25;2.25;2.25;1.25;2.0;0.25;1.0;-0.211426;0.024414;0.974121;-1.96;1.89;-0.28;320.0;-0.143309;-0.09087;5.25;4.25;6.0;4.0;2.25;1.0;0.0;0.5;0.5;1.5;3.25;3.25;1.5;5.0;0.75;1.75;-0.24707;0.023438;0.990234;-0.49;-1.68;0.35;411.0;-0.065194;-0.054186
0.9;4.25;5.25;4.5;5.25;0.5;0.75;0.0;0.5;0.25;1.25;2.25;2.0;1.25;2.0;0.5;1.0;-0.203613;0.030273;0.970703;-2.03;1.75;-0.28;321.0;-0.134482;-0.087049;5.5;4.0;6.0;4.0;2.25;1.0;0.0;0.75;0.25;1.5;3.0;3.25;1.25;5.0;0.5;1.75;-0.237793;0.018555;0.986816;-0.42;-1.68;0.28;404.0;-0.073674;-0.055576
0.91;4.25;5.25;4.5;5.25;0.5;1.25;0.0;0.5;0.25;1.0;2.25;1.75;1.25;2.0;0.25;1.0;-0.211426;0.027832;0.978027;-2.17;1.89;-0.28;319.0;-0.145163;-0.089769;5.0;4.25;6.0;4.0;2.25;1.25;0.0;0.75;0.25;1.5;2.75;3.25;1.25;4.75;0.75;1.75;-0.239258;0.019043;0.981934;-0.35;-1.68;0.28;402.0;-0.073305;-0.060811
0.92;4.5;5.25;4.5;5.25;0.5;1.25;0.0;0.5;0.25;1.75;2.5;2.0;1.5;2.0;0.25;1.0;-0.209473;0.025391;0.978516;-1.96;1.82;-0.21;336.0;-0.130517;-0.08889;5.25;4.25;6.0;3.75;2.5;1.0;0.0;0.75;0.25;1.5;3.25;3.25;1.0;4.75;0.5;1.75;-0.243652;0.018066;0.984375;-0.35;-1.68;0.21;402.0;-0.074346;-0.054755
0.93;4.5;5.25;4.5;5.25;0.5;1.25;0.0;0.5;0.25;1.5;2.25;2.0;1.25;2.0;0.25;1.25;-0.206543;0.028809;0.975586;-2.03;1.82;-0.21;330.0;-0.136208;-0.088358;5.25;4.25;6.0;4.0;2.5;1.0;0.0;0.75;0.25;1.25;3.25;3.25;1.0;4.75;0.5;1.75;-0.236328;0.022949;0.985352;-0.42;-1.61;0.28;403.0;-0.077831;-0.05668
0.94;4.5;5.5;4.5;5.75;0.5;1.0;0.0;0.5;0.25;1.5;2.25;2.0;1.25;2.25;0.5;1.0;-0.210938;0.027344;0.974121;-1.96;1.82;-0.42;339.0;-0.134758;-0.086993;5.5;4.25;6.0;3.75;2.5;1.0;0.0;0.75;0.25;1.25;3.25;3.25;1.25;5.0;0.5;1.75;-0.240723;0.019043;0.986328;-0.35;-1.68;0.14;407.0;-0.074603;-0.055423
0.95;4.5;5.25;4.5;5.75;0.5;1.25;0.0;0.5;0.25;1.75;2.25;2.25;1.25;2.25;0.5;1.0;-0.209961;0.029297;0.977051;-1.96;1.75;-0.28;344.0;-0.12755;-0.088389;5.25;4.25;6.0;3.75;2.25;1.25;0.0;1.0;0.25;1.5;3.0;3.0;1.25;5.0;0.5;1.75;-0.244629;0.023926;0.989746;-0.49;-1.68;0.21;405.0;-0.073858;-0.059162
0.96;4.5;5.25;4.5;5.75;0.5;1.0;0.0;0.5;0.25;1.0;2.5;2.5;1.25;2.25;0.5;1.25;-0.205078;0.029785;0.97168;-1.82;1.82;-0.21;341.0;-0.128516;-0.093117;5.25;4.25;6.0;3.5;2.25;1.25;0.0;0.75;0.25;1.5;3.0;3.0;1.5;4.75;0.75;1.75;-0.240723;0.017578;0.987793;-0.49;-1.61;0.28;401.0;-0.071094;-0.058455
0.97;4.75;5.5;4.5;5.75;0.25;1.0;0.0;0.5;0.25;1.0;2.5;2.25;1.25;2.25;0.5;1.25;-0.20752;0.025391;0.975098;-1.96;1.75;-0.21;340.0;-0.135199;-0.091752;5.25;4.25;6.5;3.5;2.25;1.25;0.0;0.75;0.25;1.5;3.25;3.0;1.5;4.75;0.5;1.75;-0.235352;0.018555;0.983398;-0.56;-1.82;0.28;407.0;-0.074944;-0.056645
0.98;4.5;5.25;4.25;5.25;0.25;1.25;0.0;0.5;0.5;1.5;2.5;2.0;1.0;2.25;0.5;1.0;-0.211914;0.027344;0.977051;-1.96;1.68;-0.28;332.0;-0.124686;-0.082617;5.5;4.25;6.0;3.5;2.0;1.25;0.0;0.75;0.25;1.5;3.0;3.25;1.25;5.0;0.25;2.0;-0.236328;0.021484;0.98584;-0.42;-1.68;0.28;400.0;-0.074588;-0.056873
0.99;4.25;5.25;4.5;5.75;0.5;1.0;0.0;0.5;0.5;1.25;2.25;2.25;1.25;2.25;0.5;1.0;-0.209961;0.029297;0.975098;-1.82;1.61;-0.28;337.0;-0.127186;-0.087243;5.25;4.25;6.0;3.5;2.25;1.25;0.0;0.75;0.5;1.5;3.25;3.25;1.25;5.0;0.5;1.75;-0.241699;0.022461;0.985352;-0.35;-1.75;0.28;407.0;-0.066589;-0.054155
1.0;4.5;5.25;4.5;5.25;0.25;1.0;0.0;0.5;0.25;1.25;2.25;2.25;1.5;2.25;0.25;0.75;-0.209473;0.027832;0.974609;-1.96;1.75;-0.21;326.0;-0.13491;-0.089832;5.25;4.25;6.5;3.75;2.25;1.0;0.0;0.75;0.5;1.5;3.0;3.25;1.25;5.0;0.75;1.75;-0.239746;0.021973;0.98291;-0.49;-1.68;0.28;413.0;-0.069014;-0.051696
1.01;4.25;5.25;4.5;5.25;0.5;1.25;0.0;0.5;0.25;1.25;2.25;2.0;1.5;2.0;0.25;0.75;-0.210938;0.028809;0.976562;-1.96;1.68;-0.35;325.0;-0.139216;-0.091755;5.5;4.25;6.5;4.0;2.0;1.0;0.0;0.75;0.25;1.5;3.0;3.25;1.25;5.0;0.25;1.75;-0.236816;0.018555;0.986328;-0.56;-1.68;0.35;407.0;-0.08101;-0.054832
1.02;4.25;5.5;4.5;5.0;0.5;1.25;0.0;0.5;0.5;1.25;2.25;2.5;1.25;2.0;0.25;1.0;-0.214844;0.024414;0.972656;-1.96;1.75;-0.21;332.0;-0.130457;-0.089294;5.5;4.25;6.5;4.0;2.0;1.0;0.0;0.75;0.25;1.25;3.0;3.25;1.25;5.0;0.25;1.75;-0.246094;0.020508;0.988281;-0.42;-1.68;0.35;404.0;-0.083077;-0.055595
1.03;4.75;5.25;4.5;5.0;0.5;1.25;0.0;0.5;0.5;1.0;2.25;2.5;1.0;2.5;0.25;1.0;-0.209961;0.027832;0.980957;-1.89;1.75;-0.21;334.0;-0.130621;-0.081075;5.25;4.25;6.0;4.0;2.25;1.0;0.0;0.75;0.0;1.5;3.25;3.25;1.25;5.0;0.0;2.0;-0.242188;0.018555;0.991211;-0.42;-1.68;0.28;400.0;-0.079117;-0.060902
1.04;4.25;5.0;4.5;5.0;0.5;1.25;0.0;0.5;0.5;1.0;2.5;2.5;1.5;2.25;0.5;1.0;-0.212891;0.030273;0.975098;-1.89;1.68;-0.28;334.0;-0.116971;-0.090292;5.5;4.25;6.75;4.0;2.25;1.0;0.0;0.75;0.0;1.5;3.25;3.0;1.5;5.0;0.25;2.0;-0.234375;0.019531;0.986816;-0.35;-1.68;0.35;413.0;-0.08236;-0.05753
1.05;4.5;5.25;4.5;5.25;0.5;1.25;0.0;0.5;0.5;1.5;2.5;2.25;1.25;2.25;0.5;1.0;-0.212402;0.021973;0.981445;-1.89;1.61;-0.28;342.0;-0.121409;-0.084101;5.25;4.25;6.75;4.0;2.25;1.0;0.0;0.5;0.25;1.5;3.0;3.25;1.5;5.0;0.5;1.75;-0.242676;0.017578;0.987305;-0.49;-1.68;0.35;411.0;-0.076717;-0.053307
1.06;4.5;5.25;4.5;6.0;0.5;1.25;0.0;0.5;0.5;1.75;2.5;2.25;1.25;2.0;0.5;1.0;-0.213867;0.025879;0.976562;-1.89;1.68;-0.35;351.0;-0.125862;-0.087893;5.25;4.25;6.5;4.0;2.25;1.0;0.0;0.5;0.25;1.5;3.25;3.25;1.5;5.0;0.25;1.75;-0.240723;0.023438;0.988281;-0.35;-1.68;0.21;408.0;-0.076606;-0.054498
1.07;4.25;5.25;4.5;5.25;0.5;1.0;0.0;0.5;0.5;0.5;2.25;2.25;1.0;2.0;0.5;1.0;-0.205078;0.026855;0.979492;-1.96;1.68;-0.28;320.0;-0.139013;-0.087796;5.25;4.25;6.5;4.0;2.5;1.25;0.0;0.75;0.25;1.5;3.0;3.25;1.25;5.0;0.25;2.0;-0.23877;0.021973;0.984863;-0.49;-1.61;0.28;414.0;-0.078601;-0.056597
1.08;4.25;5.0;4.5;5.0;0.5;1.25;0.0;0.5;0.5;1.0;2.25;2.5;1.0;2.25;0.5;1.0;-0.208984;0.027344;0.979004;-1.89;1.68;-0.28;327.0;-0.123505;-0.085171;5.5;4.25;6.5;4.0;2.5;1.0;0.0;0.75;0.25;1.0;3.0;3.25;1.25;5.0;0.5;2.0;-0.236328;0.016602;0.986328;-0.35;-1.68;0.35;411.0;-0.081082;-0.055813
1.09;4.75;5.25;4.5;5.0;0.5;1.25;0.0;0.5;0.5;1.25;2.25;2.75;1.25;1.75;0.5;1.25;-0.205078;0.029785;0.975586;-1.96;1.75;-0.28;339.0;-0.127311;-0.089871;5.25;4.25;6.0;4.0;2.25;1.25;0.0;0.75;0.25;1.5;3.0;3.25;1.25;5.0;0.25;2.0;-0.245117;0.021973;0.986328;-0.49;-1.68;0.35;406.0;-0.075713;-0.059403
1.1;4.5;5.25;4.5;5.0;0.5;1.25;0.0;0.5;0.5;1.25;2.25;2.5;1.25;2.0;0.5;1.25;-0.210938;0.029297;0.978516;-2.03;1.68;-0.28;336.0;-0.124402;-0.088093;5.25;4.25;6.0;3.75;2.25;1.0;0.0;0.75;0.25;1.5;3.0;3.0;1.25;4.75;0.25;1.75;-0.240723;0.022461;0.991699;-0.49;-1.68;0.35;394.0;-0.079754;-0.0556
1.11;4.5;5.25;4.25;5.25;0.25;1.25;0.0;0.5;0.5;1.25;2.25;2.5;1.25;1.75;0.5;1.25;-0.210938;0.026855;0.977051;-2.03;1.75;-0.21;331.0;-0.128009;-0.093666;5.25;4.25;6.5;4.0;2.25;1.25;0.0;0.75;0.25;1.25;3.25;3.25;1.25;5.0;0.25;2.0;-0.242188;0.019043;0.986816;-0.42;-1.68;0.35;411.0;-0.078369;-0.058524
1.12;4.25;5.25;4.5;5.25;0.5;1.25;0.0;0.5;0.25;1.25;2.5;2.5;1.25;2.0;0.5;0.75;-0.208496;0.026367;0.977051;-1.96;1.68;-0.21;333.0;-0.128525;-0.09269;5.25;4.25;6.5;3.75;2.25;1.0;0.0;0.75;0.0;1.75;3.25;3.25;1.25;4.75;0.5;1.75;-0.243164;0.02002;0.988281;-0.42;-1.61;0.28;407.0;-0.075974;-0.057618
1.13;4.75;5.5;4.25;5.0;0.5;0.75;0.0;0.5;0.25;1.0;2.5;2.5;1.25;2.0;0.5;0.75;-0.208008;0.031738;0.975098;-1.96;1.68;-0.35;327.0;-0.134943;-0.088707;5.5;4.25;6.5;3.75;2.25;1.0;0.0;0.75;0.0;1.5;3.0;3.0;1.5;4.75;0.5;1.75;-0.237793;0.020996;0.989258;-0.42;-1.68;0.35;404.0;-0.082607;-0.057568
1.14;3.75;5.0;4.25;5.0;0.5;1.0;0.0;0.5;0.5;1.0;2.5;2.5;1.0;2.25;0.5;0.75;-0.213867;0.028809;0.97998;-2.03;1.68;-0.21;318.0;-0.11665;-0.087532;5.5;4.0;6.5;3.75;2.25;0.75;0.0;0.75;0.25;1.25;3.0;3.25;1.5;4.75;0.5;1.75;-0.243652;0.017578;0.988281;-0.49;-1.82;0.21;402.0;-0.077645;-0.055135
1.15;4.0;5.0;4.25;5.25;0.25;1.25;0.0;0.5;0.5;1.25;2.25;2.5;1.0;2.0;0.5;1.0;-0.211914;0.030762;0.973145;-1.89;1.75;-0.35;322.0;-0.122016;-0.091208;5.25;4.0;6.0;3.5;2.25;1.0;0.0;0.75;0.25;1.5;2.75;3.25;1.25;4.75;0.75;2.0;-0.244629;0.01709;0.990234;-0.49;-1.68;0.21;396.0;-0.068462;-0.056224
1.16;4.0;5.25;4.5;5.25;0.5;1.25;0.0;0.5;0.5;1.0;2.25;2.5;1.25;1.75;0.75;1.0;-0.212402;0.026855;0.972656;-1.96;1.68;-0.28;330.0;-0.12548;-0.09425;5.25;4.25;6.0;3.5;2.25;1.25;0.0;1.0;0.25;1.75;3.25;3.25;1.5;4.75;0.5;2.0;-0.236816;0.018555;0.984375;-0.56;-1.75;0.21;412.0;-0.06654;-0.063337
1.17;4.25;5.25;4.25;5.25;0.5;1.0;0.0;0.5;0.5;1.0;2.0;2.5;1.25;2.0;0.75;0.75;-0.20752;0.022461;0.973145;-2.03;1.61;-0.21;325.0;-0.127599;-0.089848;5.5;4.25;6.0;4.0;2.0;0.75;0.0;0.75;0.25;1.5;3.25;3.25;1.5;5.0;0.5;1.75;-0.237793;0.020996;0.989258;-0.56;-1.68;0.21;406.0;-0.071516;-0.058092
1.18;4.25;5.0;4.25;5.25;0.5;1.0;0.0;0.25;0.25;1.0;2.0;2.5;1.25;2.25;0.75;0.75;-0.205566;0.02832;0.978027;-1.89;1.47;-0.21;318.0;-0.127219;-0.08764;5.25;4.0;6.0;4.0;2.25;0.75;0.0;0.75;0.25;1.5;3.25;3.25;1.5;5.0;0.25;1.75;-0.238281;0.018066;0.986328;-0.49;-1.89;0.28;401.0;-0.070905;-0.057574
1.19;4.25;5.0;4.5;5.75;0.5;1.25;0.0;0.5;0.25;1.0;2.5;2.5;1.25;2.25;0.75;0.75;-0.208008;0.026855;0.977051;-2.03;1.54;-0.21;338.0;-0.124404;-0.093754;5.25;4.25;6.0;4.0;2.0;0.5;0.0;0.75;0.0;1.25;3.0;3.25;1.5;4.75;0.25;1.75;-0.23584;0.021484;0.988281;-0.56;-1.89;0.21;387.0;-0.081517;-0.062066
1.2;4.25;5.25;4.25;5.25;0.5;1.25;0.0;0.5;0.25;1.0;2.5;2.25;1.25;2.25;0.75;0.75;-0.212402;0.026855;0.976074;-1.96;1.61;-0.21;330.0;-0.125201;-0.092014;5.25;4.25;6.5;3.75;2.5;1.25;0.0;0.75;0.25;1.25;3.0;3.25;1.5;5.0;0.5;1.75;-0.23877;0.015137;0.98877;-0.49;-1.82;0.28;412.0;-0.076263;-0.057682
1.21;4.5;5.5;4.5;5.25;0.5;1.25;0.0;0.5;0.5;1.25;2.25;2.0;0.75;2.25;0.5;1.0;-0.207031;0.026367;0.974609;-2.03;1.61;-0.35;332.0;-0.135431;-0.078978;5.25;4.5;6.0;4.0;2.25;1.25;0.0;0.75;0.25;1.5;3.0;3.25;1.5;4.75;0.25;1.75;-0.242188;0.018066;0.984375;-0.56;-1.75;0.28;407.0;-0.080352;-0.062542
1.22;4.25;5.25;4.25;5.75;0.5;1.25;0.0;0.5;0.5;1.5;2.5;2.0;1.25;2.0;0.5;1.0;-0.208008;0.02832;0.97168;-1.96;1.54;-0.21;338.0;-0.126702;-0.0893;5.25;4.25;5.5;3.5;2.25;1.25;0.0;0.5;0.0;1.5;2.75;3.25;1.5;5.0;0.25;1.75;-0.23584;0.023438;0.992676;-0.42;-1.75;0.28;386.0;-0.075602;-0.059732
1.23;4.75;5.0;4.5;5.25;0.5;1.0;0.0;0.5;0.5;1.5;2.5;2.5;1.25;1.75;0.5;1.0;-0.208496;0.029297;0.975098;-2.03;1.75;-0.28;338.0;-0.125458;-0.085491;5.25;4.25;6.5;3.75;2.25;1.0;0.0;0.75;0.0;1.5;3.25;3.25;1.5;5.0;0.25;2.0;-0.239746;0.019531;0.985352;-0.49;-1.75;0.21;407.0;-0.075802;-0.060008
1.24;4.5;5.0;4.25;5.0;0.5;1.25;0.0;0.5;0.5;1.5;2.25;2.0;1.25;2.0;0.5;0.75;-0.211426;0.027832;0.974121;-2.03;1.82;-0.21;326.0;-0.127653;-0.082606;5.5;4.25;6.0;4.0;2.25;1.0;0.0;1.0;0.0;1.5;3.25;3.25;1.5;5.0;0.25;2.0;-0.243652;0.019043;0.987305;-0.49;-1.68;0.35;411.0;-0.076112;-0.065147
1.25;4.5;5.25;4.5;5.0;0.5;1.25;0.0;0.5;0.5;1.25;2.5;2.0;1.25;1.75;0.25;1.0;-0.211426;0.025391;0.979492;-1.96;1.75;-0.21;327.0;-0.136745;-0.085813;5.5;4.25;6.5;4.0;2.25;1.0;0.0;0.75;0.25;1.5;3.25;3.25;1.5;5.0;0.5;1.75;-0.239258;0.017578;0.985352;-0.42;-1.75;0.28;417.0;-0.074992;-0.056736
1.26;4.25;5.25;4.5;5.25;0.25;1.25;0.0;0.5;0.5;1.25;2.25;2.25;1.0;2.0;0.25;1.25;-0.208984;0.027344;0.972168;-2.03;1.82;-0.21;326.0;-0.132489;-0.087953;5.5;4.25;6.0;3.5;1.75;1.0;0.0;0.75;0.25;1.25;3.25;3.25;1.25;4.75;0.25;1.75;-0.241211;0.020508;0.98584;-0.42;-1.75;0.28;391.0;-0.07794;-0.057783
1.27;4.5;5.0;4.5;5.75;0.25;1.25;0.0;0.5;0.5;1.5;2.25;2.0;1.25;2.25;0.25;1.25;-0.206543;0.026855;0.976074;-1.96;1.82;-0.28;336.0;-0.129549;-0.08606;5.25;4.25;6.5;3.75;2.25;1.0;0.0;0.75;0.25;1.5;3.25;3.25;1.25;5.0;0.25;1.75;-0.236328;0.02002;0.983398;-0.56;-1.61;0.35;407.0;-0.075894;-0.054336
1.28;4.5;5.0;4.5;5.75;0.25;1.0;0.0;0.5;0.0;1.5;2.25;2.0;1.25;2.0;0.25;0.75;-0.210449;0.02832;0.969727;-2.03;1.75;-0.21;322.0;-0.144919;-0.091628;5.25;4.25;6.5;4.0;2.5;1.25;0.0;0.75;0.25;1.5;3.25;3.25;1.5;4.5;0.5;2.0;-0.23877;0.021973;0.985352;-0.49;-1.68;0.21;417.0;-0.07735;-0.061626
1.29;4.75;5.25;4.5;5.25;0.5;1.0;0.0;0.5;0.0;1.25;2.0;2.25;1.25;2.0;0.5;1.0;-0.208984;0.029297;0.977051;-1.96;1.68;-0.28;326.0;-0.142948;-0.090575;5.25;4.25;6.0;4.0;2.5;1.0;0.0;0.75;0.25;1.5;3.25;3.25;1.5;4.25;0.25;1.75;-0.239258;0.020996;0.983398;-0.49;-1.68;0.28;403.0;-0.081472;-0.06257
1.3;4.5;5.5;4.5;5.25;0.5;1.0;0.0;0.25;0.5;1.25;2.25;2.5;1.5;2.25;0.5;1.0;-0.205566;0.026855;0.97168;-2.03;1.61;-0.28;338.0;-0.12544;-0.084639;5.5;4.25;6.5;3.75;2.5;1.0;0.0;1.0;0.25;1.5;3.0;3.25;1.5;4.5;0.25;1.75;-0.241211;0.017578;0.981934;-0.42;-1.68;0.42;411.0;-0.083377;-0.059813
1.31;4.5;5.5;4.5;5.25;0.5;1.25;0.0;0.5;0.5;1.5;2.75;2.5;1.5;1.75;0.25;1.0;-0.203125;0.025879;0.97168;-1.96;1.75;-0.42;345.0;-0.127019;-0.092119;5.5;4.25;6.5;4.0;2.25;1.0;0.0;0.75;0.25;1.5;3.25;3.25;1.5;4.75;0.5;1.75;-0.236816;0.016113;0.986328;-0.49;-1.75;0.28;415.0;-0.077494;-0.057938
1.32;4.5;5.5;4.5;5.25;0.5;1.25;0.0;0.5;0.5;1.25;2.5;2.5;1.25;2.25;0.25;1.25;-0.208008;0.025879;0.976562;-2.1;1.82;-0.35;343.0;-0.125741;-0.088319;5.5;4.25;6.5;4.0;2.0;1.25;0.0;0.75;0.0;1.5;3.25;3.25;1.5;5.0;0.25;1.75;-0.238281;0.022461;0.98584;-0.42;-1.68;0.35;411.0;-0.080892;-0.061426
1.33;4.5;5.5;4.25;5.25;0.5;1.25;0.0;0.5;0.5;1.25;2.25;2.0;1.25;2.25;0.5;0.75;-0.211914;0.027344;0.973145;-1.89;1.82;-0.28;333.0;-0.132394;-0.084417;5.5;4.5;6.5;4.0;2.0;1.0;0.0;0.75;0.25;1.5;3.25;3.0;1.5;4.5;0.5;1.75;-0.23584;0.018066;0.993164;-0.35;-1.68;0.35;410.0;-0.083467;-0.059039
1.34;4.5;5.5;4.25;5.75;0.5;1.25;0.0;0.25;0.25;1.0;2.5;2.25;1.25;2.5;0.5;1.25;-0.206055;0.026367;0.976074;-1.96;1.82;-0.21;338.0;-0.130067;-0.089925;5.5;4.25;6.5;4.0;2.25;1.0;0.0;0.75;0.5;1.25;3.25;3.25;1.75;5.0;0.5;2.0;-0.236816;0.017578;0.988281;-0.35;-1.54;0.21;421.0;-0.071705;-0.05782
1.35;4.25;5.25;4.5;5.25;0.5;1.25;0.0;0.25;0.25;1.25;2.25;2.25;1.0;2.5;0.5;1.0;-0.213379;0.027344;0.977539;-2.1;1.75;-0.28;327.0;-0.128329;-0.082353;5.5;4.25;6.5;3.75;2.25;1.0;0.0;0.75;0.0;1.5;3.25;3.25;1.75;5.0;0.5;2.0;-0.240723;0.021484;0.985352;-0.42;-1.75;0.35;415.0;-0.073497;-0.061193
1.36;4.25;5.25;4.5;5.25;0.5;1.25;0.0;0.25;0.5;1.5;2.25;2.0;1.0;2.25;0.5;1.0;-0.211914;0.023438;0.977051;-1.96;1.82;-0.28;328.0;-0.127788;-0.077615;5.5;4.25;6.5;4.0;2.0;1.25;0.0;0.75;0.0;1.25;3.25;3.25;1.5;5.0;0.5;1.75;-0.240723;0.017578;0.986816;-0.49;-1.75;0.28;411.0;-0.079799;-0.062351
1.37;4.75;5.5;4.5;5.0;0.5;1.25;0.0;0.5;0.25;1.5;2.25;2.0;1.25;2.0;0.5;1.25;-0.206543;0.022949;0.981934;-2.03;1.75;-0.21;335.0;-0.134691;-0.086204;5.5;4.25;6.5;3.75;2.25;1.0;0.0;0.75;0.25;1.25;3.25;3.25;1.75;4.5;0.5;1.75;-0.238281;0.017578;0.984863;-0.42;-1.61;0.21;410.0;-0.079347;-0.060952
1.38;4.5;5.5;4.5;5.25;0.5;1.25;0.0;0.5;0.5;1.0;2.25;2.5;1.0;2.25;0.5;1.5;-0.211914;0.023926;0.973633;-1.82;1.75;-0.21;340.0;-0.12706;-0.087745;5.5;4.0;6.0;3.75;2.25;1.0;0.0;1.0;0.25;1.5;3.0;3.0;1.5;4.5;0.25;1.75;-0.240234;0.014648;0.982422;-0.42;-1.68;0.28;398.0;-0.08054;-0.06056
1.39;4.25;5.25;4.5;5.25;0.5;1.25;0.0;0.25;0.5;1.5;2.25;2.5;1.0;2.25;0.5;0.75;-0.210449;0.027344;0.976562;-2.03;1.82;-0.28;332.0;-0.124447;-0.080109;5.5;4.0;6.0;4.0;2.25;1.25;0.0;0.75;0.25;1.5;3.25;3.0;1.5;5.0;0.25;1.75;-0.240234;0.01709;0.986328;-0.42;-1.75;0.35;407.0;-0.075918;-0.057852
1.4;4.75;5.25;4.5;5.75;0.5;1.25;0.0;0.5;0.25;1.0;2.25;2.25;1.25;2.25;0.5;0.75;-0.210449;0.024902;0.975098;-1.96;1.75;-0.28;338.0;-0.140122;-0.089488;5.5;4.25;6.0;4.0;2.25;1.25;0.0;0.75;0.25;1.5;3.25;3.0;1.5;4.75;0.0;1.75;-0.237793;0.018555;0.988281;-0.49;-1.75;0.28;404.0;-0.083579;-0.059551
1.41;4.75;5.5;4.5;5.75;0.5;1.25;0.0;0.5;0.5;1.0;2.25;2.25;1.25;2.0;0.5;0.75;-0.208008;0.032715;0.975098;-1.89;1.75;-0.21;341.0;-0.141635;-0.088184;5.25;4.25;6.5;4.0;2.0;1.25;0.0;0.75;0.25;1.25;3.25;3.25;1.25;5.0;0.25;2.0;-0.244629;0.021973;0.981445;-0.35;-1.61;0.21;408.0;-0.078054;-0.059329
1.42;4.25;5.0;4.25;5.75;0.5;1.25;0.0;0.5;0.5;1.25;2.25;2.5;1.25;1.75;0.5;0.75;-0.207031;0.029297;0.972656;-1.75;1.61;-0.28;332.0;-0.130474;-0.093828;5.5;4.25;6.5;4.25;2.25;1.25;0.0;0.75;0.0;1.5;3.25;3.25;1.5;4.75;0.25;1.75;-0.245117;0.018066;0.986816;-0.49;-1.68;0.35;415.0;-0.085087;-0.062922
1.43;4.5;5.0;4.25;5.75;0.5;1.0;0.0;0.5;0.25;1.5;2.25;2.5;1.25;2.0;0.5;0.75;-0.210449;0.02832;0.979492;-1.89;1.68;-0.21;333.0;-0.129849;-0.091442;5.5;4.0;6.0;3.25;2.0;1.25;0.0;0.75;0.0;1.5;3.25;3.25;1.25;4.5;0.5;1.75;-0.23584;0.016602;0.989746;-0.42;-1.68;0.42;391.0;-0.07541;-0.060047
1.44;4.5;5.25;4.5;5.25;0.5;0.75;0.0;0.25;0.25;1.25;2.5;1.75;1.5;2.5;0.25;1.0;-0.211426;0.022461;0.972656;-1.96;1.68;-0.28;323.0;-0.133122;-0.079495;5.25;4.25;6.0;3.25;2.0;1.25;0.0;1.0;0.25;1.5;3.25;3.25;1.5;4.75;0.5;2.0;-0.236328;0.016602;0.987793;-0.35;-1.68;0.21;404.0;-0.066618;-0.063907
1.45;5.0;5.0;4.5;5.75;0.5;1.25;0.0;0.5;0.25;1.0;2.5;2.25;1.0;2.5;0.5;1.0;-0.206055;0.022461;0.977051;-1.89;1.61;-0.28;342.0;-0.133982;-0.084545;5.25;4.25;6.0;3.75;2.0;1.25;0.0;0.75;0.25;1.5;3.25;3.25;1.5;4.75;0.25;1.75;-0.236816;0.021973;0.984375;-0.35;-1.68;0.35;401.0;-0.074704;-0.062033
1.46;4.75;5.0;4.5;5.75;0.5;1.5;0.0;0.5;0.25;1.25;2.25;2.0;1.5;2.5;0.5;1.0;-0.214844;0.029785;0.975586;-1.89;1.61;-0.28;344.0;-0.130811;-0.089262;5.5;4.25;6.0;3.5;2.25;1.25;0.0;0.75;0.25;1.5;3.0;3.25;1.5;4.75;0.5;1.75;-0.241699;0.019043;0.974121;-0.42;-1.68;0.14;404.0;-0.074514;-0.058777
1.47;4.75;5.25;4.5;5.75;0.5;1.0;0.0;0.5;0.25;1.25;2.25;2.25;1.0;2.0;0.5;1.25;-0.209473;0.029297;0.973633;-1.96;1.54;-0.21;336.0;-0.138527;-0.087923;5.5;4.25;6.0;3.75;2.25;1.0;0.0;1.0;0.5;1.5;3.25;3.25;1.5;4.75;0.5;1.75;-0.240234;0.017578;0.990723;-0.28;-1.68;0.21;414.0;-0.070326;-0.05926
1.48;4.5;5.0;4.5;5.25;0.5;1.25;0.0;0.5;0.25;1.0;2.5;2.5;1.0;2.25;0.5;1.0;-0.204102;0.029785;0.978027;-2.1;1.54;-0.21;332.0;-0.12803;-0.088599;5.25;4.0;6.5;4.0;2.25;1.0;0.0;0.75;0.5;1.5;3.25;3.25;1.5;4.75;0.5;1.75;-0.23877;0.016602;0.982422;-0.49;-1.68;0.35;413.0;-0.070923;-0.055749
1.49;4.75;5.0;4.5;5.75;0.5;1.25;0.0;0.5;0.25;1.75;2.25;2.0;1.0;2.25;0.5;0.75;-0.208496;0.024902;0.979492;-1.82;1.4;-0.28;339.0;-0.134169;-0.081447;5.5;4.25;6.0;3.5;2.25;1.0;0.0;0.75;0.25;1.5;3.0;3.25;1.5;5.0;0.5;1.75;-0.240234;0.016113;0.984863;-0.49;-1.61;0.21;403.0;-0.071419;-0.056086
1.5;4.25;5.0;4.5;5.75;0.5;1.25;0.0;0.25;0.25;1.25;2.25;2.25;1.0;2.25;0.75;0.75;-0.210938;0.027832;0.97168;-1.96;1.47;-0.21;330.0;-0.130196;-0.084863;5.25;4.25;6.0;4.0;2.25;1.0;0.0;0.75;0.0;1.5;3.25;3.0;1.5;4.5;0.25;1.75;-0.238281;0.020508;0.986328;-0.35;-1.61;0.35;396.0;-0.083232;-0.063369
1.51;4.25;5.0;4.25;5.25;0.5;1.25;0.0;0.5;0.5;1.75;2.25;2.5;1.0;2.25;0.75;0.75;-0.209961;0.02832;0.971191;-1.89;1.47;-0.21;336.0;-0.113024;-0.083355;5.25;4.0;6.5;4.0;2.25;1.25;0.0;0.75;0.25;1.25;3.0;3.0;1.5;4.75;0.25;1.75;-0.241211;0.018066;0.983887;-0.35;-1.61;0.21;402.0;-0.083037;-0.058539
1.52;4.25;5.0;4.25;5.25;0.5;1.25;0.0;0.5;0.5;1.5;2.25;2.25;1.25;2.25;0.75;0.75;-0.208496;0.030273;0.976562;-1.89;1.54;-0.28;333.0;-0.116491;-0.085284;5.0;4.25;6.5;3.5;2.0;1.0;0.0;0.75;0.25;1.5;3.0;3.25;1.5;4.75;0.25;1.75;-0.236816;0.022949;0.989746;-0.42;-1.61;0.28;396.0;-0.075226;-0.058089
1.53;4.5;5.25;4.5;5.25;0.5;1.25;0.0;0.5;0.5;1.5;2.5;2.25;1.0;2.25;0.75;1.25;-0.208984;0.027344;0.980469;-1.96;1.54;-0.21;344.0;-0.117294;-0.082616;5.25;4.0;6.5;3.5;2.25;1.0;0.0;0.5;0.25;1.5;3.25;3.0;1.25;4.75;0.25;2.0;-0.236816;0.016113;0.984375;-0.42;-1.68;0.21;395.0;-0.07608;-0.049778
1.54;4.5;5.25;4.25;5.25;0.5;1.25;0.0;0.5;0.5;1.25;2.5;2.5;1.5;2.25;0.5;1.25;-0.20459;0.025879;0.978516;-1.96;1.61;-0.28;343.0;-0.116697;-0.091552;5.25;4.0;6.5;3.5;2.25;1.0;0.0;0.5;0.25;1.5;3.25;3.25;1.5;5.0;0.5;1.75;-0.239746;0.016113;0.985352;-0.42;-1.75;0.28;403.0;-0.068631;-0.051721
1.55;4.0;5.0;4.25;5.25;0.5;1.25;0.0;0.25;0.5;1.5;2.5;2.0;1.0;2.0;0.5;1.25;-0.204102;0.029785;0.976074;-1.89;1.68;-0.35;323.0;-0.120965;-0.082912;5.25;4.25;6.5;3.75;2.25;1.25;0.0;0.75;0.25;1.5;3.25;3.0;1.5;5.0;0.5;2.0;-0.240723;0.022461;0.98291;-0.42;-1.75;0.42;413.0;-0.072411;-0.0574
1.56;4.25;4.75;4.25;5.25;0.5;1.25;0.0;0.25;0.5;1.5;2.5;2.25;1.0;2.5;0.5;1.25;-0.212891;0.027344;0.978027;-1.96;1.61;-0.21;330.0;-0.111591;-0.079162;5.25;4.5;6.5;3.5;2.25;1.0;0.0;1.0;0.5;1.5;3.25;3.25;1.5;4.75;0.5;1.75;-0.237305;0.01709;0.98291;-0.42;-1.61;0.21;416.0;-0.071359;-0.057814
1.57;4.0;5.0;4.25;5.0;0.5;1.0;0.0;0.5;0.5;1.5;2.5;2.25;1.25;2.0;0.5;1.25;-0.209961;0.030273;0.974121;-1.89;1.75;-0.35;326.0;-0.113433;-0.087978;5.25;4.25;6.0;4.0;2.25;0.75;0.0;0.75;0.25;1.25;3.0;3.25;1.5;5.0;0.75;1.75;-0.239746;0.017578;0.986328;-0.42;-1.61;0.35;404.0;-0.070571;-0.058918
1.58;4.0;5.25;4.5;5.0;0.5;1.0;0.0;0.5;0.5;1.5;2.75;2.25;1.25;2.0;0.5;1.25;-0.209473;0.022949;0.977051;-1.96;1.68;-0.28;333.0;-0.114137;-0.087254;5.25;4.0;6.0;3.5;2.5;1.0;0.0;0.75;0.25;1.5;3.0;3.25;1.5;5.0;0.75;1.75;-0.240723;0.012695;0.981445;-0.42;-1.68;0.35;404.0;-0.064571;-0.055887
1.59;4.25;5.0;4.5;5.0;0.5;1.0;0.0;0.5;0.5;1.75;2.5;2.5;1.75;2.5;0.75;1.0;-0.211426;0.029785;0.974609;-1.89;1.68;-0.21;346.0;-0.099607;-0.085999;5.0;4.0;6.0;3.75;2.25;1.25;0.0;0.75;0.25;1.25;2.75;3.25;1.75;4.75;0.5;1.75;-0.238281;0.013184;0.983887;-0.42;-1.61;0.28;396.0;-0.072423;-0.064122
1.6;4.25;5.25;4.5;5.0;0.5;1.0;0.0;0.25;0.5;1.25;2.5;2.5;1.25;2.5;0.75;1.0;-0.209961;0.022949;0.975586;-1.89;1.68;-0.28;335.0;-0.111531;-0.080548;5.0;4.25;6.0;4.0;2.25;1.25;0.0;0.75;0.25;1.25;3.0;3.25;1.25;4.75;0.75;1.75;-0.239746;0.018066;0.988281;-0.42;-1.68;0.28;402.0;-0.073387;-0.061976
1.61;4.5;5.25;4.25;5.25;0.5;1.0;0.0;0.25;0.25;1.0;2.5;2.25;1.25;2.5;0.5;1.25;-0.205566;0.029297;0.974609;-1.82;1.61;-0.28;328.0;-0.125237;-0.085615;5.25;4.0;6.0;4.0;2.0;1.0;0.0;0.75;0.25;1.5;3.25;3.25;1.25;4.5;0.5;1.75;-0.241211;0.015625;0.986328;-0.35;-1.68;0.35;397.0;-0.07441;-0.060349
1.62;4.5;5.0;4.0;5.25;0.5;1.25;0.0;0.25;0.25;1.25;2.5;2.5;1.25;2.25;0.5;1.25;-0.203613;0.030762;0.981445;-1.96;1.68;-0.35;329.0;-0.12014;-0.090292;5.5;4.0;5.5;3.5;2.0;1.0;0.0;0.75;0.25;1.5;3.25;3.25;1.5;5.0;0.5;1.75;-0.239258;0.02002;0.98877;-0.35;-1.75;0.28;395.0;-0.064327;-0.058707
1.63;4.25;5.0;4.0;5.25;0.5;1.25;0.0;0.5;0.5;1.5;2.5;2.5;1.25;2.0;0.75;1.25;-0.210449;0.029297;0.979492;-1.82;1.82;-0.28;336.0;-0.109535;-0.092129;5.25;4.0;5.5;3.5;2.0;1.0;0.0;0.75;0.25;1.25;3.25;3.25;1.25;4.75;0.75;1.75;-0.236816;0.019043;0.983887;-0.35;-1.61;0.35;389.0;-0.064832;-0.059851
1.64;4.25;5.0;4.5;5.25;0.5;1.25;0.0;0.25;0.5;1.5;2.5;2.5;1.25;2.0;0.75;1.0;-0.208008;0.026855;0.978027;-1.96;1.82;-0.28;337.0;-0.115117;-0.084841;5.25;4.25;6.0;3.75;2.25;0.75;0.0;0.75;0.5;1.5;3.25;3.0;1.5;4.75;0.5;1.75;-0.236328;0.019043;0.989746;-0.35;-1.75;0.28;402.0;-0.070006;-0.054198
1.65;4.25;5.0;4.5;5.25;0.5;1.25;0.0;0.0;0.5;1.5;2.5;2.5;1.25;2.0;1.0;1.0;-0.212402;0.026855;0.976562;-1.89;1.82;-0.28;336.0;-0.112185;-0.081339;5.25;4.0;6.0;3.75;2.25;1.25;0.0;0.75;0.5;1.5;3.25;3.25;1.25;5.0;0.5;1.75;-0.242188;0.016602;0.982422;-0.42;-1.75;0.35;408.0;-0.066097;-0.054671
1.66;4.5;5.0;4.5;5.25;0.5;1.25;0.0;0.25;0.5;1.5;2.75;2.5;1.5;2.0;0.75;1.25;-0.206543;0.028809;0.973145;-1.96;1.68;-0.21;345.0;-0.111036;-0.086889;5.25;4.0;6.0;3.75;2.25;1.0;0.0;1.0;0.25;1.5;3.0;3.25;1.5;5.0;0.5;2.0;-0.23877;0.020996;0.980957;-0.42;-1.75;0.28;406.0;-0.066811;-0.061655
1.67;4.5;5.25;4.5;5.25;0.5;1.25;0.0;0.5;0.25;1.25;2.75;2.5;1.25;1.75;0.75;1.25;-0.20166;0.03125;0.976562;-1.96;1.82;-0.28;341.0;-0.123241;-0.094704;5.25;4.0;6.0;3.75;2.25;1.0;0.0;1.0;0.25;1.5;3.0;3.25;1.5;5.0;0.25;2.0;-0.240234;0.018066;0.989746;-0.49;-1.68;0.28;404.0;-0.069901;-0.061522
1.68;4.25;5.0;4.5;5.25;0.5;1.25;0.0;0.5;0.5;1.25;2.5;2.5;1.5;2.0;0.5;1.25;-0.210449;0.024902;0.976074;-2.03;1.75;-0.35;339.0;-0.117021;-0.092777;5.25;4.25;6.0;3.75;2.25;1.25;0.0;1.0;0.25;1.5;3.25;3.0;1.5;5.0;0.5;2.0;-0.236816;0.020508;0.991699;-0.35;-1.75;0.35;411.0;-0.069235;-0.062482
1.69;4.25;5.0;4.5;5.75;0.5;1.25;0.0;0.5;0.5;1.5;2.5;2.5;1.5;2.25;0.5;1.25;-0.210938;0.02832;0.978516;-1.96;1.75;-0.21;349.0;-0.113807;-0.092037;5.5;4.0;6.0;3.75;2.25;1.25;0.0;0.75;0.25;1.5;3.25;3.25;1.5;4.75;0.5;2.0;-0.246582;0.016113;0.981934;-0.35;-1.61;0.28;408.0;-0.070643;-0.060501
1.7;4.25;5.0;4.0;5.25;0.5;1.0;0.0;0.5;0.5;1.5;2.5;2.5;1.5;2.5;0.5;1.25;-0.208008;0.026367;0.973633;-2.03;1.82;-0.28;337.0;-0.10484;-0.089717;5.25;4.0;6.0;4.0;2.0;1.0;0.0;0.5;0.25;1.5;3.0;3.25;1.5;4.75;0.5;1.75;-0.239258;0.011719;0.986328;-0.49;-1.68;0.21;395.0;-0.073037;-0.057709
1.71;4.25;5.25;4.25;5.0;0.5;1.25;0.0;0.5;0.5;1.25;2.25;2.5;1.5;2.25;0.5;1.25;-0.208496;0.032715;0.976562;-1.89;1.75;-0.21;335.0;-0.115762;-0.091818;5.5;4.0;6.0;3.5;2.25;1.0;0.0;0.75;0.25;1.5;3.0;3.25;1.25;4.75;0.5;1.75;-0.240723;0.018555;0.989746;-0.42;-1.68;0.42;397.0;-0.073328;-0.054487
1.72;4.5;5.0;4.5;5.0;0.5;1.0;0.0;0.5;0.5;1.5;2.5;2.5;1.25;2.25;0.5;1.0;-0.211914;0.030273;0.971191;-1.82;1.75;-0.21;337.0;-0.115211;-0.082526;5.5;4.0;6.0;3.5;2.25;1.25;0.0;1.0;0.25;1.5;3.0;3.0;1.5;4.75;0.5;2.0;-0.242676;0.023438;0.985352;-0.35;-1.68;0.35;404.0;-0.072362;-0.060612
1.73;4.75;5.0;4.25;5.25;0.5;1.0;0.0;0.5;0.5;1.5;2.5;2.5;1.0;2.5;0.5;1.0;-0.211426;0.021484;0.975586;-2.17;1.89;-0.28;340.0;-0.11607;-0.07958;5.25;4.25;6.5;3.5;2.0;1.0;0.0;0.75;0.5;1.75;3.25;3.0;1.5;5.0;0.5;1.75;-0.235352;0.020996;0.98584;-0.35;-1.82;0.42;410.0;-0.066909;-0.051372
1.74;4.5;5.0;4.25;5.25;0.5;1.25;0.0;0.5;0.5;1.5;2.25;2.25;1.25;2.5;0.5;1.0;-0.206055;0.024414;0.973633;-2.03;1.68;-0.21;337.0;-0.117518;-0.083075;5.0;4.0;6.0;4.0;2.0;1.0;0.0;0.75;0.5;1.5;3.25;3.0;1.5;5.0;0.5;1.75;-0.23584;0.012695;0.985352;-0.35;-1.68;0.28;402.0;-0.064981;-0.056812
1.75;4.25;5.0;4.0;5.0;0.5;1.0;0.0;0.25;0.5;1.5;2.5;2.5;1.5;2.0;0.25;1.25;-0.211426;0.02832;0.975586;-1.96;1.82;-0.21;324.0;-0.115344;-0.088599;5.25;4.0;5.5;4.0;2.25;1.0;0.0;0.75;0.5;1.5;3.25;3.0;1.75;5.0;0.5;1.75;-0.242676;0.017578;0.989258;-0.35;-1.75;0.21;404.0;-0.063528;-0.059138
1.76;4.0;5.0;4.25;5.0;0.5;1.25;0.0;0.5;0.5;1.5;2.5;2.0;1.5;2.5;0.25;1.5;-0.205566;0.025391;0.972168;-2.03;1.82;-0.28;331.0;-0.109892;-0.087845;5.25;4.25;6.5;3.5;2.25;1.25;0.0;1.0;0.5;1.5;3.25;3.25;1.5;4.5;0.75;2.0;-0.23877;0.016602;0.990234;-0.42;-1.75;0.35;419.0;-0.068035;-0.060797
1.77;4.5;5.25;4.5;5.0;0.5;1.25;0.0;0.5;0.5;1.25;2.25;2.25;1.5;2.5;0.25;0.75;-0.212402;0.026367;0.974609;-1.96;1.75;-0.21;335.0;-0.126411;-0.08371;5.25;4.25;6.5;3.75;2.25;1.25;0.0;0.5;0.5;1.5;3.25;3.25;1.25;4.5;0.5;1.75;-0.242676;0.019531;0.981934;-0.42;-1.75;0.35;408.0;-0.076314;-0.052609
1.78;4.0;5.25;4.5;5.0;0.5;1.25;0.0;0.5;0.5;1.25;2.5;2.25;1.25;2.5;0.25;0.75;-0.205566;0.030762;0.981934;-2.03;1.89;-0.35;330.0;-0.121215;-0.084505;5.25;4.0;6.0;4.0;2.25;1.0;0.0;0.75;0.5;1.5;3.25;3.25;1.5;4.5;0.5;1.75;-0.242188;0.02002;0.981445;-0.42;-1.68;0.35;406.0;-0.070784;-0.05897
1.79;4.25;5.0;4.25;5.0;0.5;1.25;0.0;0.5;0.25;1.25;2.5;2.5;1.25;2.5;0.25;1.0;-0.209961;0.028809;0.98291;-1.96;1.68;-0.28;328.0;-0.119258;-0.090108;5.25;4.25;6.0;3.75;2.25;1.25;0.0;0.75;0.5;1.5;3.25;3.25;1.75;4.75;0.25;1.75;-0.241211;0.019043;0.985352;-0.42;-1.75;0.42;410.0;-0.071106;-0.060633
1.8;4.5;5.0;4.25;5.25;0.5;1.25;0.0;0.5;0.25;1.75;2.5;2.5;1.5;2.5;0.5;1.0;-0.20752;0.028809;0.977051;-1.96;1.82;-0.28;343.0;-0.111438;-0.089637;5.25;4.25;6.0;4.0;2.25;1.25;0.0;1.0;0.5;1.5;3.0;3.25;1.25;5.0;0.25;2.0;-0.238281;0.018555;0.97998;-0.42;-1.82;0.28;413.0;-0.072496;-0.059822
1.81;4.5;5.0;4.0;5.0;0.5;1.25;0.0;0.5;0.5;1.5;2.5;2.5;1.25;2.5;0.5;1.0;-0.206055;0.027344;0.977539;-1.89;1.68;-0.28;336.0;-0.109676;-0.085269;5.5;4.0;6.0;4.0;2.0;1.25;0.0;1.0;0.5;1.5;3.25;3.25;1.5;4.75;0.25;1.75;-0.23877;0.011719;0.984863;-0.42;-1.68;0.35;412.0;-0.073065;-0.061836
1.82;4.25;5.25;4.5;5.0;0.5;1.25;0.0;0.5;0.5;1.25;2.25;2.0;1.25;2.25;0.75;1.0;-0.209473;0.028809;0.974121;-2.03;1.75;-0.21;332.0;-0.121842;-0.083655;5.25;4.25;6.5;4.0;2.25;1.25;0.0;1.0;0.5;1.5;3.25;3.25;1.25;5.0;0.25;1.75;-0.237305;0.019531;0.988281;-0.28;-1.75;0.28;420.0;-0.074604;-0.057366
1.83;4.25;5.25;4.5;5.25;0.5;1.0;0.0;0.5;0.5;1.5;2.25;2.0;1.25;2.5;0.25;0.75;-0.205078;0.029297;0.975098;-2.17;1.68;-0.21;330.0;-0.127095;-0.079495;5.25;4.25;6.0;4.0;2.25;1.5;0.0;0.75;0.25;1.5;3.25;3.25;1.5;5.0;0.5;1.75;-0.237305;0.020996;0.993164;-0.35;-1.61;0.28;414.0;-0.07139;-0.062574
1.84;4.5;5.0;4.5;5.25;0.75;1.25;0.0;0.5;0.5;1.25;2.5;2.25;1.25;2.25;0.25;1.0;-0.202637;0.027832;0.972656;-2.03;1.75;-0.21;337.0;-0.126337;-0.083513;5.25;4.25;6.0;3.75;2.25;1.5;0.0;0.75;0.0;1.5;3.25;3.25;1.5;5.0;0.25;1.75;-0.245117;0.018066;0.98877;-0.42;-1.68;0.28;406.0;-0.075677;-0.064067
1.85;4.5;5.25;4.5;5.25;0.75;1.25;0.0;0.5;0.5;1.25;2.5;2.5;1.25;2.5;0.25;1.0;-0.219727;0.026855;0.975098;-1.96;1.82;-0.35;345.0;-0.122384;-0.084075;5.0;4.0;6.0;3.25;2.25;0.75;0.0;0.75;0.25;1.5;3.25;3.0;1.5;5.0;0.0;1.75;-0.244141;0.018555;0.984863;-0.42;-1.68;0.35;385.0;-0.069224;-0.053321
1.86;4.5;5.25;4.5;5.25;0.5;1.25;0.0;0.5;0.5;1.5;2.5;2.5;1.5;2.5;0.5;1.0;-0.207031;0.025879;0.977051;-1.96;1.75;-0.28;349.0;-0.113857;-0.086444;5.25;3.5;6.0;3.5;2.0;0.75;0.0;0.75;0.0;1.5;3.25;3.25;1.5;5.0;0.0;1.5;-0.237793;0.019043;0.979492;-0.42;-1.75;0.28;381.0;-0.070867;-0.056477
1.87;4.25;5.0;4.5;5.25;0.5;1.25;0.0;0.5;0.5;1.5;2.5;2.5;1.25;2.25;0.25;1.0;-0.209961;0.028809;0.982422;-2.03;1.82;-0.21;337.0;-0.118777;-0.086689;5.25;3.5;6.0;4.0;2.25;0.75;0.0;0.75;0.0;1.5;3.25;3.25;1.5;4.75;0.0;2.0;-0.23584;0.018555;0.989746;-0.42;-1.75;0.35;390.0;-0.073931;-0.061086
1.88;4.0;5.25;4.5;5.0;0.5;1.25;0.0;0.5;0.5;1.0;2.5;2.5;1.25;2.25;0.25;1.25;-0.209961;0.02832;0.980469;-1.96;1.75;-0.21;331.0;-0.120907;-0.090928;5.25;4.0;6.0;3.75;2.25;1.0;0.0;1.0;0.25;1.5;3.25;3.25;1.5;4.75;0.5;2.0;-0.240234;0.021484;0.989258;-0.42;-1.82;0.28;407.0;-0.067437;-0.063256
1.89;4.5;5.25;4.0;5.25;0.5;1.25;0.0;0.5;0.5;1.5;2.5;2.5;1.25;2.25;0.5;1.0;-0.208496;0.03418;0.979492;-2.03;1.68;-0.28;339.0;-0.116474;-0.088596;5.25;4.25;6.5;3.5;2.5;1.25;0.0;1.0;0.5;1.5;3.25;3.25;1.5;5.0;0.25;2.0;-0.240234;0.02002;0.988281;-0.35;-1.68;0.28;420.0;-0.069492;-0.057317
1.9;4.5;5.25;4.25;5.75;0.5;1.25;0.0;0.5;0.5;1.5;2.5;2.5;1.25;2.25;0.5;1.0;-0.207031;0.03125;0.977051;-2.1;1.61;-0.28;348.0;-0.12037;-0.089319;5.25;3.75;5.5;3.75;2.5;1.25;0.0;1.0;0.5;1.5;3.25;3.25;1.5;4.75;0.25;2.0;-0.242188;0.021484;0.983887;-0.42;-1.82;0.28;405.0;-0.064153;-0.062487
1.91;4.25;5.0;4.5;5.25;0.5;1.25;0.0;0.5;0.5;1.5;2.5;2.5;1.25;2.0;0.5;1.0;-0.202148;0.027344;0.972168;-2.1;1.68;-0.28;338.0;-0.118028;-0.088319;5.25;4.0;6.5;3.75;2.5;1.0;0.0;1.0;0.25;1.5;3.25;3.25;1.5;4.75;0.0;2.0;-0.239258;0.020996;0.990723;-0.63;-1.75;0.28;410.0;-0.076616;-0.060103
1.92;4.25;5.0;4.5;5.0;0.5;1.5;0.0;0.5;0.5;1.5;2.5;2.5;1.25;2.0;0.25;1.25;-0.206055;0.02832;0.975098;-1.96;1.75;-0.35;337.0;-0.119098;-0.089655;5.0;4.25;6.5;3.25;2.25;1.0;0.0;0.75;0.25;1.5;3.25;3.25;1.25;5.0;0.0;2.0;-0.242188;0.019043;0.990723;-0.49;-1.68;0.28;398.0;-0.072552;-0.053748
1.93;4.75;5.25;4.5;5.25;0.5;1.25;0.0;0.5;0.5;1.5;2.5;2.5;1.25;2.25;0.25;0.75;-0.203613;0.024902;0.975586;-1.96;1.75;-0.28;343.0;-0.126957;-0.083377;5.25;4.0;6.0;3.5;2.25;1.0;0.0;1.0;0.25;1.5;3.0;3.5;1.5;4.75;0.25;2.0;-0.243652;0.01709;0.986328;-0.42;-1.82;0.21;402.0;-0.069147;-0.063211
1.94;4.5;5.25;4.5;5.75;0.5;1.5;0.0;0.5;0.5;1.5;2.5;2.5;1.25;2.0;0.5;1.0;-0.211914;0.02832;0.977051;-1.96;1.75;-0.21;351.0;-0.125004;-0.090941;5.5;4.0;6.0;3.5;2.25;1.25;0.0;1.0;0.5;1.5;3.25;3.25;1.5;5.0;0.25;2.0;-0.239258;0.016113;0.987793;-0.49;-1.75;0.28;412.0;-0.066622;-0.05844
1.95;4.5;5.0;4.5;5.25;0.5;1.25;0.0;0.5;0.5;1.5;2.5;2.5;1.25;2.0;0.5;1.25;-0.211914;0.02832;0.970703;-2.03;1.68;-0.21;342.0;-0.118285;-0.087722;5.25;4.0;6.5;4.0;2.25;1.5;0.0;0.75;0.5;1.5;3.0;3.0;1.5;5.0;0.5;1.75;-0.239258;0.02002;0.989746;-0.49;-1.89;0.35;416.0;-0.073151;-0.055495
1.96;4.25;4.75;4.25;5.0;0.5;0.75;0.0;0.5;0.5;1.25;2.5;2.5;1.25;2.0;0.5;1.25;-0.206055;0.029785;0.981934;-2.1;1.89;-0.28;323.0;-0.113487;-0.087204;5.25;4.25;6.5;3.75;2.25;1.5;0.0;1.0;0.5;1.5;3.0;3.0;1.5;4.75;0.5;1.75;-0.238281;0.024902;0.986328;-0.49;-1.75;0.28;417.0;-0.075564;-0.059252
1.97;4.25;4.75;4.0;5.0;0.5;0.75;0.0;0.5;0.25;1.5;2.25;2.5;1.5;2.25;0.25;1.0;-0.208496;0.023438;0.975098;-1.96;1.68;-0.21;318.0;-0.116746;-0.090858;5.25;4.0;6.0;3.75;2.25;1.0;0.0;0.75;0.5;1.5;3.25;3.25;1.75;5.0;0.25;1.75;-0.231934;0.019531;0.986328;-0.28;-1.68;0.28;407.0;-0.066075;-0.057368
1.98;4.25;4.75;4.25;5.0;0.5;1.0;0.0;0.5;0.5;1.25;2.5;2.25;1.5;2.25;0.5;1.0;-0.211426;0.027832;0.976074;-2.03;1.82;-0.35;326.0;-0.113075;-0.086884;5.5;4.0;6.0;3.75;2.5;1.25;0.0;0.75;0.25;1.5;3.25;3.25;1.5;5.0;0.25;2.0;-0.23584;0.016113;0.98584;-0.49;-1.68;0.42;411.0;-0.071565;-0.058313
1.99;4.75;4.75;4.25;5.25;0.5;1.0;0.0;0.5;0.25;1.25;2.5;2.25;1.5;2.25;0.5;1.0;-0.206543;0.023438;0.978516;-2.03;1.68;-0.21;331.0;-0.122709;-0.088537;5.25;4.0;6.0;3.75;2.5;1.25;0.0;0.75;0.25;1.5;3.25;3.25;1.5;5.0;0.25;2.0;-0.23584;0.018066;0.98291;-0.42;-1.68;0.49;408.0;-0.069462;-0.059373
2.0;4.25;5.0;4.25;5.0;0.5;1.0;0.0;0.5;0.25;1.5;2.5;2.25;1.5;2.25;0.5;1.0;-0.205078;0.030273;0.976074;-1.96;1.75;-0.21;328.0;-0.116089;-0.089848;5.0;4.0;6.0;3.5;2.5;1.0;0.0;0.75;0.5;1.5;3.25;3.0;1.25;5.0;0.5;2.0;-0.242188;0.016113;0.984863;-0.42;-1.68;0.42;401.0;-0.062588;-0.051581
2.01;4.5;5.25;4.25;5.0;0.5;1.25;0.0;0.5;0.5;1.5;2.5;2.25;1.5;2.5;0.5;1.25;-0.212402;0.028809;0.974609;-1.96;1.75;-0.21;342.0;-0.111829;-0.086059;5.0;4.0;6.0;3.5;2.5;1.25;0.0;0.75;0.5;1.5;3.25;3.25;1.5;5.0;0.5;2.0;-0.238281;0.018555;0.992188;-0.49;-1.75;0.35;409.0;-0.060207;-0.056803
2.02;4.75;5.25;4.5;5.25;0.5;1.25;0.0;0.5;0.25;1.5;2.25;2.5;1.5;2.5;0.75;1.25;-0.206543;0.026855;0.974609;-1.89;1.75;-0.21;350.0;-0.116238;-0.089004;5.25;4.25;6.5;3.5;2.5;1.25;0.0;0.75;0.5;1.5;3.25;3.25;1.5;5.0;0.75;2.0;-0.239746;0.019531;0.984863;-0.49;-1.75;0.42;422.0;-0.064057;-0.054609
2.03;4.5;5.25;4.25;5.0;0.5;1.0;0.0;0.5;0.0;1.25;2.25;2.25;1.5;2.0;0.5;1.25;-0.206055;0.02832;0.975586;-2.03;1.75;-0.21;324.0;-0.131396;-0.096208;5.5;4.25;6.0;3.75;2.5;1.25;0.0;0.75;0.5;1.5;3.25;3.25;1.5;5.0;0.75;2.0;-0.23877;0.018066;0.986816;-0.35;-1.82;0.28;421.0;-0.064925;-0.056618
2.04;4.5;5.25;4.5;4.75;0.5;1.0;0.0;0.5;0.25;1.0;2.5;2.25;1.25;2.25;0.5;1.0;-0.20459;0.020508;0.975098;-2.03;1.68;-0.21;326.0;-0.12793;-0.086118;5.5;4.25;6.0;4.0;2.25;1.0;0.0;0.75;0.5;1.75;3.25;3.25;1.5;5.0;0.75;1.75;-0.243164;0.018555;0.98584;-0.28;-1.68;0.28;420.0;-0.064905;-0.055509
2.05;4.5;5.0;4.0;5.0;0.5;1.0;0.0;0.5;0.25;1.0;2.5;2.5;1.25;2.5;0.5;1.25;-0.211426;0.022949;0.980957;-1.96;1.96;-0.21;327.0;-0.116608;-0.090634;5.25;4.25;6.0;4.0;2.0;1.0;0.0;0.75;0.25;1.5;3.25;3.25;1.5;5.0;0.5;1.75;-0.239746;0.019531;0.989258;-0.35;-1.68;0.35;406.0;-0.069944;-0.060595
2.06;4.5;5.25;4.25;5.0;0.5;1.0;0.0;0.5;0.5;1.0;2.5;2.5;1.5;2.5;0.5;1.0;-0.208496;0.019531;0.974609;-1.96;1.89;-0.28;336.0;-0.116355;-0.087592;5.25;4.25;6.5;3.75;2.5;1.0;0.0;1.0;0.25;1.5;3.25;3.25;1.5;5.0;0.75;1.75;-0.234375;0.018066;0.984375;-0.42;-1.75;0.42;421.0;-0.068335;-0.059076
2.07;4.5;5.25;4.25;5.75;0.5;1.0;0.0;0.5;0.5;1.25;2.5;2.25;1.0;2.0;0.5;1.25;-0.210449;0.02832;0.985352;-1.96;1.89;-0.21;337.0;-0.12877;-0.087601;5.25;4.0;6.5;3.75;2.5;1.0;0.0;0.75;0.25;1.5;3.25;3.25;1.75;5.0;0.75;2.0;-0.239746;0.021484;0.98877;-0.42;-1.68;0.35;418.0;-0.064304;-0.058372
2.08;4.5;5.0;4.25;5.25;0.25;1.0;0.0;0.5;0.5;1.5;2.5;2.25;1.25;2.25;0.5;1.5;-0.203125;0.027832;0.980957;-1.96;1.89;-0.21;334.0;-0.113974;-0.086506;5.5;4.25;6.5;4.0;2.25;1.0;0.0;0.75;0.5;1.5;3.0;3.25;1.5;4.75;0.5;2.0;-0.245605;0.019043;0.988281;-0.35;-1.54;0.42;417.0;-0.075352;-0.055801
2.09;4.25;5.0;4.5;5.25;0.25;1.0;0.0;0.5;0.5;1.25;2.25;2.75;1.25;2.25;0.5;1.25;-0.204102;0.027832;0.973633;-1.89;1.89;-0.28;333.0;-0.115263;-0.089875;5.5;4.25;6.0;3.75;2.25;1.25;0.0;0.75;0.5;1.5;3.0;3.25;1.5;5.0;0.5;1.75;-0.240723;0.018066;0.987793;-0.49;-1.68;0.35;412.0;-0.070788;-0.056017
2.1;4.25;5.25;4.25;5.25;0.25;1.0;0.0;0.5;0.5;1.75;2.25;2.5;1.25;2.5;0.5;1.0;-0.209961;0.030762;0.978516;-2.03;1.75;-0.21;336.0;-0.111697;-0.085294;5.5;4.25;6.5;3.75;2.0;1.0;0.0;0.75;0.25;1.5;3.25;3.25;1.5;5.0;0.5;1.75;-0.241699;0.015137;0.983887;-0.42;-1.68;0.28;412.0;-0.073241;-0.056403
2.11;4.0;5.0;4.25;5.0;0.5;1.25;0.0;0.5;0.5;1.5;2.25;2.5;1.25;2.25;0.5;1.0;-0.20459;0.02832;0.978027;-2.03;1.75;-0.21;329.0;-0.112427;-0.088297;5.25;4.0;6.5;3.75;2.0;1.0;0.0;0.75;0.25;1.5;3.0;3.25;1.5;4.75;0.5;2.0;-0.234375;0.016113;0.984375;-0.42;-1.68;0.28;403.0;-0.072209;-0.058553
2.12;4.25;5.0;4.25;5.25;0.5;1.25;0.0;0.5;0.5;1.75;2.25;2.0;1.25;2.0;0.5;1.0;-0.208008;0.028809;0.974609;-1.89;1.61;-0.28;330.0;-0.121905;-0.085089;5.5;4.25;6.5;3.75;2.25;1.0;0.0;0.75;0.25;1.5;3.25;3.25;1.5;5.0;0.5;1.75;-0.238281;0.01123;0.987793;-0.49;-1.82;0.35;414.0;-0.073586;-0.055623
2.13;4.5;5.0;4.5;5.25;0.5;1.25;0.0;0.5;0.5;1.25;2.5;2.0;1.25;2.5;0.5;1.25;-0.205078;0.025879;0.977539;-1.89;1.68;-0.28;338.0;-0.119455;-0.082306;5.25;4.25;6.5;3.75;2.25;1.0;0.0;0.5;0.25;1.5;3.25;3.25;1.5;5.0;0.75;2.0;-0.239746;0.023438;0.985352;-0.35;-1.75;0.21;412.0;-0.067578;-0.054572
2.14;4.5;5.0;4.25;5.25;0.5;1.25;0.0;0.5;0.5;1.5;2.5;2.5;1.25;2.5;0.5;1.0;-0.211426;0.029297;0.976562;-1.89;1.61;-0.28;342.0;-0.112375;-0.084965;5.5;4.25;6.0;3.75;2.25;1.5;0.0;0.75;0.5;1.5;3.25;3.5;1.5;5.0;0.75;2.0;-0.23877;0.021484;0.98877;-0.42;-1.96;0.35;424.0;-0.063397;-0.060255
2.15;4.5;5.0;4.5;5.0;0.5;1.5;0.0;0.5;0.25;1.75;2.5;2.25;1.25;2.5;0.75;1.0;-0.210449;0.024414;0.975098;-2.03;1.54;-0.28;344.0;-0.11186;-0.084579;5.25;4.25;6.5;3.5;2.25;1.25;0.0;1.0;0.25;1.5;3.25;3.25;1.5;5.0;0.75;1.75;-0.22998;0.022949;0.989258;-0.42;-1.82;0.21;418.0;-0.06707;-0.06017
2.16;4.5;5.0;4.5;5.0;0.5;1.0;0.0;0.5;0.25;1.5;2.5;2.25;1.0;2.0;0.5;1.0;-0.209473;0.027832;0.974121;-1.96;1.68;-0.21;327.0;-0.126865;-0.083561;5.0;4.0;6.5;4.0;2.5;1.25;0.0;0.75;0.25;1.5;3.25;3.25;1.25;5.0;0.5;1.75;-0.236328;0.021973;0.992676;-0.42;-1.82;0.14;413.0;-0.071099;-0.056716
2.17;4.5;5.25;4.5;5.25;0.5;1.0;0.0;0.5;0.5;1.5;2.5;2.5;1.0;1.75;0.5;1.0;-0.210449;0.030273;0.973633;-1.89;1.68;-0.28;336.0;-0.127217;-0.085115;5.25;4.0;5.5;4.0;2.25;1.25;0.0;1.0;0.25;1.5;3.25;3.25;1.75;5.0;0.5;1.75;-0.239258;0.019043;0.985352;-0.49;-1.75;0.28;410.0;-0.064446;-0.067831
2.18;4.5;4.75;4.5;5.0;0.5;1.0;0.0;0.5;0.5;1.25;2.25;2.5;1.25;1.75;0.5;1.25;-0.214355;0.027832;0.978516;-1.96;1.82;-0.21;327.0;-0.12355;-0.087185;5.25;4.0;6.0;3.75;2.5;1.25;0.0;1.0;0.5;1.5;3.25;3.25;1.5;5.0;0.5;1.75;-0.239746;0.014648;0.983887;-0.42;-1.82;0.28;416.0;-0.06477;-0.059103
2.19;4.5;5.0;4.5;5.0;0.5;1.0;0.0;0.5;0.5;1.25;2.5;2.5;1.25;2.0;0.5;1.25;-0.205566;0.027344;0.979004;-2.03;1.75;-0.21;334.0;-0.119412;-0.086266;5.25;4.0;5.5;3.75;2.0;1.25;0.0;1.0;0.5;1.5;3.25;3.25;1.5;5.0;0.5;1.75;-0.240723;0.019531;0.983887;-0.42;-1.68;0.28;405.0;-0.061187;-0.062777
2.2;4.5;5.0;4.25;5.0;0.5;0.75;0.0;0.5;0.25;1.5;2.75;2.5;1.0;2.25;0.25;1.0;-0.211426;0.03125;0.980957;-1.82;1.61;-0.35;326.0;-0.120714;-0.08374;5.0;4.0;6.0;4.0;2.25;1.25;0.0;0.75;0.25;1.5;3.25;3.25;1.5;5.0;0.25;1.75;-0.236816;0.020996;0.986816;-0.35;-1.54;0.21;404.0;-0.069872;-0.061539
2.21;4.25;5.0;4.5;5.0;0.25;1.0;0.0;0.5;0.25;1.5;2.25;2.5;1.25;2.0;0.5;1.25;-0.206055;0.02832;0.981445;-1.89;1.61;-0.28;325.0;-0.120787;-0.091255;5.25;4.0;6.0;4.0;2.25;1.25;0.0;0.75;0.25;1.5;3.25;3.25;1.5;5.0;0.25;1.75;-0.239258;0.020508;0.98877;-0.35;-1.61;0.28;407.0;-0.071992;-0.060454
2.22;4.0;5.0;4.25;4.75;0.5;1.25;0.0;0.25;0.5;1.5;2.25;2.5;1.25;2.0;0.5;1.25;-0.208008;0.029785;0.971191;-2.03;1.61;-0.35;322.0;-0.113595;-0.086256;5.25;4.0;6.0;4.0;2.25;1.25;0.0;0.75;0.5;1.25;3.25;3.25;1.5;5.0;0.5;2.0;-0.241211;0.016602;0.990723;-0.49;-1.68;0.28;411.0;-0.066862;-0.059553
2.23;4.25;5.25;4.5;5.25;0.5;1.25;0.0;0.5;0.5;1.75;2.5;2.5;1.5;2.5;0.5;1.0;-0.208984;0.028809;0.978516;-1.89;1.68;-0.21;349.0;-0.109074;-0.086772;5.25;4.0;6.0;3.75;2.25;1.25;0.0;0.75;0.25;1.25;3.25;3.25;1.5;5.0;0.5;1.75;-0.242188;0.024902;0.990234;-0.42;-1.75;0.21;404.0;-0.069418;-0.06028
2.24;4.25;4.75;4.5;5.25;0.5;1.0;0.0;0.5;0.5;1.0;2.5;2.25;1.25;2.25;0.5;1.25;-0.209473;0.027344;0.976074;-1.96;1.61;-0.35;328.0;-0.118529;-0.086199;5.25;4.0;6.0;3.75;2.25;1.5;0.0;1.0;0.25;1.5;3.25;3.25;1.5;5.0;0.25;1.75;-0.237305;0.02002;0.984863;-0.35;-1.75;0.35;410.0;-0.070531;-0.063835
2.25;4.25;5.0;4.5;5.25;0.5;1.25;0.0;0.5;0.5;1.25;2.5;2.5;1.25;2.25;0.25;0.75;-0.208984;0.026855;0.977051;-1.96;1.47;-0.28;333.0;-0.123532;-0.086938;5.25;4.0;6.0;3.75;2.5;1.0;0.0;0.75;0.0;1.5;3.0;3.25;1.25;5.0;0.25;1.75;-0.237305;0.019043;0.986328;-0.42;-1.75;0.21;396.0;-0.076321;-0.057217
2.26;4.25;4.75;4.25;5.25;0.5;1.0;0.0;0.5;0.5;1.5;2.25;2.5;1.25;2.25;0.25;1.25;-0.208496;0.029297;0.973145;-2.03;1.54;-0.21;328.0;-0.115927;-0.08679;5.25;4.25;6.0;3.5;2.25;0.75;0.0;0.75;0.25;1.5;3.25;3.25;1.5;5.0;0.75;1.75;-0.243164;0.022461;0.987793;-0.42;-1.75;0.28;403.0;-0.063692;-0.05624
2.27;4.25;4.75;4.25;5.25;0.5;1.25;0.0;0.5;0.5;1.25;2.25;2.25;1.5;2.0;0.5;1.0;-0.205566;0.029785;0.979492;-1.96;1.47;-0.28;327.0;-0.120997;-0.091077;5.25;4.0;6.0;3.75;2.5;0.75;0.0;0.75;0.25;1.5;3.25;3.25;1.5;5.25;0.25;1.75;-0.240723;0.022949;0.988281;-0.42;-1.89;0.35;403.0;-0.06725;-0.054386
2.28;4.0;5.0;4.5;5.25;0.5;1.25;0.0;0.5;0.5;1.5;2.5;2.25;1.25;2.0;0.5;1.25;-0.208984;0.026367;0.976074;-1.96;1.4;-0.28;334.0;-0.116449;-0.089127;5.25;4.25;6.0;3.75;2.25;0.75;0.0;1.0;0.25;1.5;3.25;3.25;1.5;5.0;0.0;2.0;-0.236816;0.020996;0.987305;-0.42;-1.82;0.14;403.0;-0.07252;-0.060912
2.29;4.25;4.75;4.5;5.25;0.5;1.25;0.0;0.5;0.5;1.5;2.5;2.5;1.5;2.25;0.5;1.25;-0.202148;0.025879;0.978516;-2.03;1.47;-0.14;341.0;-0.10897;-0.089402;5.25;4.25;6.5;4.0;2.5;1.25;0.0;1.0;0.25;1.5;3.25;3.25;1.5;5.0;0.25;1.75;-0.244141;0.019531;0.98291;-0.35;-1.89;0.28;421.0;-0.076249;-0.061248
2.3;4.5;5.0;4.5;5.25;0.5;1.0;0.0;0.5;0.5;1.0;2.5;2.25;1.5;2.5;0.5;1.0;-0.209961;0.029297;0.974121;-1.96;1.54;-0.21;336.0;-0.119479;-0.085075;5.25;4.25;6.5;4.0;2.5;1.25;0.0;0.75;0.5;1.5;3.25;3.25;1.5;5.0;0.75;1.75;-0.239258;0.017578;0.987793;-0.49;-1.82;0.21;426.0;-0.068289;-0.055975
2.31;4.25;5.0;4.25;5.0;0.5;1.0;0.0;0.5;0.5;1.5;2.5;2.5;1.5;2.5;0.5;1.0;-0.208984;0.024902;0.975098;-2.03;1.54;-0.21;336.0;-0.106565;-0.086222;5.0;4.25;6.0;3.75;2.25;0.75;0.0;0.75;0.5;1.5;3.25;3.25;1.75;5.25;0.75;1.75;-0.237793;0.020996;0.991211;-0.35;-1.82;0.35;411.0;-0.056805;-0.056698
2.32;4.25;5.0;4.5;5.75;0.5;1.25;0.0;0.5;0.5;1.5;2.25;2.5;1.5;2.25;0.25;1.25;-0.207031;0.03125;0.978027;-2.03;1.61;-0.14;344.0;-0.120382;-0.091931;5.0;4.0;6.5;3.75;2.25;1.25;0.0;0.75;0.25;1.5;3.25;3.25;1.5;5.0;0.5;2.0;-0.239746;0.01709;0.98291;-0.42;-1.75;0.28;411.0;-0.066598;-0.059366
2.33;4.5;5.25;4.5;5.75;0.5;1.25;0.0;0.5;0.5;1.5;2.5;2.25;1.5;2.25;0.5;1.25;-0.213867;0.025879;0.977539;-2.03;1.54;-0.21;351.0;-0.120345;-0.089516;5.0;4.0;6.5;4.0;2.5;1.25;0.0;1.0;0.25;1.5;3.5;3.25;1.25;5.0;0.75;1.75;-0.241699;0.021973;0.98584;-0.28;-1.75;0.28;422.0;-0.065742;-0.060263
2.34;4.25;5.0;4.5;5.25;0.5;1.25;0.0;0.5;0.5;1.25;2.5;2.25;1.25;2.25;0.5;1.25;-0.208496;0.029297;0.975098;-2.03;1.61;-0.21;336.0;-0.118067;-0.087097;5.25;4.25;6.5;4.0;2.5;1.75;0.0;0.75;0.25;1.75;3.75;3.25;1.5;5.0;0.25;1.75;-0.242188;0.020996;0.989746;-0.35;-1.82;0.28;431.0;-0.072189;-0.06091
2.35;4.5;5.0;4.25;5.25;0.5;1.25;0.0;0.5;0.5;1.25;2.5;2.5;1.25;2.0;0.5;1.0;-0.206543;0.029785;0.974609;-2.03;1.61;-0.28;335.0;-0.121784;-0.089456;5.25;4.0;6.0;4.0;2.25;1.5;0.0;1.0;0.5;1.75;3.25;3.25;1.75;5.0;0.25;2.0;-0.234375;0.018066;0.987305;-0.35;-1.75;0.28;423.0;-0.064879;-0.064319
2.36;4.25;5.0;4.25;5.25;0.5;1.25;0.0;0.5;0.5;1.5;2.5;2.25;1.25;2.0;0.5;1.0;-0.211914;0.029297;0.977051;-1.89;1.54;-0.28;332.0;-0.11938;-0.088166;5.25;4.0;6.5;4.0;2.5;1.25;0.0;0.75;0.25;1.5;3.25;3.25;1.5;5.0;0.5;2.0;-0.237305;0.022949;0.987793;-0.42;-1.75;0.28;419.0;-0.070506;-0.05862
2.37;4.5;5.0;4.25;5.25;0.5;1.25;0.0;0.5;0.25;1.5;2.5;2.5;1.25;2.25;0.75;1.25;-0.206055;0.03125;0.972656;-2.03;1.75;-0.21;341.0;-0.113296;-0.09095;5.25;4.25;6.75;4.0;2.5;1.5;0.0;1.0;0.25;1.5;3.25;3.25;1.75;5.0;0.5;2.0;-0.234863;0.016602;0.987793;-0.28;-1.75;0.28;433.0;-0.072406;-0.064531
2.38;4.75;5.0;4.5;5.25;0.75;1.0;0.0;0.5;0.5;1.5;2.5;2.5;1.5;2.5;0.75;1.25;-0.208496;0.023926;0.974609;-1.96;1.68;-0.28;353.0;-0.108092;-0.082755;5.0;3.5;6.75;4.0;2.5;1.25;0.0;1.0;0.5;1.5;3.25;3.25;1.5;5.25;0.5;2.0;-0.239258;0.02002;0.984375;-0.49;-1.68;0.35;424.0;-0.060525;-0.056734
2.39;4.5;5.0;4.5;5.75;0.5;0.75;0.0;0.5;0.5;1.0;2.5;2.5;1.5;2.5;0.5;1.25;-0.208008;0.025391;0.977539;-1.89;1.68;-0.21;343.0;-0.117484;-0.088344;5.5;4.0;6.5;3.75;2.5;0.75;0.0;0.75;0.25;1.5;3.5;3.25;1.5;5.0;0.75;2.0;-0.237793;0.020996;0.98877;-0.35;-1.54;0.28;419.0;-0.065223;-0.054217
2.4;4.25;5.0;4.5;5.0;0.5;1.25;0.0;0.5;0.5;1.75;2.5;2.5;1.5;2.75;0.5;1.25;-0.20459;0.028809;0.977051;-2.03;1.75;-0.28;348.0;-0.100598;-0.084424;5.25;4.25;6.0;3.5;2.25;0.75;0.0;1.0;0.5;1.75;3.25;3.25;1.5;5.0;0.25;1.75;-0.240234;0.019531;0.98584;-0.42;-1.61;0.28;408.0;-0.064786;-0.055618
2.41;4.75;5.25;4.25;5.0;0.5;1.25;0.0;0.5;0.5;1.75;2.5;2.5;1.5;2.25;0.75;1.25;-0.208496;0.026855;0.980469;-1.82;1.75;-0.28;351.0;-0.108247;-0.086656;5.25;4.25;6.5;3.25;2.25;1.0;0.0;0.75;0.5;1.5;3.25;3.25;1.5;5.0;0.25;1.75;-0.242188;0.017578;0.989258;-0.35;-1.54;0.28;407.0;-0.069064;-0.051563
2.42;4.25;5.0;4.25;5.0;0.5;1.25;0.0;0.5;0.25;1.5;2.25;2.5;1.25;2.25;0.5;1.25;-0.214355;0.027832;0.974121;-1.89;2.03;-0.21;330.0;-0.116417;-0.091275;5.25;4.0;6.5;3.5;2.25;0.75;0.0;0.75;0.5;1.5;3.25;3.25;1.5;5.0;0.25;1.75;-0.242676;0.021973;0.980957;-0.35;-1.54;0.28;405.0;-0.068007;-0.050597
2.43;4.25;5.0;4.25;5.75;0.5;1.0;0.0;0.5;0.5;1.25;2.5;2.5;1.25;2.5;0.5;1.25;-0.20752;0.030273;0.977539;-1.82;1.68;-0.21;341.0;-0.113473;-0.089234;5.25;4.0;6.0;3.75;2.0;1.0;0.0;1.0;0.5;1.5;3.25;3.25;1.5;5.0;0.5;1.75;-0.240234;0.017578;0.992676;-0.28;-1.4;0.28;408.0;-0.063374;-0.059298
2.44;4.25;4.75;4.25;5.0;0.5;1.25;0.0;0.5;0.5;1.75;2.5;2.5;1.75;2.5;0.5;1.25;-0.208496;0.029297;0.975586;-1.89;1.89;-0.21;343.0;-0.098611;-0.089304;5.5;4.0;6.0;3.75;2.25;0.75;0.0;1.0;0.5;1.5;3.25;3.5;1.5;5.0;0.5;2.0;-0.240723;0.020996;0.987305;-0.49;-1.54;0.35;415.0;-0.062206;-0.058386
2.45;4.0;5.0;4.25;5.0;0.25;0.5;0.0;0.5;0.5;1.75;2.5;2.5;1.25;2.25;0.75;1.25;-0.204102;0.025391;0.980469;-1.82;1.82;-0.07;328.0;-0.099686;-0.08485;5.25;4.0;6.0;3.75;2.25;0.75;0.0;1.0;0.25;1.5;3.25;3.25;1.5;4.75;0.75;2.0;-0.240723;0.020996;0.984863;-0.49;-1.47;0.28;407.0;-0.063799;-0.061976
2.46;4.0;5.0;4.5;5.0;0.5;1.0;0.0;0.5;0.5;1.75;2.5;2.5;1.25;2.0;0.75;1.0;-0.208008;0.029785;0.975098;-1.75;1.82;-0.21;335.0;-0.107252;-0.085996;5.25;3.25;5.5;3.5;2.25;1.0;0.0;0.75;0.25;1.5;3.25;3.25;1.5;5.0;0.75;2.0;-0.236328;0.019043;0.98584;-0.42;-1.47;0.14;393.0;-0.051689;-0.058121
2.47;4.25;5.0;4.25;5.25;0.25;1.25;0.0;0.5;0.5;1.5;2.5;2.5;1.5;2.0;0.5;1.25;-0.205078;0.02832;0.975098;-1.82;1.82;-0.21;336.0;-0.112953;-0.094337;5.0;3.5;5.5;3.25;2.25;1.0;0.0;1.0;0.5;1.5;3.25;3.25;1.5;5.25;0.5;1.75;-0.241699;0.016113;0.98877;-0.49;-1.61;0.21;395.0;-0.048917;-0.056837
2.48;4.0;5.0;4.25;5.0;0.25;1.25;0.0;0.5;0.5;1.75;2.5;2.5;1.5;2.25;0.5;1.0;-0.203613;0.027832;0.980957;-1.89;1.89;-0.21;334.0;-0.105093;-0.090981;5.0;4.0;5.5;3.5;2.0;1.25;0.0;0.75;0.5;1.75;3.25;3.25;1.5;5.0;0.5;2.0;-0.23877;0.019531;0.978516;-0.42;-1.54;0.28;400.0;-0.054498;-0.059677
2.49;4.0;4.75;4.25;5.0;0.5;1.25;0.0;0.5;0.5;1.75;2.5;2.5;1.5;2.25;0.75;1.0;-0.205078;0.029297;0.975586;-1.96;2.1;-0.28;337.0;-0.099126;-0.089158;5.0;4.0;5.5;3.5;2.0;1.0;0.0;0.75;0.25;1.5;3.25;3.25;1.5;5.0;0.5;2.0;-0.236816;0.024414;0.984375;-0.42;-1.4;0.35;392.0;-0.058374;-0.061807
2.5;4.0;4.75;4.25;5.0;0.5;1.25;0.0;0.5;0.5;1.75;2.75;2.5;1.5;2.25;0.75;1.25;-0.209961;0.025879;0.976562;-1.75;2.03;-0.14;341.0;-0.094799;-0.090258;5.0;3.75;5.5;3.5;2.25;1.0;0.0;1.0;0.25;1.5;3.25;3.25;1.5;5.0;0.75;2.0;-0.241211;0.017578;0.98584;-0.35;-1.4;0.35;398.0;-0.053248;-0.063641
2.51;4.0;4.5;4.25;5.0;0.5;1.25;0.0;0.5;0.5;1.25;2.5;2.5;1.25;2.5;0.5;1.25;-0.209473;0.027832;0.977539;-1.82;2.03;-0.21;328.0;-0.10289;-0.087838;5.25;4.0;6.0;3.5;2.25;1.25;0.0;1.0;0.5;1.5;3.25;3.25;1.5;5.0;0.75;2.0;-0.241211;0.015137;0.984863;-0.35;-1.47;0.35;415.0;-0.058511;-0.059784
2.52;4.0;4.5;4.25;5.0;0.5;1.0;0.0;0.5;0.5;1.5;2.75;2.5;1.25;2.25;0.5;1.25;-0.20752;0.028809;0.97168;-1.89;1.89;-0.28;329.0;-0.100486;-0.087049;5.0;4.0;6.0;3.75;2.25;1.25;0.0;0.75;0.5;1.5;3.25;3.25;1.5;5.0;0.75;1.75;-0.240234;0.019531;0.98584;-0.28;-1.4;0.21;410.0;-0.059684;-0.05803
2.53;4.0;5.0;4.25;4.75;0.5;1.0;0.0;0.5;0.5;1.75;2.5;2.5;0.75;2.5;0.5;1.0;-0.206055;0.025391;0.974121;-1.89;1.96;-0.21;327.0;-0.105427;-0.077943;4.75;4.0;5.5;3.75;2.25;1.25;0.0;1.0;0.25;1.5;3.25;3.25;1.75;5.5;0.75;2.0;-0.242188;0.01709;0.989746;-0.35;-1.54;0.42;410.0;-0.049289;-0.067369
2.54;4.0;4.5;4.0;4.75;0.5;1.0;0.0;0.5;0.5;1.5;2.5;2.5;1.0;2.5;0.5;1.0;-0.211914;0.031738;0.977539;-1.89;1.75;-0.21;319.0;-0.100485;-0.081894;5.25;3.25;5.5;3.5;2.25;1.25;0.0;0.75;0.25;1.5;3.25;3.25;1.5;5.25;0.25;2.25;-0.240723;0.019043;0.989746;-0.35;-1.47;0.28;394.0;-0.054588;-0.058891
2.55;4.0;4.75;4.0;5.0;0.5;0.75;0.0;0.5;0.5;1.5;2.25;2.5;1.25;2.0;0.5;1.25;-0.210449;0.024414;0.978516;-1.89;1.75;-0.28;318.0;-0.109693;-0.088877;5.25;3.25;6.0;3.5;2.0;1.5;0.0;0.75;0.25;1.5;3.25;3.25;1.5;5.25;0.25;2.0;-0.240723;0.018555;0.984375;-0.21;-1.47;0.28;398.0;-0.059145;-0.058235
2.56;3.75;4.75;4.0;4.75;0.5;1.0;0.0;0.5;0.5;1.75;2.25;2.5;1.25;2.25;0.5;1.25;-0.205566;0.028809;0.971191;-1.82;1.61;-0.35;320.0;-0.099839;-0.08786;5.0;4.0;5.5;3.5;2.0;1.0;0.0;1.0;0.25;1.5;3.5;3.25;1.5;5.5;0.5;1.75;-0.238281;0.018555;0.983887;-0.28;-1.4;0.28;401.0;-0.052497;-0.061895
2.57;3.75;4.75;4.25;4.75;0.5;1.25;0.0;0.5;0.5;1.5;2.5;2.5;1.25;2.5;0.5;1.25;-0.210938;0.027832;0.976562;-1.96;1.68;-0.21;328.0;-0.098455;-0.087591;4.75;4.0;5.5;3.75;2.0;0.75;0.0;1.0;0.25;1.25;3.25;3.25;1.5;5.25;0.5;2.0;-0.237305;0.01709;0.990234;-0.28;-1.47;0.28;392.0;-0.056029;-0.065342
2.58;4.0;4.75;4.25;4.75;0.5;1.0;0.0;0.5;0.5;1.5;2.5;2.5;1.5;2.5;0.5;1.0;-0.209473;0.027344;0.981445;-2.03;1.68;-0.28;328.0;-0.100542;-0.086041;5.0;4.0;5.5;3.5;1.75;1.0;0.0;1.0;0.5;1.5;3.25;3.25;1.5;5.0;0.25;2.0;-0.241699;0.022949;0.983887;-0.21;-1.47;0.28;393.0;-0.05796;-0.062926
2.59;4.0;4.75;4.0;4.75;0.5;0.75;0.0;0.5;0.5;1.25;2.5;2.5;1.5;2.25;0.75;1.25;-0.210449;0.027344;0.972168;-1.96;1.75;-0.28;322.0;-0.098727;-0.089862;5.25;4.0;5.5;3.25;2.0;0.75;0.0;0.75;0.5;1.5;3.0;3.25;1.5;5.0;0.5;2.0;-0.234375;0.01709;0.986816;-0.35;-1.54;0.35;389.0;-0.057663;-0.054861
2.6;4.25;4.75;4.0;4.75;0.5;0.75;0.0;0.5;0.5;1.5;2.5;2.5;1.5;2.5;0.75;1.0;-0.208984;0.025391;0.977051;-1.96;1.75;-0.35;328.0;-0.097024;-0.084415;5.0;4.0;5.5;3.25;2.0;0.75;0.0;0.75;0.25;1.5;3.0;3.5;1.5;5.0;0.75;1.75;-0.241699;0.023926;0.98584;-0.21;-1.4;0.35;387.0;-0.054504;-0.059651
2.61;4.25;4.75;4.25;4.75;0.5;1.0;0.0;0.5;0.5;1.5;2.75;2.5;1.5;2.5;0.75;1.0;-0.208984;0.02832;0.977051;-1.82;1.75;-0.28;336.0;-0.096356;-0.084743;5.0;3.75;5.5;3.5;1.75;0.75;0.0;0.75;0.5;1.5;3.25;3.25;1.75;5.25;0.5;2.0;-0.244141;0.018555;0.980469;-0.28;-1.4;0.28;391.0;-0.048691;-0.05869
2.62;4.0;4.75;4.25;4.75;0.5;1.25;0.0;0.5;0.5;1.25;2.5;2.5;1.5;2.5;0.75;1.0;-0.20752;0.027832;0.977051;-1.96;1.75;-0.21;331.0;-0.099608;-0.088722;5.0;3.75;5.25;3.0;2.0;0.5;0.0;0.75;0.5;1.5;3.25;3.25;1.5;5.0;0.5;1.75;-0.23584;0.016113;0.982422;-0.28;-1.54;0.42;377.0;-0.048755;-0.053055
2.63;4.0;4.75;4.0;4.75;0.5;0.75;0.0;0.5;0.5;1.5;2.5;2.5;1.5;2.5;1.0;1.25;-0.212402;0.023926;0.978516;-1.96;1.68;-0.28;330.0;-0.088705;-0.08686;5.0;3.75;5.25;3.25;1.75;0.75;0.0;0.75;0.5;1.75;3.25;3.25;1.5;5.0;0.5;2.0;-0.240234;0.018066;0.987793;-0.35;-1.61;0.42;384.0;-0.047241;-0.056786
2.64;4.0;4.75;4.0;4.75;0.5;1.0;0.0;0.5;0.5;1.5;2.75;2.5;1.5;2.25;0.75;1.25;-0.205078;0.024902;0.975098;-1.96;1.61;-0.28;330.0;-0.093922;-0.090366;4.75;3.75;5.5;3.5;2.0;1.5;0.0;0.75;0.5;1.5;3.25;3.25;1.75;5.25;0.75;2.0;-0.240234;0.021484;0.990723;-0.35;-1.61;0.42;402.0;-0.04605;-0.063447
2.65;3.75;4.75;4.0;4.75;0.5;1.0;0.0;0.5;0.5;1.5;3.0;2.5;1.25;2.5;0.75;1.0;-0.211914;0.028809;0.978027;-1.82;1.47;-0.28;329.0;-0.089275;-0.087033;4.75;3.75;5.25;3.5;2.25;1.25;0.0;0.75;0.5;1.5;3.25;3.25;1.75;5.0;0.75;1.75;-0.239258;0.02002;0.985352;-0.42;-1.61;0.28;396.0;-0.048182;-0.062657
2.66;3.75;4.75;4.0;4.75;0.5;0.5;0.0;0.5;0.5;1.75;3.0;2.5;1.5;2.5;0.75;1.0;-0.206055;0.029297;0.975586;-1.89;1.54;-0.28;328.0;-0.083908;-0.085228;4.75;3.25;5.25;3.5;2.0;1.0;0.0;0.75;0.5;1.5;3.25;3.25;1.5;5.25;0.75;2.0;-0.240723;0.022461;0.986328;-0.42;-1.68;0.28;387.0;-0.039776;-0.058157
2.67;3.75;4.5;4.0;4.75;0.5;1.0;0.0;0.5;0.5;1.75;2.5;2.5;1.0;2.25;0.75;1.0;-0.20459;0.024414;0.980957;-1.96;1.47;-0.35;319.0;-0.094494;-0.083985;4.75;3.25;5.25;3.0;2.0;1.25;0.0;1.0;0.25;1.5;3.25;3.25;1.5;5.0;0.5;2.0;-0.241211;0.017578;0.986328;-0.42;-1.68;0.28;380.0;-0.044906;-0.06464
2.68;3.75;4.75;4.0;4.75;0.5;1.0;0.0;0.5;0.75;1.75;2.5;2.5;1.25;2.25;1.0;1.0;-0.205566;0.021973;0.975098;-1.89;1.47;-0.21;330.0;-0.087526;-0.08347;4.75;3.5;6.0;3.25;2.25;1.0;0.0;1.0;0.25;1.5;3.25;3.25;1.5;5.0;0.5;2.0;-0.245605;0.019531;0.987793;-0.56;-1.82;0.35;394.0;-0.053279;-0.060761
2.69;4.5;4.75;4.25;5.0;0.5;1.0;0.0;0.5;0.5;1.75;2.5;2.5;1.5;2.0;1.0;1.25;-0.208496;0.02832;0.973633;-1.96;1.61;-0.21;341.0;-0.100771;-0.087195;4.75;3.5;5.5;3.25;2.25;1.0;0.0;0.75;0.5;1.5;3.5;3.25;1.5;5.0;0.75;2.0;-0.237793;0.019043;0.983887;-0.49;-1.61;0.28;393.0;-0.043138;-0.057407
2.7;4.0;4.5;4.25;4.75;0.5;1.25;0.0;0.5;0.5;1.5;2.5;2.5;1.5;2.25;0.75;1.25;-0.208008;0.032715;0.973633;-1.96;1.61;-0.28;331.0;-0.096134;-0.089622;5.0;4.0;5.5;3.25;2.0;0.75;0.0;0.75;0.5;1.75;3.25;3.25;1.5;5.0;0.75;1.75;-0.238281;0.022461;0.987305;-0.49;-1.68;0.28;393.0;-0.049863;-0.054848
2.71;4.0;4.75;4.25;5.25;0.5;1.25;0.0;0.5;0.5;1.5;2.5;2.5;1.5;2.25;0.75;1.0;-0.206055;0.024902;0.972168;-1.82;1.61;-0.28;337.0;-0.103278;-0.091443;4.75;3.5;4.75;3.25;1.75;0.75;0.0;0.75;0.5;1.5;3.25;3.25;1.25;5.0;0.75;1.75;-0.240723;0.019531;0.984863;-0.56;-1.82;0.28;370.0;-0.040717;-0.057182
2.72;4.25;4.75;4.25;5.0;0.5;1.0;0.0;0.5;0.5;1.25;2.5;2.5;1.5;2.5;0.75;1.0;-0.207031;0.032227;0.981934;-1.89;1.68;-0.21;334.0;-0.103078;-0.086808;4.75;3.75;5.25;3.25;1.75;0.75;0.0;0.75;0.25;1.5;3.25;3.25;1.5;5.0;0.75;2.0;-0.239258;0.02002;0.987793;-0.42;-1.75;0.28;378.0;-0.046247;-0.061788
2.73;4.25;4.5;4.25;5.0;0.5;1.0;0.0;0.5;0.5;1.5;2.5;2.5;1.5;2.75;0.75;1.25;-0.206543;0.025879;0.981445;-1.82;1.82;-0.14;338.0;-0.093173;-0.084351;4.75;3.75;5.5;3.25;2.0;1.5;0.0;1.0;0.25;1.5;3.25;3.25;1.5;5.25;0.75;1.75;-0.236816;0.019043;0.97998;-0.56;-1.75;0.21;397.0;-0.049121;-0.065235
2.74;4.25;4.5;4.25;5.0;0.5;1.25;0.0;0.5;0.5;1.5;2.75;2.25;1.5;2.25;0.75;1.25;-0.209473;0.026855;0.980957;-1.82;1.68;-0.21;336.0;-0.099943;-0.087786;5.0;4.0;5.5;3.5;2.25;1.0;0.0;1.0;0.25;1.5;3.25;3.25;1.25;5.25;0.5;1.75;-0.241699;0.015137;0.980957;-0.49;-1.75;0.28;397.0;-0.058546;-0.059789
2.75;4.0;4.75;4.25;5.0;0.25;1.0;0.0;0.5;0.25;1.5;2.5;2.25;1.5;2.5;0.75;1.25;-0.206055;0.027344;0.978027;-1.89;1.54;-0.21;326.0;-0.101965;-0.091282;4.75;4.0;5.25;3.25;2.0;1.0;0.0;1.0;0.25;1.5;3.25;3.25;1.5;5.25;0.5;1.75;-0.241699;0.020996;0.988281;-0.63;-1.75;0.21;388.0;-0.051396;-0.063919
2.76;4.0;5.0;4.0;5.0;0.25;1.0;0.0;0.5;0.25;1.75;2.5;2.5;1.0;2.0;0.75;1.25;-0.212891;0.022949;0.977051;-1.82;1.75;-0.28;323.0;-0.107936;-0.092372;5.0;3.75;5.25;3.25;2.25;1.25;0.0;0.75;0.25;1.5;3.25;3.25;1.5;5.25;0.5;2.0;-0.240723;0.021484;0.98584;-0.49;-1.75;0.28;391.0;-0.051742;-0.060428
2.77;4.25;4.75;4.25;5.0;0.5;1.25;0.0;0.5;0.5;1.5;2.5;2.5;1.0;2.25;0.5;1.25;-0.209473;0.029785;0.979492;-1.96;1.68;-0.21;331.0;-0.109815;-0.084918;4.75;3.75;5.25;3.25;2.0;1.0;0.0;0.75;0.25;1.5;3.25;3.25;1.5;5.25;0.75;2.0;-0.239746;0.020508;0.997559;-0.56;-1.75;0.35;386.0;-0.045024;-0.06108
2.78;4.5;4.75;4.25;5.75;0.5;1.25;0.0;0.5;0.5;1.5;2.5;2.5;1.25;2.5;0.5;1.25;-0.208008;0.026367;0.975586;-1.82;1.68;-0.14;346.0;-0.11127;-0.087537;5.25;4.0;6.0;3.25;2.25;0.75;0.0;0.75;0.25;1.5;3.25;3.25;1.5;5.25;0.5;2.0;-0.240234;0.022949;0.98584;-0.63;-1.68;0.21;399.0;-0.05924;-0.053905
2.79;4.0;5.0;4.25;5.25;0.5;1.25;0.0;0.5;0.25;1.5;2.5;2.5;1.25;2.0;0.5;1.25;-0.211426;0.027832;0.977051;-1.96;1.82;-0.21;331.0;-0.116288;-0.095877;5.0;4.0;5.5;3.25;2.25;1.0;0.0;0.75;0.25;1.5;3.0;3.25;1.5;5.25;0.75;1.75;-0.236816;0.024414;0.98291;-0.49;-1.68;0.35;392.0;-0.054907;-0.05741
2.8;4.25;5.0;4.25;5.0;0.5;1.25;0.0;0.5;0.25;1.75;2.25;2.5;1.5;2.0;0.5;1.25;-0.202148;0.024414;0.972168;-1.96;1.96;-0.28;333.0;-0.115151;-0.094196;4.75;4.0;5.5;3.25;2.0;1.0;0.0;0.75;0.25;1.5;3.25;3.25;1.5;5.5;0.75;1.75;-0.242188;0.016602;0.982422;-0.56;-1.61;0.28;392.0;-0.047697;-0.058453
2.81;4.25;5.0;4.25;5.25;0.5;0.75;0.0;0.5;0.25;1.75;2.5;2.75;1.5;2.0;0.5;1.0;-0.208984;0.022461;0.979492;-1.89;1.89;-0.28;334.0;-0.112668;-0.093224;5.0;3.5;5.5;3.25;2.0;0.75;0.0;0.75;0.5;1.5;3.25;3.25;1.5;5.5;0.5;2.0;-0.242676;0.021973;0.98877;-0.42;-1.68;0.21;389.0;-0.04406;-0.052499
2.82;4.0;5.0;4.25;5.0;0.5;1.25;0.0;0.5;0.5;1.0;2.5;2.25;1.5;1.75;0.75;1.25;-0.208496;0.02832;0.97168;-1.96;1.89;-0.21;326.0;-0.116755;-0.096116;4.75;3.25;5.5;3.25;2.0;0.75;0.0;0.75;0.25;1.5;3.25;3.25;1.5;5.25;0.5;2.25;-0.23877;0.018066;0.990234;-0.63;-1.61;0.28;380.0;-0.043056;-0.057944
2.83;4.0;4.75;4.25;5.0;0.5;1.25;0.0;0.5;0.5;1.0;2.5;2.0;1.25;2.0;0.25;1.25;-0.206543;0.028809;0.97998;-2.1;1.89;-0.21;316.0;-0.124415;-0.089817;4.75;4.0;5.5;3.25;2.25;0.75;0.0;0.75;0.5;1.5;3.25;3.25;1.5;5.5;0.75;2.0;-0.240234;0.018555;0.994629;-0.49;-1.61;0.28;396.0;-0.043609;-0.054281
2.84;4.75;4.75;4.25;5.0;0.25;1.0;0.0;0.5;0.5;1.25;2.5;2.5;1.5;1.75;0.25;1.25;-0.210938;0.03125;0.975586;-2.03;1.68;-0.21;326.0;-0.124073;-0.091151;4.75;4.0;5.5;3.25;2.25;0.5;0.0;0.75;0.25;1.5;3.5;3.25;1.5;5.5;0.5;2.0;-0.241699;0.011719;0.985352;-0.42;-1.61;0.28;390.0;-0.046599;-0.055736
2.85;4.25;4.75;4.25;5.0;0.25;1.0;0.0;0.5;0.5;1.5;2.5;2.5;1.5;2.25;0.5;1.0;-0.204102;0.027832;0.979004;-2.1;1.82;-0.21;329.0;-0.107599;-0.088602;4.75;3.25;5.5;3.25;2.0;0.5;0.0;1.0;0.25;1.5;3.25;3.25;1.25;5.25;0.5;2.0;-0.238281;0.019531;0.986328;-0.49;-1.54;0.28;378.0;-0.04463;-0.056524
2.86;4.0;4.75;4.5;5.0;0.5;1.25;0.0;0.5;0.5;1.25;2.75;2.5;1.5;2.5;0.5;1.0;-0.207031;0.027344;0.972168;-2.03;1.82;-0.28;337.0;-0.103946;-0.088618;5.0;3.5;5.5;3.25;2.0;0.75;0.0;0.75;0.25;1.5;3.25;3.25;1.25;5.25;0.75;2.0;-0.239746;0.023438;0.98584;-0.42;-1.68;0.35;384.0;-0.047262;-0.054454
2.87;4.0;5.0;4.5;5.0;0.5;1.25;0.0;0.5;0.5;1.25;2.5;2.25;1.25;2.5;0.5;1.0;-0.20752;0.029785;0.983887;-2.1;1.68;-0.21;332.0;-0.112994;-0.084858;5.0;3.75;5.5;3.0;2.0;0.5;0.0;0.75;0.5;1.5;3.25;3.25;1.25;5.25;0.5;2.0;-0.240723;0.017578;0.98877;-0.42;-1.75;0.21;382.0;-0.047548;-0.049336
2.88;4.0;5.0;4.5;5.0;0.5;1.25;0.0;0.5;0.5;1.25;2.5;2.5;1.25;2.0;0.5;1.25;-0.205078;0.02832;0.980957;-2.03;1.68;-0.21;331.0;-0.115248;-0.090847;4.75;3.5;5.5;3.25;1.75;0.5;0.0;0.75;0.5;1.5;3.25;3.25;1.5;5.0;0.5;2.0;-0.244629;0.022461;0.988281;-0.42;-1.68;0.35;377.0;-0.045383;-0.055446
2.89;4.25;5.0;4.5;5.25;0.5;1.0;0.0;0.5;0.25;1.5;2.5;2.5;1.25;2.0;0.5;1.0;-0.206055;0.028809;0.970215;-2.03;1.75;-0.21;332.0;-0.121438;-0.090381;4.75;3.5;5.5;3.25;2.25;0.75;0.0;0.75;0.5;1.5;3.25;3.25;1.5;5.25;0.5;1.75;-0.239258;0.022461;0.982422;-0.42;-1.75;0.21;386.0;-0.046173;-0.053121
2.9;4.0;5.0;4.25;5.75;1.25;1.25;0.0;0.5;0.25;1.5;2.5;2.5;1.25;2.0;0.5;1.25;-0.217285;0.032227;0.983398;-2.03;1.68;-0.21;344.0;-0.11923;-0.094172;4.75;3.5;5.5;3.25;2.0;1.0;0.0;0.75;0.5;1.5;3.25;3.25;1.5;5.0;0.5;1.75;-0.243652;0.020508;0.989258;-0.42;-1.75;0.42;384.0;-0.048907;-0.05678
2.91;3.75;5.0;4.25;5.75;0.5;1.25;0.0;0.5;0.5;1.25;2.5;2.5;1.25;2.0;0.5;0.75;-0.202148;0.023438;0.974609;-2.1;1.68;-0.21;331.0;-0.119912;-0.095424;4.75;4.0;5.5;3.25;2.0;0.5;0.0;0.75;0.5;1.5;3.25;3.5;1.5;5.0;0.5;1.75;-0.238281;0.020996;0.98291;-0.28;-1.75;0.28;385.0;-0.050084;-0.05667
2.92;4.0;5.0;4.25;5.25;0.5;1.25;0.0;0.5;0.0;1.25;2.5;2.5;1.25;2.25;0.5;0.75;-0.209473;0.026855;0.970703;-2.1;1.68;-0.28;324.0;-0.123436;-0.097274;4.75;3.75;5.5;3.25;2.0;0.5;0.0;0.75;0.5;1.5;3.25;3.25;1.25;5.0;0.25;2.0;-0.237793;0.020508;0.989746;-0.35;-1.68;0.21;377.0;-0.052627;-0.052752
2.93;4.5;5.25;4.5;5.25;0.5;1.25;0.0;0.5;0.0;1.25;2.5;2.5;1.0;2.25;0.5;1.0;-0.202148;0.027344;0.978027;-1.96;1.68;-0.21;334.0;-0.130921;-0.091505;5.0;3.5;5.5;3.5;2.0;0.5;0.0;0.75;0.5;1.5;3.25;3.25;1.5;5.25;0.25;2.0;-0.243652;0.020996;0.988281;-0.42;-1.68;0.28;384.0;-0.050653;-0.05324
2.94;4.0;5.25;4.5;5.75;0.5;1.25;0.0;0.5;0.25;1.5;2.5;2.5;1.0;2.25;0.5;1.5;-0.20459;0.028809;0.975586;-2.03;1.75;-0.21;342.0;-0.118894;-0.093757;5.0;3.25;5.5;3.25;2.25;0.5;0.0;0.75;0.0;1.5;3.25;3.25;1.5;5.25;0.5;1.75;-0.242676;0.018066;0.993164;-0.49;-1.75;0.28;377.0;-0.050849;-0.055418
2.95;4.0;5.25;4.5;5.75;0.5;1.25;0.0;0.5;0.25;1.5;2.5;2.25;1.5;2.25;0.5;1.0;-0.208496;0.02832;0.981934;-2.1;1.61;-0.21;341.0;-0.12158;-0.095117;4.75;3.5;5.5;3.5;1.75;0.75;0.0;0.75;0.0;1.75;3.25;3.25;1.75;5.0;0.5;2.0;-0.239746;0.01709;0.986328;-0.35;-1.75;0.35;380.0;-0.049904;-0.065392
2.96;4.25;5.0;4.5;6.0;0.5;1.25;0.0;0.5;0.25;1.5;2.5;2.5;1.5;2.0;0.25;0.75;-0.20459;0.032227;0.979004;-1.96;1.61;-0.14;341.0;-0.129844;-0.096615;5.0;4.0;5.5;3.25;2.0;1.0;0.0;0.75;0.25;1.75;3.25;3.25;1.75;5.0;0.5;2.0;-0.239258;0.021484;0.984863;-0.49;-1.61;0.28;394.0;-0.053549;-0.062041
2.97;4.5;5.5;4.5;5.75;0.5;1.25;0.0;0.5;0.25;1.5;2.5;2.5;1.5;2.25;0.25;0.75;-0.208984;0.029785;0.978027;-2.03;1.61;-0.35;348.0;-0.131114;-0.093315;5.0;4.0;5.5;3.25;2.0;1.0;0.0;0.75;0.25;1.5;3.25;3.25;1.5;5.0;0.75;1.75;-0.243164;0.017578;0.988281;-0.42;-1.68;0.28;390.0;-0.05508;-0.05992
2.98;4.75;5.5;4.5;5.25;0.5;1.25;0.0;0.5;0.5;1.5;2.5;2.5;1.25;2.0;0.25;1.0;-0.205078;0.030273;0.975586;-2.1;1.61;-0.21;345.0;-0.1303;-0.086447;5.0;3.25;5.5;3.25;2.0;0.75;0.0;0.75;0.5;1.5;3.25;3.25;1.5;5.25;0.75;1.75;-0.240723;0.019531;0.988281;-0.49;-1.75;0.28;386.0;-0.042701;-0.052372
2.99;4.5;5.5;4.5;5.25;0.5;1.25;0.0;0.5;0.5;1.75;2.25;2.25;1.25;2.25;0.5;1.0;-0.214844;0.026855;0.977051;-2.03;1.75;-0.28;345.0;-0.12329;-0.083291;5.0;3.25;5.5;3.25;2.0;0.75;0.0;0.75;0.25;1.5;3.25;3.25;1.5;5.25;0.75;2.0;-0.242188;0.017578;0.981445;-0.56;-1.75;0.21;384.0;-0.043823;-0.056081
3.0;4.25;5.25;4.5;5.25;0.5;1.25;0.0;0.5;0.5;1.25;2.5;2.25;1.5;2.25;0.5;1.0;-0.206055;0.030273;0.976562;-1.96;1.75;-0.28;339.0;-0.120175;-0.089118;5.0;3.75;5.5;3.25;2.0;0.5;0.0;0.75;0.25;1.75;3.25;3.5;1.25;5.25;0.75;2.0;-0.241211;0.015625;0.985352;-0.49;-1.61;0.35;389.0;-0.045059;-0.054432
3.01;4.25;5.25;4.5;5.75;0.75;1.25;0.0;0.5;0.5;1.25;2.5;2.5;1.5;1.75;0.5;1.0;-0.208984;0.02832;0.980469;-2.03;1.89;-0.21;346.0;-0.126923;-0.094935;5.0;3.5;5.5;3.25;2.0;0.75;0.0;0.75;0.25;1.5;3.25;3.25;1.25;5.0;0.5;2.0;-0.23584;0.01709;0.984375;-0.49;-1.68;0.28;379.0;-0.052997;-0.055564
3.02;4.5;5.25;4.25;5.75;0.5;1.25;0.0;0.5;0.5;1.0;2.25;2.5;1.5;1.75;0.25;1.25;-0.203613;0.026367;0.978516;-1.89;1.75;-0.21;336.0;-0.135706;-0.098218;5.25;4.0;5.5;3.25;2.0;0.75;0.0;0.75;0.5;1.5;3.25;3.25;1.5;5.0;0.25;2.0;-0.244141;0.024414;0.984863;-0.49;-1.75;0.35;389.0;-0.0589;-0.055087
3.03;4.25;5.5;4.5;5.75;0.5;1.25;0.0;0.5;0.5;1.0;2.5;2.25;1.0;2.0;0.5;1.5;-0.208984;0.02832;0.97168;-1.96;1.75;-0.21;341.0;-0.130805;-0.091713;5.0;4.0;6.0;3.5;2.0;1.0;0.0;0.75;0.25;1.0;3.0;3.25;1.5;5.0;0.25;1.75;-0.241211;0.014648;0.984863;-0.56;-1.75;0.28;385.0;-0.071995;-0.05992
3.04;4.25;5.5;4.5;5.75;0.5;1.25;0.0;0.5;0.5;1.25;2.25;2.25;1.25;2.0;0.5;1.0;-0.211426;0.032227;0.972656;-1.96;1.68;-0.21;340.0;-0.132725;-0.09092;5.0;4.0;5.5;3.75;2.0;1.0;0.0;0.75;0.0;1.25;3.0;3.25;1.5;5.0;0.5;1.75;-0.239746;0.018066;0.989258;-0.49;-1.68;0.28;384.0;-0.068123;-0.065422
3.05;4.75;5.25;4.5;5.75;0.5;1.0;0.0;0.5;0.5;1.25;2.5;2.0;1.5;2.0;0.5;1.0;-0.208008;0.028809;0.979004;-1.96;1.68;-0.21;342.0;-0.132725;-0.08691;5.0;4.0;5.5;3.5;2.25;1.0;0.0;0.75;0.0;1.5;3.25;3.25;1.5;5.0;0.25;1.75;-0.241699;0.021973;0.98584;-0.56;-1.75;0.35;387.0;-0.066145;-0.062752
3.06;4.75;5.5;4.5;6.0;0.5;1.25;0.0;0.5;0.5;1.0;2.5;2.5;1.0;2.25;0.5;1.0;-0.20752;0.030273;0.981445;-1.96;1.75;-0.28;351.0;-0.134009;-0.087972;5.0;4.0;5.5;3.5;2.0;0.75;0.0;0.75;0.25;1.5;3.25;3.25;1.5;5.0;0.5;1.75;-0.238281;0.02002;0.98877;-0.56;-1.68;0.35;388.0;-0.059184;-0.059442
3.07;4.75;5.5;4.5;6.0;0.5;1.25;0.0;0.5;0.5;1.25;2.5;2.75;1.25;2.25;0.5;1.25;-0.205078;0.028809;0.975098;-1.96;1.75;-0.21;359.0;-0.125087;-0.091501;5.0;4.0;5.5;3.25;2.0;0.75;0.0;0.75;0.25;1.5;3.25;3.25;1.5;5.0;0.5;2.0;-0.246094;0.014648;0.98584;-0.49;-1.47;0.28;386.0;-0.056086;-0.059161
3.08;4.25;5.5;4.5;5.75;0.5;1.25;0.0;0.5;0.5;1.75;2.5;2.5;1.25;2.0;0.75;1.0;-0.206055;0.029297;0.975586;-1.96;1.89;-0.14;353.0;-0.118001;-0.090289;5.0;4.0;6.0;4.0;1.75;1.0;0.0;0.75;0.25;1.5;3.25;3.25;1.5;5.0;0.5;2.0;-0.23877;0.019043;0.983887;-0.49;-1.54;0.35;400.0;-0.063949;-0.06278
3.09;4.5;5.5;4.5;5.75;0.5;1.5;0.0;0.5;0.25;1.25;2.25;2.5;1.25;2.0;0.5;1.25;-0.206543;0.022949;0.981934;-1.96;1.82;-0.21;346.0;-0.134042;-0.096742;5.0;4.0;6.0;4.0;2.25;1.0;0.0;0.75;0.25;1.25;3.0;3.25;1.25;5.0;0.5;1.75;-0.246094;0.018555;0.984863;-0.56;-1.47;0.35;397.0;-0.071434;-0.058504
3.1;4.5;5.5;4.5;6.25;0.5;1.25;0.0;0.5;0.25;1.0;2.5;2.5;1.5;2.25;0.25;1.0;-0.208496;0.033691;0.977051;-1.89;1.68;-0.21;349.0;-0.13719;-0.098579;5.25;4.25;6.0;3.5;2.25;0.75;0.0;0.75;0.25;1.5;3.0;3.25;1.5;4.5;0.5;1.75;-0.243164;0.021484;0.989746;-0.63;-1.68;0.21;394.0;-0.073914;-0.058199
3.11;4.25;5.5;4.5;6.0;0.25;1.25;0.0;0.5;0.5;1.25;2.25;2.25;1.25;2.0;0.25;1.0;-0.20459;0.03125;0.973633;-1.96;1.68;-0.21;337.0;-0.138255;-0.093315;5.25;4.0;5.5;3.75;2.25;0.5;0.0;0.75;0.25;1.25;3.25;3.25;1.5;4.75;0.5;1.75;-0.243652;0.02002;0.989258;-0.7;-1.75;0.28;388.0;-0.067501;-0.059265
3.12;4.25;5.5;4.5;6.25;0.25;1.25;0.0;0.5;0.25;1.25;2.25;2.25;1.5;2.0;0.25;1.0;-0.212402;0.027344;0.976074;-1.96;1.68;-0.28;339.0;-0.141304;-0.10028;5.25;4.0;6.0;4.0;2.25;0.5;0.0;0.75;0.25;1.25;2.75;3.25;1.25;4.75;0.5;1.75;-0.242188;0.01416;0.98291;-0.7;-1.68;0.35;389.0;-0.07716;-0.055299
3.13;4.75;5.5;4.5;6.25;0.5;1.0;0.0;0.5;0.25;1.25;2.25;2.25;1.25;2.5;0.25;1.25;-0.210449;0.026855;0.969238;-1.96;1.68;-0.28;348.0;-0.138183;-0.089721;5.25;4.0;6.5;4.0;2.25;0.75;0.0;0.5;0.25;1.25;3.0;3.25;1.25;4.5;0.5;2.0;-0.242676;0.02002;0.985352;-0.7;-1.75;0.35;395.0;-0.080087;-0.054061
3.14;4.75;5.5;4.75;6.75;0.5;1.25;0.0;0.5;0.25;1.25;2.25;2.5;1.25;2.25;0.5;1.5;-0.208496;0.027832;0.977539;-1.89;1.68;-0.21;363.0;-0.136415;-0.095603;5.5;4.25;6.5;4.0;2.25;1.0;0.0;0.5;0.25;1.25;2.75;3.25;1.25;4.25;0.5;1.75;-0.241699;0.016113;0.986816;-0.7;-1.68;0.28;397.0;-0.090809;-0.055095
3.15;4.75;5.5;4.75;6.25;0.5;1.25;0.0;0.5;0.25;1.25;2.25;2.5;1.25;2.25;0.25;1.5;-0.208984;0.023438;0.980957;-1.89;1.68;-0.28;355.0;-0.138109;-0.093705;5.5;4.25;6.75;3.75;2.0;0.75;0.0;0.5;0.25;1.5;2.75;2.75;1.25;4.0;0.5;1.75;-0.239258;0.016602;0.980469;-0.77;-1.82;0.35;387.0;-0.094624;-0.049344
3.16;4.75;5.5;4.5;6.0;0.5;1.25;0.0;0.5;0.5;1.25;2.25;2.5;1.25;1.75;0.25;0.75;-0.208984;0.028809;0.981934;-2.03;1.61;-0.28;345.0;-0.144849;-0.0914;5.5;4.0;6.5;3.75;2.0;0.75;0.0;0.75;0.25;1.0;2.75;2.75;1.5;4.0;0.5;2.0;-0.236328;0.02002;0.985352;-0.7;-1.82;0.42;384.0;-0.09207;-0.057845
3.17;4.75;5.5;4.75;6.0;0.5;1.25;0.0;0.5;0.5;1.75;2.5;2.25;1.5;1.75;0.5;1.0;-0.203125;0.029297;0.980957;-1.96;1.61;-0.28;359.0;-0.13223;-0.089431;5.5;4.25;6.75;4.0;2.0;1.0;0.0;0.75;0.5;1.25;2.75;2.75;1.5;4.25;0.75;1.75;-0.239746;0.019043;0.983887;-0.7;-1.68;0.42;404.0;-0.087493;-0.054608
3.18;4.5;5.5;4.5;6.25;0.5;1.25;0.0;0.5;0.0;1.5;2.5;2.25;1.0;2.0;0.5;1.0;-0.209961;0.027344;0.973145;-1.96;1.68;-0.21;345.0;-0.140968;-0.095179;5.5;4.25;6.75;4.0;2.0;1.0;0.0;0.5;0.25;1.25;2.75;2.75;1.25;4.0;0.75;1.75;-0.241699;0.013672;0.986328;-0.91;-1.75;0.35;392.0;-0.095226;-0.053093
3.19;4.5;5.75;4.5;6.25;0.5;1.25;0.0;0.5;0.0;1.0;2.25;2.0;1.5;2.0;0.5;1.0;-0.208496;0.020508;0.973633;-1.96;1.54;-0.21;341.0;-0.150225;-0.101035;5.5;4.5;6.75;4.25;2.0;1.0;0.0;0.5;0.0;1.5;2.75;2.75;1.25;4.0;0.25;1.75;-0.238281;0.02002;0.987305;-0.77;-1.75;0.42;391.0;-0.105934;-0.056532
3.2;4.75;5.5;4.75;5.75;0.5;1.25;0.0;0.5;0.25;1.0;2.25;2.0;1.25;2.0;0.25;1.0;-0.206055;0.025391;0.977051;-2.03;1.68;-0.14;337.0;-0.151529;-0.089568;5.75;4.75;7.0;4.25;1.75;1.0;0.0;0.75;0.0;1.25;2.75;2.75;1.0;4.25;0.0;1.75;-0.245605;0.016113;0.988281;-0.7;-1.68;0.42;395.0;-0.114205;-0.056244
3.21;4.75;5.5;5.0;6.25;0.5;1.25;0.0;0.5;0.25;1.25;2.5;2.25;1.25;2.0;0.25;1.25;-0.209473;0.025391;0.978516;-1.89;1.82;-0.28;354.0;-0.144225;-0.091714;5.75;4.5;6.75;4.25;2.5;1.25;0.0;0.75;0.0;1.25;2.5;2.25;1.0;3.75;0.5;1.75;-0.237793;0.021484;0.98291;-0.77;-1.75;0.35;394.0;-0.117166;-0.054942
3.22;4.5;5.75;4.75;6.25;1.0;1.5;0.0;0.5;0.5;1.25;2.5;2.25;1.25;2.25;0.25;1.5;-0.211914;0.028809;0.975098;-2.1;1.75;-0.21;366.0;-0.134272;-0.090017;5.75;4.5;7.0;4.25;2.5;1.25;0.0;0.75;0.25;1.0;2.75;2.75;1.0;3.75;0.5;1.75;-0.237305;0.015137;0.987305;-0.7;-1.75;0.28;405.0;-0.111011;-0.05558
3.23;5.25;5.5;4.75;6.5;0.75;1.25;0.0;0.5;0.25;1.25;2.5;1.75;1.25;1.75;0.0;1.0;-0.209473;0.026367;0.977051;-1.96;1.82;-0.14;351.0;-0.162827;-0.087821;5.75;4.5;7.0;4.75;2.25;1.25;0.0;0.5;0.0;1.25;2.5;3.0;1.0;3.75;0.25;1.75;-0.239746;0.01123;0.985352;-0.7;-1.75;0.35;401.0;-0.118486;-0.058435
3.24;5.25;5.75;4.75;6.5;0.75;1.25;0.0;0.5;0.0;1.25;2.25;2.0;1.25;1.75;0.25;1.25;-0.212402;0.026367;0.978516;-2.03;1.75;-0.14;354.0;-0.162211;-0.093844;5.75;4.75;7.0;4.75;2.0;1.25;0.0;0.5;0.0;1.25;2.25;2.25;0.75;3.75;0.25;1.75;-0.23584;0.022949;0.979492;-0.63;-1.75;0.28;388.0;-0.13082;-0.052441
3.25;5.0;5.5;4.75;6.75;0.75;1.25;0.0;0.5;0.25;1.25;2.25;2.0;1.25;2.0;0.0;1.0;-0.200684;0.02832;0.972656;-1.89;1.68;-0.14;353.0;-0.158671;-0.090069;5.75;4.75;7.0;4.75;2.0;1.25;0.0;0.75;0.25;1.0;2.5;2.25;1.0;3.75;0.25;1.75;-0.246582;0.018555;0.984863;-0.63;-1.82;0.28;397.0;-0.124932;-0.056414
3.26;5.0;5.5;4.75;6.5;0.5;1.25;0.0;0.5;0.25;1.75;2.25;2.0;1.0;1.75;0.0;1.0;-0.205566;0.030762;0.976562;-2.03;1.89;-0.21;349.0;-0.157495;-0.08723;5.75;4.75;7.0;4.75;2.25;1.25;0.0;0.5;0.25;1.25;2.5;2.75;1.0;3.5;0.25;1.75;-0.244629;0.015625;0.983887;-0.56;-1.82;0.35;402.0;-0.122105;-0.056036
3.27;5.0;5.75;5.0;6.75;0.5;1.25;0.0;0.5;0.25;1.5;2.25;2.25;1.0;2.0;0.25;1.0;-0.206055;0.026367;0.973145;-1.89;1.68;-0.21;361.0;-0.153686;-0.088426;5.75;4.75;7.0;4.25;2.0;1.25;0.0;0.5;0.25;1.25;2.75;2.25;1.0;3.75;0.0;1.5;-0.239258;0.019531;0.991211;-0.49;-1.75;0.35;389.0;-0.124235;-0.049278
3.28;4.75;6.0;4.75;6.5;0.75;1.25;0.0;0.5;0.25;1.5;2.5;2.0;1.0;2.0;0.5;1.0;-0.208008;0.022949;0.978027;-1.96;1.82;-0.21;361.0;-0.147279;-0.088175;5.75;4.75;7.0;4.75;2.25;1.25;0.0;0.5;0.25;1.0;2.75;2.25;1.25;3.75;0.25;1.75;-0.240234;0.016113;0.982422;-0.56;-1.68;0.42;401.0;-0.12212;-0.055002
3.29;5.0;5.75;5.0;6.25;0.5;1.25;0.0;0.5;0.25;1.5;2.25;2.25;1.25;1.5;0.5;1.0;-0.207031;0.022461;0.977539;-1.89;1.82;-0.21;356.0;-0.152285;-0.091727;5.75;4.75;7.0;4.25;2.0;1.25;0.0;0.5;0.0;1.0;2.25;2.25;1.0;3.75;0.25;1.5;-0.23877;0.019531;0.986328;-0.42;-1.75;0.21;380.0;-0.131143;-0.052146
3.3;5.0;5.75;4.75;6.25;0.5;1.25;0.0;0.5;0.25;1.5;2.25;2.25;1.25;2.0;0.5;0.75;-0.208496;0.025879;0.978516;-1.82;1.96;-0.21;356.0;-0.146605;-0.089081;5.75;4.75;7.0;4.75;2.0;1.25;0.0;0.5;0.0;1.0;2.5;2.75;1.0;3.5;0.5;1.5;-0.242188;0.025391;0.982422;-0.49;-1.61;0.35;394.0;-0.125746;-0.059672
3.31;4.75;5.75;4.5;6.25;0.5;1.0;0.0;0.5;0.25;1.0;2.25;2.25;1.0;2.25;0.25;1.0;-0.209473;0.027832;0.973145;-1.96;2.03;-0.28;342.0;-0.150303;-0.089823;5.75;4.75;6.75;4.25;2.0;1.25;0.0;0.5;0.0;1.0;2.5;3.25;1.0;3.25;0.25;1.5;-0.239258;0.021484;0.976074;-0.42;-1.61;0.42;386.0;-0.124473;-0.062777
3.32;4.75;5.75;4.5;7.0;0.5;1.25;0.0;0.5;0.25;1.0;2.25;1.75;1.25;2.25;0.5;0.75;-0.20752;0.025391;0.980957;-2.03;1.89;-0.28;351.0;-0.154755;-0.092689;5.75;4.5;6.75;4.25;2.0;1.25;0.0;0.75;0.0;1.25;2.5;2.25;1.0;3.5;0.25;1.75;-0.241211;0.020508;0.985352;-0.28;-1.61;0.35;383.0;-0.123591;-0.057712
3.33;4.75;5.5;4.5;6.25;0.5;1.25;0.0;0.5;0.25;1.0;2.25;2.25;1.25;2.25;0.5;1.0;-0.209473;0.026855;0.975098;-1.89;1.68;-0.28;347.0;-0.142326;-0.093015;5.75;4.75;7.0;4.75;2.25;1.25;0.0;0.75;0.0;1.25;2.5;2.25;1.0;3.5;0.25;1.5;-0.242676;0.018555;0.991211;-0.35;-1.61;0.28;395.0;-0.130249;-0.057919
3.34;5.0;5.5;4.5;6.25;0.5;1.25;0.0;0.5;0.5;1.25;2.25;2.0;1.25;2.25;0.5;1.0;-0.210938;0.031738;0.981445;-1.96;1.68;-0.28;353.0;-0.140345;-0.085458;5.75;4.5;6.75;4.25;2.0;1.0;0.0;0.75;0.0;1.25;2.5;2.25;1.0;3.75;0.25;1.75;-0.242676;0.018066;0.988281;-0.28;-1.54;0.28;383.0;-0.120406;-0.054874
3.35;5.0;5.5;4.5;6.25;0.75;1.25;0.0;0.5;0.5;1.25;2.25;2.0;1.25;1.75;0.25;1.0;-0.205078;0.028809;0.975098;-2.03;1.75;-0.35;349.0;-0.151112;-0.08754;5.5;4.5;6.75;4.0;1.75;0.75;0.0;0.5;0.25;1.25;2.5;2.25;1.0;3.75;0.25;1.5;-0.240723;0.01416;0.986328;-0.35;-1.68;0.42;370.0;-0.116468;-0.046696
3.36;4.75;5.75;4.75;6.25;0.75;1.25;0.0;0.5;0.5;1.0;2.25;2.5;1.25;2.25;0.25;0.75;-0.209961;0.025391;0.976074;-1.89;1.75;-0.21;357.0;-0.144648;-0.088241;5.5;4.75;6.5;4.25;2.0;1.0;0.0;0.5;0.25;1.0;2.5;2.25;1.25;3.75;0.25;1.5;-0.245117;0.017578;0.983887;-0.42;-1.68;0.35;377.0;-0.11958;-0.053712
3.37;4.75;5.5;4.75;6.75;0.5;1.25;0.0;0.5;0.5;1.0;2.25;2.5;1.25;2.5;0.5;0.75;-0.211914;0.026855;0.981445;-2.03;1.54;-0.21;362.0;-0.13794;-0.089343;5.75;4.5;6.75;4.25;2.0;1.25;0.0;0.75;0.25;1.0;2.75;2.75;1.25;3.5;0.25;1.5;-0.240723;0.017578;0.983398;-0.35;-1.61;0.21;393.0;-0.116108;-0.060675
3.38;5.0;5.75;4.75;6.5;0.75;1.25;0.0;0.5;0.0;1.25;2.25;2.5;1.25;2.0;0.5;1.0;-0.205566;0.027832;0.974609;-1.96;1.68;-0.35;360.0;-0.149457;-0.095735;5.75;4.75;6.75;4.25;1.5;1.0;0.0;0.5;0.25;1.0;2.75;2.75;1.0;3.5;0.5;1.5;-0.236816;0.019531;0.98584;-0.42;-1.68;0.21;384.0;-0.116577;-0.056148
3.39;4.75;5.75;4.5;6.5;0.75;1.25;0.0;0.5;0.25;1.25;2.25;2.5;1.25;1.75;0.5;1.25;-0.209961;0.025879;0.973633;-1.96;1.54;-0.21;357.0;-0.144403;-0.097731;5.75;4.75;6.75;4.25;1.5;0.75;0.0;0.5;0.25;1.25;2.75;2.75;1.0;3.75;0.5;1.75;-0.244141;0.022949;0.986328;-0.35;-1.75;0.21;387.0;-0.109341;-0.053436
3.4;4.75;5.75;4.5;6.5;0.5;1.25;0.0;0.5;0.5;1.5;2.25;2.25;1.25;1.5;0.5;0.75;-0.205566;0.026855;0.970703;-1.89;1.54;-0.35;353.0;-0.14789;-0.092848;5.75;4.75;6.75;4.25;1.75;1.0;0.0;0.5;0.25;1.25;2.75;2.75;1.0;3.75;0.5;1.5;-0.241699;0.02002;0.990234;-0.42;-1.75;0.35;391.0;-0.111384;-0.053253
3.41;5.0;6.0;4.5;6.75;0.5;1.25;0.0;0.5;0.5;1.75;2.25;1.75;1.25;1.75;0.5;1.0;-0.208496;0.02832;0.974121;-1.96;1.54;-0.21;361.0;-0.149687;-0.088022;5.75;4.5;7.0;4.25;1.75;1.0;0.0;0.5;0.25;1.5;2.75;2.75;1.0;3.75;0.25;1.75;-0.238281;0.016113;0.976074;-0.42;-1.68;0.35;393.0;-0.110203;-0.051511
3.42;5.0;6.0;4.5;6.75;0.25;1.5;0.0;0.5;0.5;1.5;2.0;1.75;1.25;1.75;0.75;1.0;-0.212402;0.028809;0.973633;-1.96;1.47;-0.28;359.0;-0.151376;-0.091423;5.75;4.75;6.75;4.25;2.25;0.75;0.0;0.5;0.25;0.75;2.5;2.75;1.0;3.75;0.5;1.75;-0.243652;0.019043;0.984863;-0.35;-1.89;0.21;387.0;-0.116639;-0.052149
3.43;5.0;5.75;4.75;6.5;0.5;1.25;0.0;0.5;0.5;1.0;2.25;2.0;1.0;2.0;0.5;1.0;-0.210449;0.024902;0.976074;-1.96;1.61;-0.28;354.0;-0.152296;-0.086063;5.5;4.75;7.0;4.0;2.25;1.0;0.0;0.5;0.25;0.75;2.75;3.0;1.0;3.75;0.5;1.5;-0.23877;0.018555;0.979492;-0.49;-1.82;0.21;391.0;-0.112033;-0.053688
3.44;4.5;5.75;4.75;6.5;0.5;1.25;0.0;0.5;0.25;1.0;2.25;2.0;1.25;2.0;0.25;0.75;-0.214844;0.02832;0.977051;-1.89;1.61;-0.35;343.0;-0.156694;-0.093931;5.5;4.75;7.0;4.25;2.0;1.25;0.0;0.5;0.25;1.0;2.75;2.75;1.0;3.75;0.25;1.5;-0.241699;0.018066;0.986328;-0.42;-1.89;0.42;392.0;-0.116757;-0.054615
3.45;5.0;5.75;4.75;6.5;0.5;1.25;0.0;0.5;0.25;1.25;2.5;2.25;1.25;1.75;0.25;0.75;-0.207031;0.026367;0.975098;-1.89;1.61;-0.28;354.0;-0.155257;-0.093105;5.75;4.75;6.75;4.75;2.0;1.0;0.0;0.5;0.25;1.25;2.75;2.75;1.25;3.75;0.25;1.5;-0.236328;0.019043;0.986816;-0.35;-1.75;0.28;399.0;-0.115798;-0.056852
3.46;4.75;5.5;4.5;6.5;0.5;1.25;0.0;0.5;0.25;1.25;2.25;2.25;1.25;2.0;0.25;0.75;-0.208984;0.024414;0.982422;-1.75;1.61;-0.35;346.0;-0.150165;-0.093762;5.75;4.75;7.0;4.75;2.0;1.0;0.0;0.5;0.25;1.0;2.75;2.75;1.25;3.75;0.25;1.5;-0.25;0.017578;0.98584;-0.42;-1.82;0.28;399.0;-0.119166;-0.056616
3.47;4.5;5.5;5.0;6.75;0.5;1.25;0.0;0.5;0.5;1.25;2.25;2.0;1.25;2.25;0.25;1.0;-0.213867;0.028809;0.974609;-1.82;1.68;-0.28;356.0;-0.1448;-0.087715;5.5;4.75;6.75;4.25;2.25;1.25;0.0;0.75;0.25;1.25;2.75;2.75;1.25;3.75;0.25;1.75;-0.241699;0.015137;0.980469;-0.35;-1.61;0.28;401.0;-0.109316;-0.060324
3.48;4.75;5.5;4.75;6.25;0.5;1.25;0.0;0.5;0.5;1.25;2.25;2.25;1.0;1.75;0.5;1.25;-0.206543;0.027344;0.97998;-1.75;1.61;-0.21;351.0;-0.143464;-0.088836;5.5;4.75;6.75;3.5;2.0;1.0;0.0;0.75;0.25;1.25;2.5;2.25;1.25;3.75;0.25;1.75;-0.242676;0.020996;0.989258;-0.42;-1.61;0.21;380.0;-0.111756;-0.052466
3.49;5.25;5.5;4.75;6.25;0.5;1.25;0.0;0.5;0.5;1.5;2.0;2.5;1.0;1.5;0.75;1.0;-0.211914;0.026855;0.976074;-1.96;1.75;-0.35;358.0;-0.145712;-0.086874;5.5;4.75;6.75;4.0;1.75;1.0;0.0;0.5;0.25;1.0;2.75;2.75;1.25;3.75;0.25;1.5;-0.237793;0.022949;0.98584;-0.42;-1.61;0.21;383.0;-0.112515;-0.056028
3.5;4.75;5.75;5.5;6.5;0.5;1.75;0.0;0.5;0.5;1.25;2.25;2.25;1.0;1.75;0.5;1.0;-0.20752;0.027832;0.974609;-1.82;1.61;-0.28;368.0;-0.151012;-0.088173;5.5;4.5;6.75;4.25;2.0;0.75;0.0;0.5;0.25;1.25;2.75;2.75;1.25;3.75;0.5;1.75;-0.238281;0.021484;0.983398;-0.49;-1.68;0.28;390.0;-0.104248;-0.0545
3.51;4.5;5.75;5.0;6.5;0.5;1.5;0.0;0.5;0.5;1.5;2.5;2.25;1.0;2.0;0.25;1.25;-0.208984;0.026855;0.974609;-1.96;1.68;-0.35;363.0;-0.140758;-0.08936;5.5;4.5;7.0;4.75;2.0;0.5;0.0;0.5;0.25;0.75;2.75;2.75;1.25;3.75;0.25;1.75;-0.241211;0.020996;0.982422;-0.49;-1.68;0.35;387.0;-0.115768;-0.055744
3.52;4.75;5.5;4.5;6.25;0.5;1.25;0.0;0.5;0.5;1.5;2.5;2.0;1.25;2.0;0.25;1.25;-0.206055;0.027344;0.973633;-1.89;1.68;-0.35;352.0;-0.138381;-0.088506;5.5;4.25;7.0;4.25;1.75;0.75;0.0;0.5;0.25;0.75;2.75;2.25;1.25;3.75;0.0;1.5;-0.236328;0.016113;0.986816;-0.56;-1.68;0.28;370.0;-0.121633;-0.050465
3.53;5.0;5.75;4.5;6.5;0.5;1.25;0.0;0.5;0.5;1.75;2.5;2.0;1.25;1.75;0.25;1.25;-0.209473;0.030273;0.978516;-1.82;1.75;-0.28;360.0;-0.143721;-0.089096;5.5;4.25;6.75;4.0;2.25;1.0;0.0;0.5;0.25;1.25;2.75;2.75;1.25;3.75;0.0;1.5;-0.244141;0.022461;0.987305;-0.49;-1.75;0.35;384.0;-0.110218;-0.052033
3.54;4.75;5.75;4.5;6.5;0.5;1.25;0.0;0.5;0.5;1.0;2.25;2.0;1.25;2.0;0.5;0.5;-0.205078;0.023926;0.979004;-1.82;1.82;-0.28;348.0;-0.151525;-0.089481;5.5;4.25;6.75;4.0;2.0;1.25;0.0;0.75;0.25;1.0;2.75;2.75;1.5;3.75;0.25;1.5;-0.237793;0.018066;0.983887;-0.56;-1.54;0.28;390.0;-0.106738;-0.060949
3.55;4.75;5.5;4.75;6.75;0.5;1.25;0.0;0.5;0.5;1.5;2.25;2.25;1.25;2.25;0.5;0.75;-0.20459;0.029297;0.978516;-1.82;1.75;-0.21;362.0;-0.138266;-0.087212;5.75;4.5;7.0;4.25;2.25;1.25;0.0;0.75;0.0;1.25;2.75;2.25;1.25;4.0;0.5;1.75;-0.240234;0.019531;0.984375;-0.49;-1.68;0.21;401.0;-0.111539;-0.056095
3.56;4.75;5.5;4.5;6.25;0.5;1.25;0.0;0.5;0.25;1.0;2.25;2.25;1.25;2.5;0.75;1.0;-0.206055;0.026855;0.976562;-1.96;1.89;-0.21;352.0;-0.134856;-0.091296;5.5;4.5;6.75;4.25;2.5;1.0;0.0;0.5;0.25;1.25;3.0;2.75;1.0;3.75;0.25;1.75;-0.239746;0.010742;0.987305;-0.49;-1.61;0.35;396.0;-0.107585;-0.052388
3.57;5.0;5.75;4.5;6.0;0.5;1.25;0.0;0.5;0.25;1.0;2.25;2.5;1.25;2.5;0.75;0.75;-0.210938;0.023926;0.97998;-1.82;1.75;-0.21;355.0;-0.136805;-0.089958;5.5;4.5;6.75;4.25;2.0;1.0;0.0;0.5;0.25;1.0;2.75;2.75;1.0;3.75;0.0;1.5;-0.240234;0.017578;0.982422;-0.49;-1.75;0.28;381.0;-0.117221;-0.053246
3.58;4.75;5.5;4.5;6.25;0.5;1.5;0.0;0.5;0.25;1.25;2.25;1.75;1.25;2.5;0.5;1.0;-0.210449;0.025391;0.974121;-1.96;1.82;-0.28;349.0;-0.141471;-0.088539;5.75;4.75;6.75;4.25;2.0;0.75;0.0;0.5;0.0;1.25;2.75;2.75;1.0;3.75;0.0;1.5;-0.241211;0.016602;0.989746;-0.56;-1.61;0.21;383.0;-0.121473;-0.053273
3.59;4.75;6.0;5.5;6.5;0.5;1.25;0.0;0.5;0.25;1.0;2.5;1.75;1.25;2.0;0.5;1.25;-0.205566;0.029297;0.979492;-1.82;1.75;-0.35;362.0;-0.15454;-0.088959;5.5;4.75;6.75;4.25;2.0;1.5;0.0;0.5;0.25;1.5;2.75;2.75;1.0;3.75;0.0;1.75;-0.234375;0.019531;0.987305;-0.56;-1.75;0.28;395.0;-0.1131;-0.056281
3.6;5.0;6.0;5.0;6.25;0.5;1.25;0.0;0.5;0.5;1.0;2.5;2.0;1.5;2.0;0.5;1.0;-0.209961;0.027344;0.974609;-2.03;1.75;-0.21;363.0;-0.147256;-0.088872;5.5;4.75;6.75;5.0;2.25;1.0;0.0;0.5;0.25;1.5;2.75;2.25;1.0;3.75;0.5;1.75;-0.24707;0.021973;0.986816;-0.56;-1.75;0.28;401.0;-0.113631;-0.053186
3.61;5.0;5.75;4.5;6.5;0.5;1.25;0.0;0.5;0.5;1.25;2.25;2.5;1.5;2.25;0.5;1.25;-0.214844;0.030762;0.977539;-1.96;1.82;-0.21;367.0;-0.134475;-0.093097;5.75;4.25;7.0;4.75;2.0;1.0;0.0;0.5;0.25;1.25;2.75;2.25;1.0;3.75;0.5;1.0;-0.237305;0.018555;0.983398;-0.49;-1.61;0.28;389.0;-0.119081;-0.047405
3.62;5.0;5.75;4.75;6.25;0.5;1.25;0.0;0.5;0.5;1.25;2.25;2.25;1.25;2.0;0.25;1.25;-0.206543;0.026855;0.976562;-1.82;1.82;-0.28;357.0;-0.145953;-0.088624;5.5;4.25;7.0;4.25;2.0;1.0;0.0;0.5;0.25;1.25;2.75;2.25;1.0;3.75;0.5;1.25;-0.241211;0.018066;0.988281;-0.56;-1.68;0.21;383.0;-0.113043;-0.046864
3.63;4.75;5.75;5.0;6.0;0.75;1.25;0.0;0.5;0.5;1.25;2.25;2.25;1.25;2.25;0.25;0.75;-0.207031;0.029785;0.976074;-1.89;1.75;-0.28;357.0;-0.1443;-0.083162;5.75;4.5;6.5;4.25;2.25;1.0;0.0;0.5;0.25;1.25;2.25;3.0;1.0;3.75;0.25;1.5;-0.23877;0.02002;0.982422;-0.49;-1.75;0.35;386.0;-0.114567;-0.05259
3.64;4.75;5.75;4.5;6.25;0.5;1.25;0.0;0.5;0.5;1.25;2.25;2.25;1.25;2.25;0.25;0.75;-0.210449;0.026855;0.979492;-1.89;1.68;-0.21;351.0;-0.143641;-0.088138;5.75;4.75;7.0;4.25;2.0;1.0;0.0;0.75;0.0;1.25;2.25;2.75;1.0;3.75;0.5;1.5;-0.240723;0.016113;0.979004;-0.49;-1.75;0.35;392.0;-0.11919;-0.05662
3.65;4.75;6.0;5.0;6.25;0.5;1.5;0.0;0.5;0.25;1.0;2.5;2.0;1.25;2.0;0.25;0.75;-0.211914;0.030762;0.978027;-1.96;1.68;-0.28;354.0;-0.157169;-0.091996;5.75;4.75;7.0;4.0;2.0;0.75;0.0;0.5;0.0;1.25;2.75;2.25;1.25;3.75;0.25;1.5;-0.237793;0.018066;0.985352;-0.49;-1.75;0.35;382.0;-0.120597;-0.050168
3.66;4.75;5.5;4.5;6.5;0.5;1.25;0.0;0.5;0.5;1.0;2.5;2.0;1.0;1.75;0.5;0.75;-0.210938;0.026855;0.981445;-2.03;1.75;-0.21;345.0;-0.150372;-0.089364;5.75;4.5;7.0;3.75;2.0;0.75;0.0;0.5;0.25;1.0;2.75;2.75;1.0;4.0;0.25;1.5;-0.239746;0.019043;0.984863;-0.49;-1.75;0.35;383.0;-0.110998;-0.04601
3.67;4.75;5.5;4.5;6.25;0.5;1.25;0.0;0.25;0.5;1.0;2.25;2.25;1.0;1.75;0.5;1.0;-0.207031;0.03125;0.978516;-2.03;1.82;-0.28;340.0;-0.14888;-0.087177;5.75;4.75;7.0;4.0;2.0;0.75;0.0;0.5;0.25;1.0;2.75;2.75;1.0;3.75;0.5;1.5;-0.242188;0.015137;0.980957;-0.35;-1.61;0.35;389.0;-0.113414;-0.049454
3.68;4.75;5.75;5.0;6.5;0.5;1.25;0.0;0.25;0.25;1.0;2.25;2.25;1.25;1.75;0.25;1.0;-0.209961;0.025391;0.975586;-1.96;1.68;-0.21;347.0;-0.159681;-0.091737;5.75;4.75;7.0;4.25;2.0;1.0;0.0;0.5;0.25;1.0;2.75;2.25;0.75;3.75;0.5;1.5;-0.248535;0.020508;0.990234;-0.42;-1.61;0.28;387.0;-0.1209;-0.046602
3.69;5.0;5.5;4.75;6.5;0.5;1.25;0.0;0.5;0.25;1.0;2.25;2.25;1.25;2.25;0.5;1.25;-0.208984;0.027832;0.97998;-2.03;1.68;-0.28;356.0;-0.144385;-0.091978;5.75;4.75;7.0;4.25;2.25;0.75;0.0;0.75;0.0;1.0;2.75;2.75;1.25;3.75;0.0;1.5;-0.234375;0.021484;0.983398;-0.56;-1.75;0.35;391.0;-0.122259;-0.057781
3.7;4.75;5.5;4.5;6.5;0.5;1.25;0.0;0.5;0.0;1.5;2.25;2.0;1.25;2.0;0.5;1.0;-0.20752;0.026367;0.980957;-1.96;1.68;-0.28;347.0;-0.14757;-0.095292;6.0;4.75;6.75;4.25;2.25;0.75;0.0;0.5;0.0;1.0;2.25;2.25;1.25;3.5;0.25;1.75;-0.236816;0.018555;0.988281;-0.42;-1.61;0.35;379.0;-0.131239;-0.052666
3.71;4.75;5.5;4.75;6.5;0.5;1.25;0.0;0.5;0.25;1.75;2.25;2.0;1.25;1.5;0.25;1.0;-0.208008;0.03125;0.979492;-1.96;1.68;-0.21;349.0;-0.152858;-0.092591;5.75;4.75;6.75;4.25;2.25;1.0;0.0;0.5;0.0;0.75;2.75;2.25;1.25;3.75;0.0;1.75;-0.242188;0.018066;0.98584;-0.49;-1.61;0.28;381.0;-0.127853;-0.055509
3.72;4.75;5.75;4.75;6.5;0.5;1.25;0.0;0.5;0.25;1.25;2.5;2.25;1.0;2.0;0.25;1.0;-0.207031;0.026855;0.979492;-1.96;1.75;-0.28;353.0;-0.150023;-0.091541;5.75;4.75;6.75;4.25;2.0;1.0;0.0;0.5;0.25;1.5;2.75;2.75;1.25;3.75;0.0;1.5;-0.241699;0.022461;0.993164;-0.42;-1.68;0.35;393.0;-0.114548;-0.053541
3.73;5.0;5.75;4.75;6.5;0.5;1.25;0.0;0.5;0.0;1.0;2.25;2.0;1.25;2.0;0.5;0.75;-0.208496;0.024414;0.975586;-1.96;1.61;-0.28;348.0;-0.15998;-0.094289;5.75;4.5;6.75;4.0;2.25;0.75;0.0;0.5;0.0;1.25;2.75;2.75;1.25;3.75;0.0;1.5;-0.242676;0.018555;0.987305;-0.49;-1.68;0.42;382.0;-0.116884;-0.052853
3.74;4.75;5.75;4.75;6.25;0.5;1.25;0.0;0.5;0.25;1.0;2.25;2.0;1.25;2.0;0.25;0.75;-0.210449;0.03125;0.979492;-2.03;1.61;-0.28;343.0;-0.157507;-0.091357;5.75;4.25;6.75;4.75;2.0;1.0;0.0;0.5;0.0;1.0;2.25;2.75;1.25;3.75;0.0;1.5;-0.239258;0.018066;0.98877;-0.49;-1.68;0.42;381.0;-0.126108;-0.058214
3.75;4.75;5.75;4.75;6.25;0.5;1.25;0.0;0.5;0.25;1.25;2.25;2.5;1.25;2.0;0.0;1.0;-0.204102;0.027832;0.973145;-1.96;1.68;-0.21;350.0;-0.151266;-0.094211;5.75;4.75;7.0;4.75;2.0;1.0;0.0;0.5;0.0;1.25;2.75;2.75;1.0;3.75;0.0;1.5;-0.233887;0.020508;0.989746;-0.42;-1.61;0.21;394.0;-0.125021;-0.056172
3.76;4.75;5.75;4.75;6.25;0.5;1.25;0.0;0.5;0.25;1.25;2.25;2.25;1.25;2.25;0.25;1.25;-0.210449;0.023926;0.976562;-2.1;1.68;-0.28;353.0;-0.144429;-0.091826;5.75;4.75;7.0;4.25;2.0;1.25;0.0;0.5;0.25;1.0;2.5;2.75;1.0;3.5;0.25;1.5;-0.23877;0.020996;0.987305;-0.28;-1.68;0.35;389.0;-0.123859;-0.054386
3.77;5.0;5.75;4.75;6.25;0.5;1.25;0.0;0.5;0.25;1.25;2.5;2.25;1.25;2.0;0.5;1.0;-0.206055;0.027832;0.975098;-2.03;1.61;-0.35;358.0;-0.144767;-0.091241;5.75;4.75;7.0;4.25;2.0;1.0;0.0;0.5;0.25;1.0;2.5;2.75;0.75;3.5;0.0;1.5;-0.23877;0.016113;0.982422;-0.35;-1.61;0.21;382.0;-0.128981;-0.050328
3.78;5.0;5.75;4.5;6.5;0.5;1.25;0.0;0.5;0.25;1.5;2.5;2.0;1.25;2.25;0.5;1.0;-0.209961;0.02832;0.975098;-1.96;1.61;-0.28;360.0;-0.141427;-0.089451;5.75;4.75;7.25;4.25;2.0;1.25;0.0;0.5;0.25;1.25;2.25;2.25;1.0;3.75;0.0;1.5;-0.238281;0.01709;0.983887;-0.49;-1.68;0.35;386.0;-0.129999;-0.047375
3.79;4.75;6.0;4.75;6.5;0.75;1.5;0.0;0.5;0.25;1.5;2.25;2.0;1.25;2.0;0.5;1.0;-0.210938;0.029785;0.976562;-1.96;1.61;-0.28;363.0;-0.148116;-0.091588;5.75;4.75;7.0;4.25;2.0;0.75;0.0;0.5;0.25;1.0;2.5;2.25;1.0;3.75;0.0;1.0;-0.24707;0.020996;0.987305;-0.35;-1.68;0.28;375.0;-0.132305;-0.044442
3.8;4.5;5.75;4.75;6.5;0.75;1.5;0.0;0.5;0.25;1.25;2.5;2.0;1.25;1.75;0.25;1.0;-0.201172;0.030762;0.969238;-2.03;1.47;-0.28;353.0;-0.1521;-0.095585;5.75;4.75;7.0;4.25;2.0;0.75;0.0;0.5;0.0;1.25;2.75;2.25;0.75;3.75;0.0;1.5;-0.239258;0.021484;0.990723;-0.42;-1.47;0.35;378.0;-0.12881;-0.046496
3.81;5.0;5.75;5.0;6.5;0.5;1.25;0.0;0.5;0.25;1.0;2.25;2.25;1.0;2.0;0.25;0.75;-0.205566;0.029297;0.974609;-2.03;1.61;-0.28;352.0;-0.160453;-0.088743;5.75;5.0;6.75;4.25;2.0;0.75;0.0;0.5;0.0;1.0;2.75;2.25;1.0;3.5;0.0;1.5;-0.244141;0.016113;0.984375;-0.49;-1.54;0.28;375.0;-0.133474;-0.05268
3.82;4.75;5.75;4.75;6.5;0.5;1.25;0.0;0.5;0.5;1.0;2.25;2.25;1.25;2.25;0.5;1.0;-0.209473;0.03125;0.975098;-2.03;1.61;-0.21;358.0;-0.14252;-0.089718;5.75;4.75;6.75;4.25;2.0;0.75;0.0;0.5;0.0;1.0;2.5;2.25;1.0;3.5;0.25;1.75;-0.245605;0.019043;0.987793;-0.42;-1.54;0.35;374.0;-0.128643;-0.052694
3.83;5.0;6.0;4.5;6.75;0.5;1.25;0.0;0.5;0.5;1.25;2.5;2.5;1.5;2.25;0.25;1.0;-0.205566;0.027344;0.976074;-2.03;1.61;-0.28;370.0;-0.140483;-0.093957;5.75;5.0;7.0;4.25;2.0;0.75;0.0;0.5;0.0;1.0;2.25;2.25;1.0;3.5;0.5;1.75;-0.236816;0.019531;0.989746;-0.56;-1.54;0.42;379.0;-0.130128;-0.052107
3.84;5.0;6.0;4.5;6.5;0.5;1.25;0.0;0.5;0.5;1.5;2.5;2.25;1.25;2.0;0.0;1.0;-0.20752;0.029785;0.978027;-1.96;1.61;-0.21;361.0;-0.148295;-0.08983;5.75;5.0;6.0;4.75;2.25;0.75;0.0;0.5;0.0;1.0;2.25;2.25;1.0;3.25;0.5;1.75;-0.243164;0.025391;0.989258;-0.49;-1.61;0.42;374.0;-0.13145;-0.059336
3.85;5.0;6.0;4.75;6.75;0.75;1.25;0.0;0.5;0.5;1.5;2.25;2.0;1.5;2.25;0.25;1.0;-0.210449;0.026855;0.96875;-2.03;1.75;-0.28;371.0;-0.146195;-0.087296;5.75;5.0;6.75;4.75;1.75;1.0;0.0;0.5;0.25;0.75;2.25;2.25;1.25;3.5;0.75;1.75;-0.244629;0.02002;0.986816;-0.49;-1.61;0.49;387.0;-0.125466;-0.058445
3.86;5.25;6.0;5.0;6.75;0.5;1.25;0.0;0.5;0.5;1.5;2.5;1.75;1.25;2.25;0.25;1.0;-0.213379;0.02832;0.983887;-1.89;1.75;-0.28;371.0;-0.150781;-0.082236;6.0;4.75;7.0;4.25;2.0;1.0;0.0;0.5;0.0;0.75;2.25;2.25;1.0;3.25;0.25;1.75;-0.244141;0.024414;0.991699;-0.42;-1.61;0.28;375.0;-0.139844;-0.053797
3.87;5.25;6.0;5.0;6.75;0.5;1.25;0.0;0.5;0.5;1.25;2.5;2.25;1.25;2.25;0.5;1.0;-0.20752;0.030762;0.977051;-2.03;1.68;-0.35;376.0;-0.144544;-0.086234;5.75;4.75;7.0;4.0;2.25;1.0;0.0;0.5;0.0;0.75;2.25;2.25;1.0;3.25;0.0;1.5;-0.241211;0.016602;0.986328;-0.63;-1.61;0.28;368.0;-0.142541;-0.051645
3.88;5.25;6.0;5.0;6.75;0.5;1.25;0.0;0.5;0.25;1.25;2.25;2.0;1.25;2.0;0.5;1.0;-0.209961;0.030273;0.976562;-1.89;1.82;-0.21;366.0;-0.156573;-0.089275;6.0;4.75;7.0;4.25;2.0;1.0;0.0;0.5;0.0;1.0;2.25;2.75;1.0;3.25;0.25;1.5;-0.23584;0.019043;0.98877;-0.56;-1.61;0.21;381.0;-0.134213;-0.055414
3.89;5.0;6.0;4.0;6.5;0.5;1.25;0.0;0.5;0.25;1.25;2.25;2.5;1.25;2.0;0.5;1.0;-0.210938;0.029785;0.975586;-1.82;1.68;-0.21;354.0;-0.144894;-0.098363;5.75;4.75;7.0;4.75;2.0;1.0;0.0;0.5;0.25;1.0;2.75;2.75;1.0;3.25;0.5;1.5;-0.243164;0.01709;0.983887;-0.63;-1.61;0.28;395.0;-0.122972;-0.05709
3.9;5.25;5.75;4.5;6.5;0.5;1.75;0.0;0.5;0.25;1.25;2.25;2.0;1.25;1.75;0.5;0.75;-0.204102;0.027832;0.977051;-1.96;1.68;-0.35;357.0;-0.157483;-0.094065;5.75;5.0;7.0;4.75;1.75;0.75;0.0;0.5;0.25;0.75;2.5;2.75;1.0;3.25;0.25;1.5;-0.240723;0.01416;0.985352;-0.63;-1.68;0.35;384.0;-0.132976;-0.057309
3.91;5.25;5.75;4.75;6.5;0.5;1.25;0.0;0.5;0.0;1.25;2.25;2.0;1.0;1.75;0.25;0.75;-0.208008;0.030762;0.977539;-1.89;1.75;-0.28;346.0;-0.168683;-0.091049;5.75;5.0;7.0;4.25;1.5;0.75;0.0;0.5;0.0;1.0;2.25;2.25;1.0;3.25;0.0;1.5;-0.241211;0.02002;0.983887;-0.56;-1.68;0.35;365.0;-0.14295;-0.053747
3.92;4.75;6.0;5.0;6.5;0.5;1.25;0.0;0.5;0.25;1.5;2.25;2.0;1.0;1.75;0.25;1.0;-0.210449;0.026855;0.978027;-1.89;1.61;-0.28;353.0;-0.158648;-0.089375;5.75;5.0;7.0;4.75;1.75;1.0;0.0;0.5;0.0;1.25;2.25;2.25;1.0;3.25;0.0;1.75;-0.239258;0.01416;0.983887;-0.56;-1.68;0.28;380.0;-0.14055;-0.057082
3.93;5.0;6.0;4.75;6.75;0.5;1.25;0.0;0.5;0.25;1.5;2.25;2.0;1.0;2.5;0.5;1.0;-0.211426;0.028809;0.974609;-1.89;1.75;-0.28;365.0;-0.146458;-0.08563;5.75;4.5;6.75;4.75;2.25;1.25;0.0;0.5;0.0;1.0;2.25;2.25;1.0;3.25;0.0;1.5;-0.239746;0.015625;0.981934;-0.63;-1.61;0.21;377.0;-0.140547;-0.056574
3.94;5.25;6.0;4.75;6.5;0.5;1.25;0.0;0.5;0.5;1.5;2.5;2.5;1.0;2.0;0.5;0.75;-0.206543;0.030762;0.979492;-1.82;1.54;-0.14;370.0;-0.144249;-0.085453;6.0;4.75;7.0;4.75;2.0;1.0;0.0;0.5;0.0;1.5;2.25;2.25;0.75;3.25;0.25;1.25;-0.239746;0.016602;0.984863;-0.56;-1.75;0.35;383.0;-0.139514;-0.0497
3.95;5.25;6.5;4.75;6.5;0.5;1.25;0.0;0.25;0.0;1.0;2.25;2.0;1.0;2.0;0.5;1.0;-0.209473;0.027344;0.975586;-1.96;1.89;-0.28;353.0;-0.168399;-0.089588;5.75;4.75;7.0;4.75;2.0;0.5;0.0;0.5;0.25;1.0;2.25;2.25;0.75;3.5;0.25;1.25;-0.241699;0.017578;0.987793;-0.49;-1.82;0.35;375.0;-0.136193;-0.045016
3.96;5.0;6.0;4.75;6.5;0.5;1.25;0.0;0.5;0.0;1.0;2.5;1.75;1.0;1.75;0.5;1.0;-0.212402;0.030273;0.976074;-1.89;1.75;-0.28;347.0;-0.1651;-0.093634;6.0;5.0;7.0;4.75;2.0;0.5;0.0;0.75;0.25;0.75;2.25;2.25;0.75;3.5;0.0;1.25;-0.239746;0.016113;0.97998;-0.7;-1.89;0.42;379.0;-0.144841;-0.048675
3.97;5.25;5.75;4.75;6.5;0.5;1.25;0.0;0.5;0.25;1.0;2.5;1.75;1.25;1.75;0.25;1.0;-0.208008;0.029297;0.970703;-1.89;1.82;-0.21;350.0;-0.163501;-0.090588;6.0;5.0;7.0;4.75;2.25;0.75;0.0;0.5;0.0;1.0;2.25;2.25;1.0;3.5;0.0;1.5;-0.239746;0.017578;0.983887;-0.42;-1.96;0.35;383.0;-0.143311;-0.05134
3.98;5.0;6.25;4.75;6.5;0.5;1.5;0.0;0.5;0.0;1.0;2.25;2.0;1.25;2.0;0.5;0.75;-0.208496;0.027344;0.973633;-1.96;1.96;-0.21;355.0;-0.163248;-0.096588;6.0;5.0;7.0;4.75;2.25;1.0;0.0;0.5;0.0;1.0;2.5;2.25;0.75;3.5;0.0;1.25;-0.23877;0.01709;0.98877;-0.56;-1.89;0.28;385.0;-0.144403;-0.05011
3.99;5.0;6.0;4.75;6.75;0.5;1.25;0.0;0.5;0.0;1.25;2.25;2.25;1.25;1.75;0.5;1.0;-0.208984;0.026367;0.98291;-1.89;1.89;-0.14;358.0;-0.158411;-0.09854;6.0;5.0;7.25;4.75;2.0;1.0;0.0;0.5;0.0;0.75;2.5;2.25;0.75;3.5;0.25;1.25;-0.238281;0.015625;0.988281;-0.56;-1.89;0.21;385.0;-0.144246;-0.050883
4.0;5.25;5.75;5.0;6.75;0.5;1.25;0.0;0.5;0.25;1.5;2.5;2.0;1.0;1.75;0.5;1.0;-0.210449;0.028809;0.977539;-1.82;1.75;-0.21;364.0;-0.154612;-0.087232;6.0;5.25;7.0;4.75;2.0;1.25;0.0;0.5;0.0;0.75;2.25;2.25;0.75;3.0;0.25;1.5;-0.238281;0.016602;0.986816;-0.49;-1.82;0.35;382.0;-0.152009;-0.057222
4.01;5.25;6.25;4.75;6.75;0.75;1.25;0.0;0.5;0.5;1.25;2.25;2.0;1.25;2.0;0.5;0.75;-0.212891;0.029297;0.971191;-1.75;1.89;-0.21;370.0;-0.155386;-0.085942;6.0;5.25;7.0;4.25;2.25;1.0;0.0;0.5;0.0;1.0;2.25;2.25;0.75;3.0;0.0;1.5;-0.240234;0.022949;0.986328;-0.56;-1.82;0.35;376.0;-0.151036;-0.051344
4.02;4.75;5.75;4.5;6.5;0.75;1.25;0.0;0.5;0.0;1.75;2.0;1.75;1.25;2.25;0.25;0.75;-0.210938;0.029785;0.979492;-1.89;1.89;-0.21;347.0;-0.154548;-0.089231;6.0;5.25;7.0;5.0;2.5;1.0;0.0;0.5;0.25;1.0;2.25;2.25;1.0;3.25;0.0;1.5;-0.240723;0.019043;0.979492;-0.49;-1.89;0.42;395.0;-0.145528;-0.052494
4.03;4.75;5.5;4.5;6.5;0.5;1.25;0.0;0.5;0.0;1.5;2.25;1.75;1.25;2.0;0.25;1.0;-0.20752;0.026367;0.975098;-1.89;1.82;-0.21;342.0;-0.154593;-0.093847;6.0;5.25;7.25;5.0;2.0;1.0;0.0;0.5;0.25;1.25;2.25;2.25;1.0;3.5;0.25;1.5;-0.235352;0.016113;0.993164;-0.49;-1.89;0.21;400.0;-0.137518;-0.05128
4.04;4.75;6.0;4.5;6.5;0.5;1.25;0.0;0.5;0.25;1.0;2.25;2.0;1.25;1.75;0.25;1.0;-0.205566;0.028809;0.975586;-1.89;2.03;-0.28;345.0;-0.160876;-0.096916;6.0;5.25;7.25;5.25;2.0;1.25;0.0;0.5;0.25;1.0;2.25;2.75;1.0;3.5;0.25;1.5;-0.242188;0.016602;0.981445;-0.35;-1.75;0.42;408.0;-0.136558;-0.057822
4.05;4.75;5.5;4.75;6.5;0.5;1.25;0.0;0.5;0.0;1.0;2.0;1.75;1.25;1.75;0.5;1.0;-0.208496;0.02832;0.970703;-1.89;1.89;-0.21;337.0;-0.163755;-0.096217;6.0;5.25;7.0;5.0;2.25;1.0;0.0;0.5;0.0;1.0;2.5;2.75;1.0;3.25;0.25;1.75;-0.237793;0.019531;0.990723;-0.42;-1.68;0.21;401.0;-0.136516;-0.060636
4.06;4.75;5.75;4.75;6.5;0.5;1.25;0.0;0.5;0.25;1.0;2.25;1.75;1.0;1.75;0.5;1.25;-0.208984;0.028809;0.977539;-1.96;1.75;-0.21;344.0;-0.158523;-0.091874;6.0;5.0;7.25;4.75;2.25;1.0;0.0;0.5;0.0;1.25;2.5;2.25;1.0;3.0;0.25;1.25;-0.240723;0.014648;0.985352;-0.35;-1.75;0.35;391.0;-0.143321;-0.053333
4.07;4.75;5.75;4.5;6.5;0.5;1.25;0.0;0.25;0.0;1.25;2.25;2.0;1.25;2.0;0.25;1.25;-0.20752;0.021973;0.975098;-1.96;1.68;-0.28;342.0;-0.156098;-0.094647;6.0;5.0;7.25;4.75;2.25;1.25;0.0;0.5;0.25;1.25;2.5;2.25;0.75;3.0;0.25;1.5;-0.236816;0.013672;0.98584;-0.35;-1.75;0.35;396.0;-0.140064;-0.050795
4.08;4.75;5.75;5.0;6.5;0.5;1.25;0.0;0.5;0.0;1.0;2.5;2.0;1.0;1.75;0.0;1.0;-0.20752;0.026367;0.977539;-1.96;1.82;-0.21;343.0;-0.168342;-0.094915;6.0;5.25;7.25;4.75;2.25;1.0;0.0;0.5;0.0;1.25;2.25;2.25;0.75;3.25;0.25;1.5;-0.239258;0.018066;0.98291;-0.35;-1.68;0.35;392.0;-0.144355;-0.05097
4.09;5.0;6.0;5.0;6.5;0.5;1.25;0.0;0.5;0.25;1.25;2.0;2.25;1.0;1.75;0.25;1.0;-0.204102;0.028809;0.979492;-1.89;1.82;-0.14;353.0;-0.163481;-0.090392;6.0;5.25;7.25;5.0;2.0;1.0;0.0;0.5;0.0;1.25;2.5;2.25;0.75;3.0;0.25;1.5;-0.239746;0.015137;0.98877;-0.42;-1.61;0.28;392.0;-0.146041;-0.054644
4.1;4.5;5.75;4.5;6.5;0.5;1.25;0.0;0.5;0.25;1.0;2.25;2.25;1.25;1.75;0.5;1.0;-0.208008;0.031738;0.976562;-1.89;1.82;-0.28;345.0;-0.150198;-0.099401;6.0;5.25;7.25;5.0;2.0;1.0;0.0;0.5;0.0;1.25;2.25;2.25;0.75;3.0;0.5;1.25;-0.234375;0.013184;0.987305;-0.42;-1.68;0.28;391.0;-0.146567;-0.053519
4.11;4.75;6.0;4.75;6.5;0.5;1.25;0.0;0.25;0.25;1.0;2.0;2.0;1.0;1.75;0.5;1.0;-0.210449;0.026855;0.978516;-1.89;1.68;-0.14;342.0;-0.164066;-0.08954;6.0;5.25;7.25;5.0;2.0;1.25;0.0;0.5;0.0;1.0;2.25;2.25;0.75;3.0;0.5;1.5;-0.236816;0.019531;0.987793;-0.42;-1.68;0.28;393.0;-0.147414;-0.056717
