Time;left pressure 1[N/cm²];left pressure 2[N/cm²];left pressure 3[N/cm²];left pressure 4[N/cm²];left pressure 5[N/cm²];left pressure 6[N/cm²];left pressure 7[N/cm²];left pressure 8[N/cm²];left pressure 9[N/cm²];left pressure 10[N/cm²];left pressure 11[N/cm²];left pressure 12[N/cm²];left pressure 13[N/cm²];left pressure 14[N/cm²];left pressure 15[N/cm²];left pressure 16[N/cm²];left acceleration X[g];left acceleration Y[g];left acceleration Z[g];left angular X[dps];left angular Y[dps];left angular Z[dps];left total force[N];left center of pressure X[-0.5...+0.5];left center of pressure Y[-0.5...+0.5];right pressure 1[N/cm²];right pressure 2[N/cm²];right pressure 3[N/cm²];right pressure 4[N/cm²];right pressure 5[N/cm²];right pressure 6[N/cm²];right pressure 7[N/cm²];right pressure 8[N/cm²];right pressure 9[N/cm²];right pressure 10[N/cm²];right pressure 11[N/cm²];right pressure 12[N/cm²];right pressure 13[N/cm²];right pressure 14[N/cm²];right pressure 15[N/cm²];right pressure 16[N/cm²];right acceleration X[g];right acceleration Y[g];right acceleration Z[g];right angular X[dps];right angular Y[dps];right angular Z[dps];right total force[N];right center of pressure X[-0.5...+0.5];right center of pressure Y[-0.5...+0.5]
0.0;8.25;7.0;5.0;4.0;0.75;0.75;0.25;0.25;3.25;1.0;1.25;1.0;0.25;1.75;0.25;0.75;-0.222168;0.011719;0.985352;-0.7;0.63;0.56;409.0;-0.169027;-0.00203;5.0;4.75;3.5;3.0;0.75;1.0;0.5;0.5;2.5;1.0;1.25;0.75;0.5;1.25;1.0;1.0;-0.255859;0.026855;0.975098;-0.77;-0.98;0.77;324.0;-0.115586;-0.02041
0.01;8.25;7.25;5.0;4.25;0.75;1.0;0.25;0.25;3.25;1.0;1.25;1.0;0.5;1.5;0.5;0.5;-0.227051;0.014648;0.987305;-0.56;0.42;0.56;419.0;-0.170493;-0.009567;4.75;4.75;3.5;3.0;1.0;1.0;0.5;0.5;2.5;1.0;1.25;0.75;0.5;0.75;1.0;0.5;-0.250977;0.023438;0.970703;-0.84;-0.98;0.7;317.0;-0.125296;-0.020951
0.02;8.0;7.0;5.0;4.25;0.75;0.75;0.25;0.0;3.25;1.25;1.25;1.0;0.5;0.75;0.5;0.5;-0.220215;0.018555;0.991211;-0.7;0.7;0.56;402.0;-0.176282;-0.006237;4.75;5.0;3.5;2.75;0.75;1.0;0.5;0.5;2.75;1.0;1.25;0.75;0.5;0.75;1.0;0.5;-0.254883;0.024414;0.972656;-0.7;-1.12;0.84;317.0;-0.121773;-0.017625
0.03;8.0;7.0;5.0;4.5;0.75;0.5;0.25;0.25;3.25;1.0;1.25;0.5;0.5;1.0;0.5;0.5;-0.218262;0.012695;0.984375;-0.7;0.7;0.56;400.0;-0.180681;-0.005162;5.25;5.0;3.5;3.0;0.75;1.0;0.5;0.5;2.5;1.0;0.25;0.75;0.5;0.75;1.0;0.5;-0.254395;0.025879;0.973145;-0.7;-0.98;0.91;311.0;-0.145656;-0.017063
0.04;8.25;7.5;5.0;4.5;0.75;0.5;0.25;0.25;3.25;1.0;1.25;0.5;0.5;0.5;0.5;0.75;-0.222656;0.016602;0.984863;-0.56;0.63;0.56;405.0;-0.190005;-0.009599;5.5;4.75;3.5;3.0;1.0;1.0;0.5;0.25;2.5;1.0;0.75;0.75;0.5;0.75;0.75;0.5;-0.254395;0.02832;0.969727;-0.77;-1.05;0.84;313.0;-0.145657;-0.010191
0.05;7.75;7.5;5.0;4.25;0.75;0.5;0.25;0.25;3.25;1.0;1.25;0.75;0.5;0.5;0.25;0.75;-0.221191;0.015625;0.986816;-0.56;0.56;0.56;396.0;-0.187643;-0.01122;5.25;4.75;3.5;2.75;0.75;1.0;0.5;0.25;2.25;1.0;1.0;0.75;0.5;0.75;0.75;0.5;-0.251465;0.026855;0.974121;-0.84;-1.05;0.84;303.0;-0.143288;-0.014241
0.06;8.0;7.5;5.0;4.25;0.75;0.5;0.25;0.25;3.25;1.0;1.25;0.75;0.5;0.5;0.25;0.75;-0.223633;0.013184;0.98877;-0.7;0.56;0.56;399.0;-0.189173;-0.010368;5.25;5.0;3.5;3.0;0.5;1.0;0.5;0.25;2.25;1.5;1.25;0.5;0.5;0.75;0.5;0.5;-0.251953;0.025391;0.970215;-0.77;-0.91;0.7;308.0;-0.145011;-0.014506
0.07;8.0;7.0;5.25;4.25;0.75;0.5;0.25;0.25;3.25;1.0;1.25;0.75;0.5;0.75;0.25;0.75;-0.219727;0.013184;0.987305;-0.63;0.77;0.63;399.0;-0.183383;-0.006545;4.75;4.75;3.5;3.0;0.5;1.0;0.5;0.25;2.5;1.0;1.0;0.5;0.5;1.0;0.5;0.5;-0.253906;0.024414;0.975098;-0.84;-0.98;0.91;298.0;-0.139556;-0.011121
0.08;8.25;7.0;5.25;4.25;0.75;0.5;0.25;0.25;3.0;1.0;1.25;0.5;0.5;0.75;0.25;0.75;-0.216797;0.017578;0.986816;-0.63;0.84;0.63;395.0;-0.191791;-0.006151;5.5;4.75;3.5;3.0;0.75;1.0;0.5;0.25;2.5;1.0;1.0;0.5;0.5;0.75;0.5;0.5;-0.254883;0.024902;0.973633;-0.7;-0.98;0.84;307.0;-0.15089;-0.008521
0.09;7.75;7.0;5.0;4.5;0.75;0.5;0.25;0.25;3.0;1.0;1.25;0.5;0.25;0.75;0.25;0.5;-0.220703;0.013672;0.990723;-0.49;0.77;0.63;386.0;-0.193175;-0.006332;5.0;4.75;3.5;3.0;0.75;0.75;0.5;0.25;2.5;1.0;1.25;0.5;0.25;0.75;0.5;0.5;-0.254883;0.021973;0.970703;-0.63;-0.84;0.77;299.0;-0.145013;-0.005568
0.1;8.25;7.0;4.25;4.25;0.75;0.25;0.25;0.25;3.0;1.0;1.25;1.0;0.25;0.75;0.25;0.5;-0.221191;0.012207;0.986816;-0.63;0.7;0.63;382.0;-0.18807;-0.007492;5.0;4.75;3.5;3.0;0.75;1.0;0.5;0.25;2.5;0.75;1.0;0.5;0.25;0.75;0.5;0.5;-0.255859;0.025391;0.973145;-0.77;-0.84;0.77;296.0;-0.152373;-0.007856
0.11;8.0;7.0;4.75;4.25;0.75;0.25;0.25;0.25;3.0;1.0;1.5;0.75;0.25;0.5;0.25;0.5;-0.222656;0.014648;0.988281;-0.49;0.63;0.63;383.0;-0.191248;-0.006573;5.5;4.75;3.5;3.0;0.75;1.0;0.5;0.25;2.5;0.75;1.0;0.75;0.5;0.75;0.5;0.5;-0.251465;0.024414;0.975586;-0.7;-0.91;0.77;307.0;-0.151138;-0.01189
0.12;8.0;7.0;5.0;4.25;0.75;0.5;0.25;0.25;3.0;1.25;1.25;0.5;0.5;0.75;0.5;0.5;-0.217285;0.015625;0.985352;-0.63;0.42;0.63;394.0;-0.184295;-0.006607;4.75;4.75;3.5;3.0;0.75;1.0;0.5;0.25;2.25;1.0;0.5;0.5;0.5;0.75;0.75;0.5;-0.256348;0.024414;0.977539;-0.63;-0.84;0.77;292.0;-0.150441;-0.01402
0.13;8.0;7.5;5.0;4.25;0.75;0.5;0.25;0.25;2.75;1.0;1.25;0.5;0.25;0.75;0.5;0.5;-0.222656;0.01709;0.986816;-0.63;0.63;0.56;390.0;-0.196568;-0.009012;4.75;4.5;3.5;3.0;0.75;1.0;0.5;0.25;2.25;0.75;0.75;0.5;0.5;0.75;0.5;0.5;-0.257324;0.027344;0.973633;-0.7;-0.91;0.77;286.0;-0.153804;-0.01379
0.14;8.25;7.5;5.0;4.25;0.75;0.5;0.25;0.25;3.0;1.0;1.25;0.75;0.25;0.75;0.25;0.5;-0.22168;0.012695;0.98877;-0.63;0.56;0.63;397.0;-0.195378;-0.007171;4.75;4.5;3.5;3.0;0.75;1.0;0.5;0.5;2.5;0.75;1.0;0.5;0.5;0.75;0.5;0.5;-0.253418;0.024902;0.971191;-0.77;-0.98;0.7;297.0;-0.143228;-0.016602
0.15;8.25;7.5;5.0;4.25;0.75;0.25;0.25;0.25;3.0;1.0;1.5;1.0;0.25;1.0;0.25;0.75;-0.222656;0.012207;0.984863;-0.56;0.63;0.56;403.0;-0.184274;-0.008107;4.75;4.75;3.5;3.0;0.75;1.0;0.5;0.5;2.25;1.0;1.25;0.75;0.25;0.75;0.75;0.5;-0.248535;0.027344;0.975586;-0.77;-0.91;0.77;305.0;-0.137051;-0.021246
0.16;8.25;7.5;4.75;4.25;1.0;0.25;0.25;0.25;2.75;1.0;1.25;0.5;0.25;1.25;0.75;0.75;-0.216309;0.015625;0.987793;-0.63;0.56;0.56;399.0;-0.1838;-0.005913;5.25;4.5;3.25;2.75;0.75;1.0;0.5;0.25;2.5;1.0;1.25;0.75;0.25;0.75;0.75;0.5;-0.25293;0.033691;0.969727;-0.7;-0.91;0.77;302.0;-0.133971;-0.008069
0.17;8.25;7.5;5.25;4.25;0.75;0.5;0.25;0.25;3.25;1.0;1.25;0.5;0.5;1.25;0.75;0.75;-0.219238;0.014648;0.987305;-0.63;0.56;0.56;414.0;-0.175596;-0.004668;5.0;4.75;3.5;2.75;1.0;1.0;0.5;0.25;2.25;1.0;1.25;1.0;0.5;0.75;0.75;0.75;-0.256348;0.026367;0.973145;-0.91;-1.05;0.84;311.0;-0.131678;-0.01961
0.18;8.0;7.5;5.25;4.25;0.75;0.5;0.25;0.25;3.0;1.0;1.75;0.5;0.5;0.75;0.25;0.5;-0.220703;0.015625;0.987793;-0.77;0.63;0.63;402.0;-0.189212;-0.009396;5.0;4.75;3.75;3.0;1.0;1.0;0.5;0.25;2.25;1.0;1.25;0.75;0.5;0.75;1.0;0.5;-0.255371;0.023438;0.972656;-0.77;-0.98;0.77;315.0;-0.134974;-0.01717
0.19;8.0;7.25;4.25;4.25;0.75;0.5;0.25;0.25;3.0;1.0;1.25;0.75;0.5;0.75;0.25;0.5;-0.223145;0.008789;0.989258;-0.56;0.56;0.49;384.0;-0.188493;-0.012063;5.0;4.75;3.5;2.75;1.0;1.0;0.5;0.25;2.25;1.0;1.25;0.75;0.5;0.75;1.0;0.5;-0.257324;0.026855;0.974609;-0.77;-1.05;0.77;309.0;-0.132205;-0.016205
0.2;8.0;7.5;5.25;4.25;0.75;0.5;0.25;0.25;3.0;1.0;1.25;0.75;0.25;0.75;0.5;0.5;-0.220703;0.011719;0.982422;-0.63;0.7;0.63;400.0;-0.190116;-0.007795;5.25;4.75;3.5;3.0;1.0;1.25;0.5;0.5;2.5;1.0;1.25;0.75;0.5;0.5;1.0;0.5;-0.250488;0.025391;0.974121;-0.7;-1.05;0.84;323.0;-0.134272;-0.022424
0.21;8.0;7.5;5.25;4.25;0.75;0.5;0.25;0.25;3.25;1.0;1.25;0.5;0.25;0.75;0.25;0.5;-0.217285;0.016113;0.986328;-0.77;0.56;0.56;397.0;-0.193302;-0.002631;5.5;4.75;3.5;3.0;1.0;1.0;0.5;0.25;2.25;1.0;0.75;0.75;0.5;0.5;1.0;0.5;-0.256348;0.025879;0.97998;-0.77;-0.98;0.7;310.0;-0.149363;-0.015552
0.22;8.25;7.5;5.5;4.5;0.5;0.5;0.25;0.0;3.25;1.0;1.25;0.5;0.25;0.75;0.25;0.5;-0.21875;0.011719;0.989258;-0.7;0.56;0.49;399.0;-0.19845;0.000771;4.75;4.75;3.5;3.0;1.0;1.0;0.5;0.25;2.5;1.0;1.25;0.75;0.5;0.5;0.75;0.5;-0.251953;0.027832;0.970215;-0.63;-0.91;0.84;308.0;-0.135852;-0.016861
0.23;7.75;7.25;5.25;4.5;0.75;0.5;0.25;0.25;3.25;1.0;1.25;0.5;0.25;1.0;0.25;0.5;-0.220215;0.014648;0.987793;-0.63;0.49;0.56;397.0;-0.187562;-0.003011;5.0;4.75;3.5;3.0;1.0;1.0;0.5;0.25;2.25;1.0;1.25;0.75;0.5;0.75;0.75;0.5;-0.253906;0.021973;0.97168;-0.77;-1.05;0.84;309.0;-0.138717;-0.017618
0.24;7.75;7.5;5.0;4.5;0.75;0.5;0.25;0.25;3.0;1.0;1.25;0.5;0.25;1.25;0.0;0.5;-0.224609;0.013184;0.982422;-0.63;0.49;0.7;393.0;-0.193267;-0.005654;5.5;4.5;3.5;3.0;1.0;1.0;0.5;0.25;2.25;1.25;1.0;0.75;0.5;0.75;0.75;0.5;-0.255371;0.026367;0.973145;-0.7;-1.05;0.77;312.0;-0.141156;-0.012485
0.25;8.0;7.0;5.0;4.25;0.75;0.5;0.25;0.25;3.0;1.0;1.25;0.5;0.25;0.75;0.25;0.5;-0.220703;0.01709;0.990723;-0.77;0.7;0.49;386.0;-0.193982;-0.003788;5.5;4.75;3.75;3.0;1.0;1.0;0.5;0.25;2.25;1.0;1.25;0.75;0.5;0.75;0.75;0.5;-0.255859;0.025879;0.974121;-0.77;-1.05;0.77;318.0;-0.144643;-0.01434
0.26;8.25;7.0;5.25;4.25;0.75;0.5;0.25;0.25;3.25;1.0;1.25;0.25;0.25;0.75;0.25;0.5;-0.22168;0.013184;0.987793;-0.56;0.77;0.56;392.0;-0.194901;0.002429;5.25;4.75;3.75;3.0;1.0;1.0;0.5;0.25;2.25;1.0;1.5;0.75;0.5;0.5;0.75;0.5;-0.254883;0.02832;0.974609;-0.63;-0.91;0.84;316.0;-0.143065;-0.017778
0.27;7.75;7.5;5.25;4.25;0.75;0.5;0.25;0.25;3.25;1.0;1.25;0.25;0.25;0.75;0.25;0.5;-0.217285;0.010742;0.986328;-0.56;0.49;0.56;392.0;-0.194744;-0.001279;5.25;4.75;3.5;3.0;1.0;1.0;0.5;0.5;2.25;1.0;1.25;0.75;0.5;0.5;1.0;0.5;-0.254395;0.029297;0.967773;-0.77;-1.05;0.84;317.0;-0.138515;-0.023422
0.28;7.75;7.25;5.0;4.25;0.75;0.5;0.25;0.25;3.25;1.0;1.25;0.5;0.25;0.75;0.25;0.5;-0.219727;0.011719;0.983887;-0.56;0.63;0.49;389.0;-0.189762;-0.003103;5.25;5.0;3.5;3.0;1.0;1.25;0.5;0.5;2.5;1.0;1.25;0.5;0.75;0.5;0.75;0.5;-0.254883;0.023926;0.973633;-0.7;-0.98;0.84;322.0;-0.142145;-0.02378
0.29;8.0;7.0;5.0;4.25;0.75;0.5;0.25;0.25;3.25;1.0;1.25;0.5;0.5;0.75;0.25;0.5;-0.21875;0.01123;0.987793;-0.56;0.77;0.56;392.0;-0.187685;-0.004001;5.25;5.0;3.5;3.0;1.0;1.25;0.5;0.25;2.25;1.0;1.25;0.5;0.75;0.75;0.5;0.75;-0.254883;0.027832;0.975586;-0.7;-0.98;0.84;316.0;-0.146929;-0.021651
0.3;7.75;7.25;5.25;4.25;0.75;0.5;0.25;0.25;3.0;1.0;1.25;0.5;0.5;0.75;0.25;0.5;-0.220215;0.012207;0.98584;-0.63;0.7;0.56;391.0;-0.192272;-0.007683;5.5;5.0;3.5;3.0;1.0;1.0;0.5;0.25;1.75;1.0;1.25;0.5;0.5;0.75;0.75;0.5;-0.255859;0.024902;0.970703;-0.7;-0.98;0.84;307.0;-0.158321;-0.020693
0.31;8.0;7.5;5.25;4.25;0.75;0.5;0.25;0.25;3.25;1.0;1.0;0.5;0.25;0.75;0.25;0.5;-0.222168;0.015137;0.984863;-0.63;0.77;0.63;395.0;-0.196341;-0.00181;5.0;5.0;3.5;3.25;1.0;1.0;0.5;0.25;2.25;1.0;1.0;0.5;0.5;0.75;1.0;0.5;-0.254395;0.028809;0.978516;-0.7;-0.98;0.7;312.0;-0.143927;-0.017932
0.32;7.75;6.75;5.0;4.0;0.75;0.5;0.25;0.25;3.25;1.0;1.0;0.5;0.25;1.0;0.25;0.25;-0.224609;0.016602;0.985352;-0.63;0.63;0.56;379.0;-0.187568;0.003993;5.0;4.5;3.5;3.0;0.75;1.25;0.5;0.5;2.25;1.0;1.0;0.75;0.5;0.75;1.0;0.5;-0.254395;0.026367;0.977539;-0.63;-0.98;0.77;311.0;-0.133346;-0.024322
0.33;8.25;7.0;5.25;4.25;0.75;0.5;0.25;0.25;3.25;1.0;1.25;0.75;0.25;1.0;0.25;0.25;-0.222168;0.016602;0.989746;-0.56;0.63;0.56;399.0;-0.187594;0.000312;5.25;4.75;3.75;3.0;1.0;1.0;0.5;0.25;2.25;0.75;1.0;0.75;0.5;0.5;1.0;0.5;-0.251465;0.030273;0.975098;-0.7;-0.98;0.77;310.0;-0.1483;-0.017312
0.34;8.25;7.5;5.25;4.25;0.75;0.5;0.25;0.25;3.25;0.75;1.25;0.75;0.25;1.25;0.25;0.25;-0.218262;0.01416;0.984375;-0.7;0.7;0.56;403.0;-0.190018;-0.001195;5.0;5.0;3.5;3.0;1.0;0.75;0.5;0.25;2.25;0.75;1.25;0.75;0.5;0.5;1.0;0.5;-0.25;0.025879;0.97168;-0.77;-1.05;0.84;306.0;-0.143455;-0.019201
0.35;7.75;7.25;5.25;4.25;0.75;0.5;0.25;0.25;3.25;0.75;1.25;0.75;0.25;1.25;0.25;0.5;-0.219238;0.011719;0.983398;-0.7;0.63;0.56;397.0;-0.183482;-0.002884;5.25;4.75;3.5;3.0;0.75;1.0;0.5;0.25;2.25;0.75;1.0;0.75;0.5;0.25;1.0;0.75;-0.258301;0.025879;0.970215;-0.77;-0.98;0.91;303.0;-0.14916;-0.022106
0.36;7.75;7.25;5.0;4.25;0.75;0.5;0.25;0.25;3.0;1.0;1.25;0.75;0.25;1.25;0.25;0.5;-0.225586;0.015137;0.991211;-0.7;0.77;0.56;393.0;-0.183783;-0.005638;5.25;4.75;3.5;3.0;0.5;1.25;0.5;0.25;2.5;0.75;1.25;0.75;0.5;0.25;1.0;0.75;-0.254395;0.029785;0.972656;-0.63;-1.05;0.77;309.0;-0.141267;-0.022767
0.37;7.75;7.25;5.0;4.25;0.75;0.5;0.25;0.25;3.0;1.0;1.25;0.75;0.25;1.25;0.25;0.5;-0.220703;0.012695;0.981934;-0.63;0.63;0.56;393.0;-0.183783;-0.005638;5.25;4.75;3.5;3.0;1.0;1.25;0.5;0.25;2.75;1.0;1.25;0.75;0.5;0.5;1.0;0.75;-0.254883;0.027344;0.969727;-0.77;-1.05;0.84;324.0;-0.129269;-0.015736
0.38;8.25;7.25;5.0;4.25;0.75;0.5;0.25;0.25;3.25;1.0;1.25;0.5;0.25;1.75;0.25;0.5;-0.217285;0.016602;0.991211;-0.63;0.56;0.63;404.0;-0.178906;0.002623;4.75;4.75;3.5;2.75;1.0;1.0;0.5;0.25;2.5;1.0;1.25;0.75;0.5;0.5;1.0;0.75;-0.254883;0.027344;0.978027;-0.63;-0.91;0.7;309.0;-0.126958;-0.016871
0.39;8.0;7.0;5.0;4.25;0.75;0.5;0.25;0.25;3.0;1.0;1.25;0.5;0.25;1.5;0.25;0.5;-0.22168;0.012695;0.990234;-0.56;0.56;0.56;393.0;-0.183225;-0.00057;4.75;4.75;3.5;2.75;1.0;1.0;0.5;0.25;2.25;1.0;0.75;0.75;0.5;0.75;1.0;0.75;-0.25293;0.024414;0.974609;-0.77;-0.91;0.84;302.0;-0.134035;-0.016948
0.4;8.0;7.0;5.25;4.25;0.75;0.5;0.25;0.25;3.25;1.0;1.25;0.5;0.25;1.0;0.25;0.5;-0.219238;0.016113;0.985352;-0.7;0.56;0.49;395.0;-0.186886;0.000518;5.5;4.75;3.5;2.75;1.0;1.0;0.5;0.25;2.25;0.75;0.75;0.75;0.5;0.5;1.0;0.75;-0.251953;0.023926;0.975586;-0.77;-1.05;0.7;305.0;-0.149163;-0.015682
0.41;7.75;7.0;5.25;4.25;0.75;0.5;0.25;0.25;3.25;1.0;1.25;0.5;0.25;1.0;0.0;0.5;-0.217285;0.010254;0.98584;-0.56;0.49;0.56;389.0;-0.189693;0.000339;5.25;4.75;3.5;2.75;0.75;1.0;0.5;0.25;2.25;0.75;1.25;0.75;0.5;0.5;1.0;0.5;-0.250488;0.026367;0.976074;-0.77;-0.91;0.77;304.0;-0.142452;-0.018038
0.42;8.25;7.25;5.0;4.25;0.75;0.5;0.25;0.25;3.0;1.0;1.0;0.5;0.25;1.0;0.25;0.5;-0.223145;0.013184;0.986328;-0.56;0.63;0.56;391.0;-0.196405;-0.00212;4.75;4.75;3.5;3.0;1.0;1.0;0.5;0.25;2.25;0.25;1.0;0.75;0.5;0.75;1.0;0.5;-0.256348;0.027344;0.972656;-0.7;-0.91;0.77;298.0;-0.145304;-0.020831
0.43;8.25;7.25;5.0;4.25;0.75;0.5;0.25;0.25;2.75;1.25;1.0;0.75;0.25;1.25;0.5;0.25;-0.217773;0.018066;0.989258;-0.7;0.7;0.49;396.0;-0.188558;-0.004638;4.75;4.75;3.5;3.0;1.0;1.25;0.5;0.25;2.25;0.25;1.0;0.75;0.5;0.75;1.25;0.75;-0.25293;0.025879;0.972656;-0.77;-1.05;0.84;305.0;-0.137723;-0.025285
0.44;7.75;7.25;5.0;4.25;0.75;0.5;0.25;0.25;3.0;0.75;1.25;0.75;0.5;1.25;0.25;0.5;-0.222656;0.016113;0.984375;-0.63;0.49;0.49;392.0;-0.184736;-0.008877;5.0;4.75;3.25;2.75;0.75;1.0;0.5;0.25;2.25;0.75;1.25;0.75;0.5;0.75;0.75;0.75;-0.255371;0.023926;0.976562;-0.77;-0.91;0.84;299.0;-0.137198;-0.019665
0.45;8.25;7.25;5.0;4.25;0.75;0.5;0.25;0.25;3.0;0.5;1.25;0.5;0.25;1.0;0.25;0.5;-0.219727;0.011719;0.994141;-0.63;0.7;0.49;388.0;-0.199694;-0.003927;4.75;4.75;3.25;2.75;0.75;1.25;0.5;0.25;2.25;0.75;1.0;0.75;0.5;0.75;0.75;0.75;-0.25;0.023438;0.970215;-0.7;-0.84;0.84;296.0;-0.138315;-0.022508
0.46;8.25;6.25;5.0;4.25;0.75;0.5;0.25;0.25;3.0;0.5;1.25;0.5;0.0;1.0;0.25;0.5;-0.222168;0.010254;0.98877;-0.63;0.63;0.56;375.0;-0.196182;0.003301;5.0;4.75;3.5;3.0;0.75;1.0;0.5;0.25;2.25;0.75;1.0;0.75;0.5;0.75;0.75;0.75;-0.250977;0.023926;0.972656;-0.77;-0.84;0.84;302.0;-0.143427;-0.019691
0.47;8.25;7.0;5.25;4.25;0.75;0.5;0.25;0.25;3.0;0.5;1.25;0.5;0.25;1.25;0.25;0.5;-0.223633;0.01709;0.985352;-0.56;0.63;0.63;391.0;-0.195169;-0.001073;4.75;4.75;3.5;3.0;0.75;1.0;0.5;0.5;2.25;0.75;1.25;0.75;0.5;0.75;0.75;0.5;-0.251953;0.023926;0.971191;-0.77;-0.98;0.7;305.0;-0.138204;-0.025444
0.48;8.25;7.5;5.0;4.0;0.75;0.5;0.25;0.25;3.0;0.75;1.25;0.5;0.25;1.5;0.25;0.5;-0.225586;0.009766;0.989746;-0.56;0.56;0.56;395.0;-0.190041;-0.00066;4.75;4.75;3.5;3.0;0.75;1.0;0.5;0.25;2.25;0.25;1.25;0.75;0.5;0.75;1.0;0.75;-0.25293;0.03125;0.975098;-0.77;-0.91;0.77;299.0;-0.139453;-0.024014
0.49;8.25;7.75;5.0;4.25;0.75;0.5;0.25;0.25;3.0;0.75;1.0;0.5;0.25;1.25;0.25;0.5;-0.220215;0.01123;0.986816;-0.56;0.49;0.63;395.0;-0.198779;-0.003631;4.75;4.75;3.5;3.0;0.75;1.0;0.5;0.25;2.5;0.25;1.25;0.75;0.5;0.75;0.75;0.75;-0.251465;0.02002;0.976562;-0.77;-0.91;0.84;300.0;-0.139962;-0.0199
0.5;8.0;7.5;5.25;4.25;0.75;0.5;0.25;0.25;3.0;0.75;1.25;0.5;0.25;0.75;0.0;0.5;-0.224609;0.01123;0.985352;-0.56;0.63;0.63;388.0;-0.20506;-0.005083;5.25;4.75;3.5;3.0;0.75;1.0;0.5;0.25;2.5;0.75;1.0;0.75;0.5;0.75;0.75;1.0;-0.255859;0.027344;0.970703;-0.77;-0.91;0.84;310.0;-0.138777;-0.016528
0.51;7.75;7.25;5.25;4.25;0.75;0.5;0.25;0.25;2.75;1.0;1.25;0.5;0.25;0.5;0.25;0.5;-0.217285;0.011719;0.989258;-0.56;0.49;0.56;383.0;-0.202362;-0.008651;4.75;4.75;3.5;3.25;1.0;1.0;0.5;0.25;2.5;0.25;1.25;0.75;0.5;0.75;1.0;0.75;-0.253906;0.024414;0.973145;-0.84;-1.05;0.77;309.0;-0.136168;-0.021678
0.52;8.0;7.0;5.25;4.25;0.75;0.5;0.25;0.25;3.0;1.0;1.0;0.5;0.25;1.0;0.25;0.5;-0.222168;0.010254;0.986816;-0.63;0.56;0.56;388.0;-0.19401;-0.001147;5.0;4.5;3.5;3.25;1.0;1.25;0.5;0.25;2.25;0.25;1.25;0.75;0.5;1.0;1.0;0.75;-0.250488;0.027344;0.976074;-0.77;-0.98;0.84;311.0;-0.136896;-0.02364
0.53;8.0;7.5;5.25;4.25;0.75;0.5;0.25;0.25;3.0;1.0;1.0;0.5;0.5;1.25;0.25;0.5;-0.220703;0.012207;0.985352;-0.56;0.56;0.49;398.0;-0.191141;-0.004917;5.25;4.75;3.5;3.25;1.0;1.25;0.5;0.5;2.25;0.75;1.25;0.75;0.5;0.75;0.75;1.0;-0.254395;0.026367;0.973145;-0.77;-0.98;0.77;322.0;-0.139673;-0.029066
0.54;7.75;7.5;5.25;4.25;0.75;0.5;0.25;0.25;3.0;1.0;1.25;0.75;0.25;0.75;0.25;0.5;-0.218262;0.014648;0.986816;-0.7;0.56;0.56;394.0;-0.192935;-0.008092;5.25;5.0;3.5;3.0;1.0;1.0;0.5;0.5;2.5;0.75;1.25;0.75;0.5;0.75;0.75;1.0;-0.251953;0.022461;0.968262;-0.7;-0.91;0.77;322.0;-0.135954;-0.022701
0.55;8.25;6.5;5.0;4.25;0.75;0.5;0.25;0.25;3.0;1.0;1.0;0.75;0.25;1.0;0.25;0.5;-0.221191;0.011719;0.990723;-0.63;0.63;0.56;386.0;-0.189063;-0.0011;5.25;5.0;3.75;3.0;1.0;1.0;0.5;0.5;2.25;0.75;1.25;0.5;0.75;0.75;0.75;1.0;-0.252441;0.024902;0.974609;-0.84;-0.91;0.77;321.0;-0.142402;-0.025711
0.56;8.25;7.5;5.25;4.25;1.0;0.5;0.25;0.25;3.0;1.0;1.0;0.5;0.25;0.75;0.25;0.25;-0.21582;0.009766;0.989746;-0.56;0.63;0.56;395.0;-0.203465;-0.001868;5.5;5.0;3.5;3.0;1.0;1.0;0.5;0.5;2.5;0.75;1.25;0.5;0.75;0.5;1.0;0.75;-0.250488;0.027344;0.973145;-0.84;-1.05;0.77;324.0;-0.140526;-0.022945
0.57;8.25;7.5;5.25;4.25;1.0;0.5;0.25;0.25;3.25;1.0;1.25;0.5;0.25;0.75;0.25;0.25;-0.223633;0.013184;0.991211;-0.77;0.77;0.42;402.0;-0.196314;-0.000221;5.5;5.0;3.5;3.0;1.0;1.25;0.5;0.5;3.0;1.0;1.25;0.75;0.5;0.5;0.5;0.75;-0.251953;0.027832;0.973145;-0.84;-0.91;0.84;331.0;-0.137448;-0.016261
0.58;8.25;7.5;5.25;4.25;0.75;0.5;0.25;0.25;3.0;1.0;1.25;0.25;0.25;1.0;0.5;0.5;-0.216309;0.013672;0.983887;-0.7;0.77;0.56;399.0;-0.193884;-0.001726;5.0;4.5;3.5;3.0;1.0;1.0;0.5;0.5;2.75;0.75;1.25;0.75;0.5;0.75;0.75;1.0;-0.25293;0.026855;0.973145;-0.77;-0.98;0.77;318.0;-0.124718;-0.018259
0.59;8.25;7.5;5.25;4.25;0.75;0.5;0.25;0.25;3.25;0.75;1.0;0.25;0.0;0.75;0.25;0.5;-0.219727;0.015625;0.981934;-0.49;0.63;0.63;389.0;-0.206246;0.003473;5.5;4.75;3.5;3.0;1.0;1.0;0.5;0.5;2.5;0.75;1.25;0.75;0.25;1.0;1.0;0.75;-0.254883;0.026855;0.969238;-0.77;-0.91;0.77;324.0;-0.131853;-0.015007
0.6;8.0;7.5;5.0;4.25;1.0;0.5;0.25;0.25;3.25;0.75;1.0;0.5;0.0;0.5;0.25;0.5;-0.219727;0.015137;0.987793;-0.63;0.7;0.56;387.0;-0.204331;-0.0008;5.25;4.75;3.5;3.0;1.0;1.0;0.5;0.5;2.5;0.5;1.0;0.75;0.25;1.0;0.75;0.75;-0.249512;0.027832;0.976074;-0.91;-0.98;0.77;313.0;-0.141002;-0.015307
0.61;7.75;7.5;5.0;4.25;0.75;0.5;0.25;0.25;3.25;1.0;1.0;0.5;0.25;0.75;0.0;0.5;-0.223145;0.016113;0.984863;-0.7;0.77;0.63;386.0;-0.198764;-0.002745;5.25;4.75;3.5;3.0;1.0;1.0;0.5;0.5;2.5;0.5;1.0;0.75;0.5;0.5;0.75;1.0;-0.25293;0.02832;0.970215;-0.91;-0.91;0.77;312.0;-0.14452;-0.022968
0.62;8.25;7.5;5.0;4.5;0.75;0.5;0.25;0.25;3.0;1.0;1.0;0.5;0.25;1.75;0.25;0.5;-0.222168;0.015137;0.986328;-0.56;0.77;0.49;403.0;-0.187937;-0.001695;5.25;5.0;3.75;3.0;0.75;1.0;0.5;0.5;2.5;0.75;1.25;0.75;0.5;0.25;0.75;0.75;-0.256348;0.022949;0.970703;-0.77;-0.98;0.77;316.0;-0.147681;-0.023998
0.63;8.25;7.0;5.25;4.25;0.75;0.5;0.25;0.25;3.25;0.75;1.0;0.5;0.25;1.5;0.25;0.25;-0.22168;0.016113;0.990234;-0.56;0.7;0.49;395.0;-0.189506;0.004943;5.25;5.0;3.75;3.0;0.75;1.0;0.5;0.5;2.25;1.0;1.25;0.75;0.5;0.25;0.5;0.75;-0.252441;0.027344;0.972168;-0.84;-0.91;0.7;313.0;-0.153865;-0.026078
0.64;8.25;7.0;5.0;4.25;0.75;0.25;0.25;0.25;3.25;0.75;1.25;0.5;0.25;1.25;0.5;0.25;-0.224121;0.018555;0.981445;-0.63;0.63;0.49;392.0;-0.18537;0.003854;5.25;4.5;3.75;3.5;0.75;1.0;0.5;0.5;2.5;0.75;1.25;0.75;0.5;0.5;0.5;0.75;-0.253418;0.02832;0.975098;-0.91;-1.05;0.84;317.0;-0.146968;-0.023534
0.65;7.75;7.0;5.25;4.25;0.75;0.25;0.25;0.25;3.0;1.0;1.25;0.5;0.25;1.25;0.5;0.5;-0.216309;0.014648;0.983398;-0.7;0.7;0.56;390.0;-0.181714;-0.000245;5.25;4.75;3.5;3.0;1.0;1.0;0.5;0.25;2.75;0.75;1.0;0.75;0.5;0.5;0.5;0.75;-0.252441;0.025391;0.97168;-0.91;-1.05;0.77;310.0;-0.145659;-0.011843
0.66;8.25;7.25;5.0;4.0;0.75;0.5;0.25;0.25;3.0;0.75;1.25;0.5;0.25;1.25;0.25;0.5;-0.22168;0.01123;0.991211;-0.77;0.7;0.56;390.0;-0.192164;-0.000652;5.25;5.0;3.75;3.0;0.5;1.0;0.5;0.5;2.5;1.0;1.25;0.5;0.5;0.5;0.75;0.75;-0.256836;0.023926;0.970215;-0.91;-0.98;0.77;316.0;-0.143531;-0.020052
0.67;8.25;7.25;5.0;4.0;0.75;0.25;0.25;0.25;3.0;1.0;1.25;0.25;0.25;1.25;0.25;0.5;-0.221191;0.014648;0.987305;-0.63;0.63;0.42;387.0;-0.19228;0.004115;5.0;5.25;3.75;3.0;0.5;1.0;0.5;0.5;2.5;1.0;1.0;0.5;0.5;0.75;0.75;0.75;-0.253906;0.026855;0.970703;-0.84;-0.98;0.84;315.0;-0.142638;-0.020051
0.68;7.75;7.5;5.0;4.0;0.75;0.5;0.25;0.25;3.25;1.0;1.0;0.25;0.25;1.0;0.25;0.5;-0.219727;0.015625;0.98877;-0.7;0.7;0.56;385.0;-0.192924;0.001675;5.0;5.25;3.75;3.25;0.75;1.0;0.5;0.5;2.5;1.25;1.0;0.75;0.5;0.75;1.0;0.75;-0.262207;0.024414;0.968262;-0.84;-0.98;0.77;329.0;-0.132629;-0.023403
0.69;8.25;7.0;5.0;4.25;0.75;0.25;0.25;0.25;3.0;1.0;1.25;0.5;0.0;1.25;0.25;0.5;-0.220703;0.01123;0.987305;-0.7;0.7;0.49;388.0;-0.190774;0.004049;5.5;5.25;3.75;3.5;1.0;1.25;0.5;0.25;2.5;1.0;1.0;0.75;0.5;0.75;0.75;1.0;-0.258789;0.02832;0.974121;-0.84;-0.91;0.77;336.0;-0.145776;-0.021375
0.7;8.25;7.0;5.0;4.25;0.75;0.25;0.25;0.25;2.75;1.0;1.25;0.5;0.0;1.0;0.25;0.5;-0.226074;0.014648;0.988281;-0.63;0.7;0.49;382.0;-0.198628;0.000463;5.75;5.25;3.75;3.0;1.0;1.25;0.5;0.25;2.5;1.0;0.75;0.75;0.5;0.75;0.5;0.75;-0.251465;0.031738;0.970215;-0.77;-0.98;0.84;325.0;-0.155855;-0.01379
0.71;8.25;7.25;5.0;4.0;0.75;0.5;0.25;0.25;3.0;1.0;1.5;0.5;0.25;1.0;0.0;0.5;-0.221191;0.010254;0.984863;-0.63;0.56;0.63;390.0;-0.193952;-0.001489;6.0;5.25;3.75;3.0;1.0;1.25;0.5;0.25;2.5;1.0;1.0;0.75;0.5;0.75;0.5;0.75;-0.255371;0.023926;0.970215;-0.91;-1.05;0.7;331.0;-0.15467;-0.013624
0.72;8.0;7.0;5.0;4.0;0.5;0.5;0.25;0.25;3.25;0.75;1.0;0.5;0.25;1.0;0.25;0.5;-0.225098;0.013184;0.989746;-0.7;0.63;0.63;380.0;-0.192252;0.001506;5.5;5.25;3.5;3.0;1.0;1.0;0.5;0.25;2.75;1.0;1.0;0.75;0.5;0.75;0.5;0.75;-0.253906;0.025391;0.973633;-0.84;-0.91;0.7;323.0;-0.144733;-0.011164
0.73;8.0;7.25;5.25;4.25;0.75;0.5;0.25;0.25;3.0;0.75;0.75;0.5;0.25;1.0;0.5;0.5;-0.221191;0.01709;0.986328;-0.63;0.7;0.63;388.0;-0.19729;-0.002448;5.75;5.25;3.5;2.75;0.75;1.0;0.5;0.25;2.75;0.75;1.0;0.75;0.5;0.75;0.75;0.75;-0.257324;0.029297;0.975586;-0.91;-0.98;0.7;320.0;-0.144336;-0.010082
0.74;8.25;7.5;5.25;4.25;0.75;0.5;0.25;0.25;3.25;1.0;0.75;0.5;0.0;1.0;0.25;0.5;-0.220703;0.010742;0.988281;-0.7;0.77;0.63;394.0;-0.199487;0.003612;5.5;5.0;3.75;3.0;0.75;0.75;0.5;0.25;2.25;0.75;1.0;0.5;0.5;0.75;0.75;1.0;-0.25;0.026855;0.97168;-0.98;-0.98;0.7;309.0;-0.152408;-0.013848
0.75;8.25;7.0;5.25;4.0;0.75;0.5;0.25;0.25;3.0;1.0;1.0;0.5;0.0;1.25;0.25;0.5;-0.219727;0.024414;0.987305;-0.56;0.7;0.63;388.0;-0.19339;0.005248;5.25;5.25;3.75;3.0;1.0;0.75;0.5;0.5;2.25;0.75;0.75;0.75;0.5;0.75;0.75;0.5;-0.256348;0.022461;0.97168;-0.91;-0.98;0.7;313.0;-0.155133;-0.019321
0.76;8.0;7.25;5.0;4.25;0.75;0.5;0.25;0.25;2.75;1.0;1.25;0.5;0.0;1.25;0.25;0.5;-0.222168;0.011719;0.98877;-0.56;0.56;0.49;387.0;-0.194528;-0.002453;5.5;5.0;3.75;3.0;1.0;1.0;0.5;0.25;2.25;0.75;1.0;0.5;0.5;0.75;1.0;0.5;-0.256836;0.028809;0.975098;-0.98;-0.98;0.84;315.0;-0.151873;-0.013379
0.77;8.0;7.25;5.0;4.0;0.75;0.5;0.25;0.25;3.0;0.75;1.0;0.5;0.0;1.25;0.25;0.5;-0.224121;0.012695;0.987305;-0.7;0.7;0.63;382.0;-0.195961;0.002241;5.5;5.25;3.5;3.0;0.5;1.0;0.5;0.25;2.25;0.75;1.0;0.25;0.75;0.5;0.75;0.5;-0.26123;0.024414;0.979004;-0.91;-0.98;0.77;302.0;-0.164032;-0.018784
0.78;8.0;7.25;5.0;4.25;0.75;0.5;0.25;0.25;2.75;1.0;1.0;0.5;0.25;1.25;0.25;0.25;-0.226562;0.012207;0.984375;-0.56;0.7;0.56;385.0;-0.197561;-0.003221;5.75;5.25;3.75;3.0;0.75;1.0;0.5;0.25;1.75;0.75;1.0;0.25;0.5;0.5;0.75;0.5;-0.25293;0.022461;0.969727;-0.98;-0.91;0.77;302.0;-0.179482;-0.019191
0.79;8.0;7.25;5.0;4.25;0.75;0.5;0.25;0.25;2.75;1.0;1.0;0.5;0.25;1.0;0.25;0.5;-0.223633;0.015137;0.98877;-0.56;0.7;0.56;384.0;-0.199096;-0.005511;5.75;5.25;3.75;3.0;0.5;1.0;0.5;0.25;2.0;0.75;1.0;0.5;0.5;0.75;0.5;0.75;-0.25;0.025391;0.977539;-0.91;-1.05;0.84;306.0;-0.169664;-0.018497
0.8;8.25;7.5;5.0;4.25;0.75;0.5;0.25;0.25;3.0;1.0;1.0;0.5;0.25;1.0;0.0;0.5;-0.220215;0.005859;0.986328;-0.49;0.63;0.49;390.0;-0.202264;-0.002591;6.0;5.25;3.75;3.25;0.75;1.0;0.5;0.25;2.0;0.75;1.0;0.5;0.25;0.75;0.5;0.75;-0.254883;0.027344;0.966797;-0.84;-0.91;0.77;313.0;-0.175036;-0.01522
0.81;8.25;7.25;5.0;4.25;0.75;0.5;0.25;0.25;3.0;1.0;1.0;0.5;0.25;1.25;0.0;0.5;-0.222168;0.006836;0.984375;-0.63;0.56;0.56;390.0;-0.197219;-0.000461;6.0;5.25;3.75;3.75;0.75;1.0;0.5;0.25;2.0;0.75;0.75;0.25;0.25;0.75;0.75;1.0;-0.251953;0.027344;0.97168;-1.05;-1.05;0.91;317.0;-0.176499;-0.017725
0.82;8.25;7.5;5.0;4.0;0.75;0.5;0.25;0.25;3.0;1.0;1.25;0.5;0.25;1.25;0.25;0.5;-0.224609;0.012207;0.986328;-0.49;0.63;0.56;395.0;-0.190485;-0.001243;6.0;5.5;3.75;3.25;0.75;1.0;0.5;0.25;2.0;0.75;0.75;0.5;0.25;0.75;1.0;0.5;-0.254395;0.024902;0.978027;-0.84;-0.91;0.7;317.0;-0.172535;-0.015328
0.83;8.0;7.5;5.25;4.25;0.75;0.5;0.25;0.25;3.25;1.0;1.0;0.5;0.25;1.25;0.25;0.5;-0.226074;0.013672;0.98584;-0.63;0.7;0.56;399.0;-0.189259;0.000278;6.0;5.5;3.75;3.25;0.75;1.0;0.5;0.25;2.0;0.75;0.75;0.5;0.5;0.75;1.0;0.5;-0.254883;0.024902;0.974121;-0.98;-1.05;0.84;319.0;-0.17001;-0.018623
0.84;7.75;7.25;5.25;4.5;0.75;0.5;0.25;0.25;2.75;1.0;1.25;0.5;0.25;1.25;0.5;0.5;-0.222656;0.01123;0.986816;-0.42;0.63;0.63;395.0;-0.187755;-0.00754;6.5;5.5;3.75;3.25;0.75;1.0;0.5;0.25;2.0;0.75;0.75;0.5;0.5;0.75;0.75;0.5;-0.25293;0.026367;0.972656;-1.05;-1.05;0.91;322.0;-0.17926;-0.015814
0.85;8.25;7.25;5.25;4.25;0.75;0.5;0.25;0.25;3.0;1.0;1.25;0.5;0.25;1.25;0.25;0.5;-0.222168;0.013672;0.989746;-0.49;0.56;0.63;399.0;-0.190359;-0.00119;6.5;5.5;3.75;3.5;0.75;1.0;0.5;0.25;2.0;0.75;0.75;0.5;0.5;0.25;0.75;0.5;-0.254883;0.027832;0.972656;-0.91;-1.05;0.84;320.0;-0.18886;-0.02058
0.86;7.75;7.5;5.25;4.25;0.75;0.5;0.25;0.25;3.25;1.0;1.25;0.5;0.0;1.0;0.25;0.5;-0.216309;0.01123;0.985352;-0.56;0.63;0.63;395.0;-0.190396;0.00037;6.0;5.75;3.75;3.75;0.75;1.0;0.5;0.25;2.0;0.5;1.0;0.5;0.5;0.25;0.75;0.5;-0.248535;0.03125;0.966797;-1.05;-0.98;0.77;320.0;-0.187893;-0.027533
0.87;8.25;7.25;5.0;4.25;0.75;0.5;0.25;0.25;3.0;1.0;1.25;0.5;0.0;0.75;0.25;0.5;-0.220703;0.015137;0.991699;-0.56;0.56;0.56;389.0;-0.19915;-0.001248;6.0;5.75;3.75;3.25;0.75;1.0;0.5;0.25;2.0;0.75;1.0;0.5;0.5;0.5;0.75;0.5;-0.254395;0.025391;0.967285;-1.05;-1.05;0.84;319.0;-0.177837;-0.021517
0.88;8.25;7.25;5.0;4.25;0.75;0.5;0.25;0.25;2.75;1.0;1.25;0.5;0.25;1.25;0.25;0.5;-0.218262;0.013184;0.98877;-0.56;0.7;0.49;392.0;-0.193849;-0.004406;6.5;5.5;3.75;3.5;0.75;1.0;0.5;0.25;2.0;0.5;1.0;0.5;0.5;0.75;0.5;0.5;-0.25293;0.022461;0.969238;-1.05;-1.05;0.84;322.0;-0.185602;-0.018764
0.89;8.25;7.25;5.0;4.25;0.75;0.5;0.25;0.25;2.75;1.0;1.0;0.5;0.25;1.25;0.25;0.5;-0.217285;0.018066;0.98291;-0.56;0.7;0.63;389.0;-0.196933;-0.003587;6.5;5.75;3.75;3.5;0.75;1.0;0.5;0.25;1.5;0.5;0.75;0.5;0.5;0.75;0.5;0.5;-0.25293;0.024902;0.976562;-0.91;-0.98;0.77;314.0;-0.201255;-0.025731
0.9;7.75;7.5;5.0;4.25;0.75;0.5;0.25;0.25;2.75;0.75;1.0;0.5;0.25;1.0;0.25;0.5;-0.226074;0.012207;0.988281;-0.49;0.77;0.63;381.0;-0.202298;-0.007941;6.5;5.75;3.75;3.5;0.75;1.0;0.5;0.25;1.5;0.75;0.75;0.5;0.5;0.5;0.5;0.5;-0.251953;0.024414;0.975586;-0.98;-1.05;0.7;315.0;-0.201793;-0.026422
0.91;7.75;7.5;5.0;4.25;0.75;0.5;0.25;0.25;2.75;1.0;1.0;0.5;0.25;1.25;0.25;0.5;-0.222168;0.015137;0.987305;-0.49;0.49;0.7;386.0;-0.195343;-0.006296;6.5;6.0;3.75;3.5;0.75;1.0;0.5;0.25;1.75;0.5;0.75;0.5;0.5;0.5;0.5;0.5;-0.258301;0.023926;0.97168;-0.98;-0.98;0.77;318.0;-0.202296;-0.024955
0.92;7.75;7.25;5.0;4.5;0.75;0.5;0.25;0.0;2.75;1.0;1.0;0.25;0.25;1.25;0.25;0.5;-0.222168;0.01709;0.991699;-0.49;0.63;0.56;380.0;-0.199678;-0.000535;6.5;6.0;3.75;3.5;0.75;1.0;0.5;0.25;2.0;0.5;0.75;0.5;0.5;0.5;0.5;0.5;-0.257812;0.020996;0.978027;-1.05;-0.91;0.84;322.0;-0.197197;-0.021628
0.93;7.75;7.5;5.0;4.75;0.75;0.25;0.25;0.0;3.0;0.75;1.0;0.25;0.25;1.5;0.25;0.5;-0.222168;0.013672;0.987793;-0.63;0.63;0.63;385.0;-0.197471;0.00189;6.75;6.0;4.0;3.5;0.75;1.0;0.5;0.25;2.0;0.75;0.75;0.5;0.5;0.5;0.5;0.5;-0.251953;0.025391;0.977051;-0.98;-0.98;0.77;330.0;-0.195827;-0.018751
0.94;8.5;7.5;5.0;4.25;0.75;0.25;0.25;0.25;3.0;0.75;1.0;0.5;0.25;1.25;0.25;0.5;-0.21875;0.015625;0.984863;-0.56;0.49;0.56;392.0;-0.199207;0.000265;6.5;6.25;3.75;3.75;0.75;1.0;0.25;0.25;1.75;0.5;0.75;0.5;0.5;0.5;0.5;0.5;-0.248047;0.024414;0.980957;-0.98;-0.98;0.7;320.0;-0.208429;-0.031392
0.95;8.25;7.5;5.0;4.5;0.75;0.5;0.25;0.25;2.75;1.0;1.0;0.5;0.25;0.75;0.25;0.5;-0.225586;0.013672;0.983398;-0.56;0.7;0.63;390.0;-0.206301;-0.008495;6.5;6.0;3.75;3.75;0.75;1.0;0.25;0.25;1.5;0.5;1.25;0.5;0.25;0.75;0.5;0.5;-0.252441;0.025879;0.978516;-1.05;-0.98;0.84;319.0;-0.202478;-0.030574
0.96;8.0;7.25;5.25;4.25;0.75;0.5;0.25;0.25;2.75;1.0;1.0;0.5;0.25;0.75;0.25;0.5;-0.217285;0.018555;0.986328;-0.56;0.7;0.63;385.0;-0.203312;-0.005866;6.5;5.5;3.75;3.75;0.5;1.0;0.5;0.25;1.5;0.75;0.5;0.5;0.25;0.75;0.5;0.5;-0.251953;0.025879;0.976074;-1.05;-0.98;0.84;309.0;-0.203785;-0.022389
0.97;8.25;7.0;5.0;4.0;0.75;0.5;0.25;0.25;2.75;0.5;0.5;0.5;0.0;1.0;0.25;0.5;-0.221191;0.016113;0.98291;-0.49;0.56;0.63;368.0;-0.214222;0.001823;7.0;6.25;4.0;3.5;0.75;1.0;0.5;0.25;1.5;0.75;0.5;0.5;0.25;0.25;0.25;0.5;-0.253418;0.026367;0.974609;-1.05;-0.98;0.84;318.0;-0.225952;-0.022083
0.98;7.75;7.5;5.0;4.25;0.75;0.5;0.25;0.25;3.0;0.5;0.5;0.5;0.0;0.75;0.25;0.5;-0.222168;0.008301;0.986328;-0.63;0.77;0.56;371.0;-0.214067;-0.002394;6.75;6.5;4.0;3.5;0.75;1.0;0.5;0.25;1.75;0.5;0.75;0.5;0.5;0.25;0.25;0.5;-0.256348;0.024902;0.970703;-0.98;-0.91;0.77;324.0;-0.217789;-0.025853
0.99;7.75;7.5;5.0;4.25;1.0;0.5;0.25;0.25;3.0;0.5;0.5;0.5;0.25;1.0;0.25;0.5;-0.21875;0.018555;0.987305;-0.56;0.7;0.63;379.0;-0.207143;-0.003639;6.75;6.25;4.0;3.5;0.75;1.0;0.25;0.25;1.5;0.5;0.75;0.5;0.25;0.25;0.5;0.5;-0.24707;0.019531;0.968262;-0.98;-1.05;0.77;314.0;-0.222695;-0.028912
1.0;8.25;7.5;5.0;4.25;0.75;0.25;0.25;0.25;2.5;0.5;1.0;0.25;0.0;1.25;0.0;0.25;-0.221191;0.013184;0.988281;-0.63;0.7;0.56;370.0;-0.222298;0.000789;7.0;6.25;3.75;3.5;0.75;1.0;0.25;0.25;1.75;0.25;0.75;0.25;0.25;0.5;0.5;0.25;-0.258789;0.026855;0.977539;-0.98;-1.05;0.84;313.0;-0.224667;-0.02085
1.01;7.75;7.5;5.25;4.25;0.75;0.25;0.25;0.0;2.5;0.5;1.0;0.5;0.25;0.75;0.25;0.5;-0.222656;0.01123;0.986328;-0.56;0.7;0.56;368.0;-0.217125;-0.005122;7.0;6.5;3.75;3.5;0.5;1.0;0.25;0.25;1.75;0.25;0.5;0.5;0.25;0.5;0.5;0.5;-0.253418;0.021973;0.970215;-1.05;-0.91;0.84;314.0;-0.224521;-0.025846
1.02;8.25;7.5;5.0;4.25;0.75;0.5;0.25;0.25;2.75;0.75;1.0;0.5;0.25;1.0;0.25;0.5;-0.220215;0.013184;0.987305;-0.63;0.63;0.63;387.0;-0.20524;-0.006231;6.5;6.25;3.75;3.75;0.5;1.0;0.5;0.0;2.0;0.5;0.5;0.25;0.25;0.75;0.5;0.5;-0.249023;0.022949;0.970703;-0.98;-0.91;0.77;314.0;-0.208771;-0.012473
1.03;8.25;7.5;5.25;4.25;0.75;0.5;0.25;0.25;2.75;1.0;1.0;0.5;0.25;1.25;0.0;0.5;-0.220703;0.009277;0.983398;-0.56;0.7;0.56;392.0;-0.2033;-0.003335;7.0;6.5;3.75;3.75;0.5;1.0;0.5;0.25;1.5;0.5;0.5;0.25;0.25;0.75;0.5;0.25;-0.250977;0.02832;0.972656;-0.98;-1.05;0.77;318.0;-0.224423;-0.021547
1.04;8.0;7.5;5.0;4.25;0.75;0.5;0.25;0.25;2.5;0.75;1.0;0.5;0.25;1.25;0.25;0.5;-0.217773;0.008301;0.990234;-0.7;0.63;0.49;383.0;-0.204341;-0.008589;7.25;6.75;3.75;3.75;0.75;1.0;0.5;0.25;1.5;0.5;0.5;0.5;0.25;0.75;0.5;0.5;-0.254395;0.026367;0.973633;-1.05;-0.91;0.77;331.0;-0.220123;-0.024479
1.05;8.0;7.5;5.25;4.25;0.75;0.5;0.25;0.25;2.75;0.5;1.0;0.25;0.25;1.25;0.25;0.5;-0.224121;0.015137;0.986816;-0.63;0.56;0.56;383.0;-0.206933;-0.003551;7.0;6.5;3.75;3.75;0.75;1.0;0.5;0.25;1.5;0.5;0.5;0.5;0.25;0.25;0.5;0.5;-0.250977;0.02002;0.969238;-0.84;-0.91;0.77;321.0;-0.226121;-0.027469
1.06;8.0;7.5;5.25;4.25;0.75;0.5;0.25;0.25;2.75;0.75;1.0;0.25;0.0;1.25;0.0;0.5;-0.223633;0.011719;0.989746;-0.7;0.7;0.56;381.0;-0.210544;0.000373;7.0;6.25;4.0;3.75;0.75;0.75;0.5;0.25;1.5;0.5;0.5;0.5;0.25;0.25;0.5;0.5;-0.255371;0.023438;0.971191;-0.84;-1.12;0.77;318.0;-0.225681;-0.022958
1.07;8.0;7.25;5.25;4.25;0.75;0.5;0.25;0.25;2.75;0.5;1.0;0.25;0.0;0.75;0.25;0.75;-0.219238;0.019043;0.987793;-0.56;0.63;0.56;375.0;-0.213309;-0.003052;7.0;6.5;4.0;3.75;0.75;0.5;0.5;0.25;1.75;0.75;0.5;0.5;0.25;0.25;0.5;0.5;-0.251953;0.019531;0.971191;-0.91;-0.91;0.77;324.0;-0.218436;-0.017738
1.08;7.75;7.25;5.0;4.25;0.75;0.5;0.25;0.25;2.75;0.75;1.0;0.5;0.0;0.75;0.25;0.5;-0.216797;0.01416;0.988281;-0.49;0.56;0.63;374.0;-0.207013;-0.00517;7.25;6.5;4.0;3.5;0.75;1.0;0.25;0.25;1.25;0.5;0.5;0.5;0.5;0.25;0.5;0.5;-0.250488;0.022949;0.971191;-0.98;-1.05;0.84;318.0;-0.233956;-0.033376
1.09;7.75;7.0;5.0;4.25;0.5;0.5;0.25;0.25;2.5;0.75;1.0;0.25;0.25;1.25;0.25;0.5;-0.219727;0.012695;0.986816;-0.63;0.56;0.56;369.0;-0.203786;-0.005662;7.0;6.5;4.0;3.75;0.75;1.0;0.25;0.25;1.25;0.5;0.5;0.5;0.25;0.5;0.5;0.5;-0.253418;0.021973;0.978027;-0.77;-0.91;0.84;318.0;-0.231225;-0.031738
1.1;8.25;7.25;5.0;4.25;0.75;0.5;0.25;0.25;2.25;1.0;1.0;0.25;0.25;1.25;0.25;0.5;-0.227051;0.010742;0.991699;-0.56;0.7;0.56;379.0;-0.208566;-0.006608;7.0;6.0;3.75;3.5;0.75;1.0;0.25;0.25;1.5;0.5;0.5;0.5;0.25;0.5;0.5;0.5;-0.249023;0.024902;0.977539;-0.7;-0.98;0.84;311.0;-0.22173;-0.025362
1.11;7.75;7.5;5.25;4.5;0.5;0.5;0.25;0.0;2.75;1.0;1.0;0.5;0.25;1.25;0.25;0.5;-0.219727;0.009766;0.979492;-0.63;0.63;0.56;385.0;-0.199142;-0.0036;7.0;6.25;3.75;3.5;1.0;1.0;0.25;0.0;1.5;0.5;0.5;0.5;0.25;0.25;0.5;0.25;-0.248047;0.023926;0.970703;-0.91;-0.98;0.84;308.0;-0.232781;-0.020867
1.12;8.0;7.5;5.0;4.25;0.5;0.5;0.25;0.0;3.0;0.5;1.25;0.5;0.25;0.75;0.25;0.5;-0.220215;0.012207;0.988281;-0.63;0.56;0.49;378.0;-0.206033;-0.003215;7.0;6.0;4.0;3.75;1.0;0.75;0.25;0.0;1.75;0.5;0.75;0.25;0.25;0.25;0.25;0.25;-0.251953;0.024414;0.978516;-0.77;-1.05;0.84;310.0;-0.233064;-0.012496
1.13;8.0;7.5;5.25;4.5;0.75;0.5;0.25;0.0;2.75;0.5;1.0;0.5;0.25;0.75;0.5;0.75;-0.217773;0.010742;0.987305;-0.63;0.56;0.56;385.0;-0.207266;-0.007229;7.0;6.75;4.0;3.75;0.75;0.75;0.5;0.25;1.5;0.5;0.75;0.25;0.25;0.5;0.25;0.5;-0.253906;0.021973;0.970215;-0.7;-1.05;0.77;323.0;-0.229576;-0.021613
1.14;8.25;7.5;5.25;4.5;0.75;0.5;0.25;0.25;2.5;0.75;1.0;0.5;0.25;0.75;0.5;0.5;-0.22168;0.016602;0.991699;-0.7;0.49;0.49;390.0;-0.209754;-0.011396;7.0;6.75;4.0;3.75;1.0;0.75;0.5;0.25;1.5;0.75;0.75;0.25;0.25;0.25;0.5;0.5;-0.255859;0.027832;0.969727;-0.77;-0.91;0.84;329.0;-0.223546;-0.022051
1.15;8.25;7.5;5.25;4.25;0.75;0.5;0.25;0.25;2.5;0.5;1.0;0.5;0.25;1.0;0.25;0.5;-0.220703;0.011719;0.984863;-0.63;0.63;0.63;383.0;-0.213331;-0.00861;6.75;6.5;4.0;3.75;0.75;0.75;0.25;0.25;2.0;0.75;0.5;0.25;0.25;0.25;0.5;0.5;-0.256836;0.027832;0.976074;-0.7;-0.98;0.84;321.0;-0.218572;-0.018808
1.16;8.25;7.5;5.0;4.25;0.75;0.5;0.25;0.25;2.75;0.5;0.75;0.5;0.0;1.0;0.25;0.5;-0.219238;0.012695;0.985352;-0.63;0.77;0.49;379.0;-0.214173;-0.003098;7.25;6.75;3.75;3.5;0.75;1.0;0.25;0.25;1.5;0.75;0.5;0.25;0.25;0.25;0.5;0.5;-0.25;0.021973;0.97168;-0.77;-0.91;0.77;319.0;-0.232353;-0.025748
1.17;7.75;7.5;5.0;4.25;0.5;0.5;0.25;0.25;2.5;0.75;0.5;0.5;0.25;1.25;0.25;0.5;-0.223633;0.019043;0.987305;-0.56;0.56;0.56;371.0;-0.210097;-0.008397;7.0;6.5;3.75;3.75;0.75;1.0;0.25;0.25;1.25;0.5;0.5;0.25;0.5;0.25;0.25;0.5;-0.250488;0.025391;0.973145;-0.56;-0.91;0.7;310.0;-0.24268;-0.034845
1.18;8.0;7.5;5.25;4.5;0.5;0.25;0.25;0.25;2.5;0.5;1.0;0.75;0.25;1.25;0.25;0.5;-0.223145;0.010254;0.988281;-0.63;0.56;0.63;383.0;-0.206697;-0.0107;7.0;6.5;4.0;3.75;0.75;0.75;0.25;0.25;1.5;0.5;0.5;0.25;0.5;0.25;0.25;0.5;-0.250977;0.021484;0.972656;-0.63;-0.91;0.77;313.0;-0.238063;-0.027847
1.19;8.25;7.5;5.0;4.25;0.5;0.25;0.25;0.0;2.5;0.5;1.0;0.75;0.25;0.75;0.25;0.5;-0.220215;0.013184;0.986328;-0.63;0.63;0.56;371.0;-0.217;-0.006957;7.0;6.5;4.0;3.75;0.75;1.0;0.25;0.25;1.5;0.75;0.75;0.25;0.25;0.5;0.25;0.5;-0.250977;0.029785;0.974121;-0.7;-0.98;0.84;322.0;-0.227211;-0.025428
1.2;8.0;7.5;5.0;4.25;0.5;0.5;0.25;0.0;3.0;0.75;0.75;0.75;0.25;0.75;0.25;0.5;-0.222168;0.015625;0.98291;-0.56;0.49;0.56;378.0;-0.206049;-0.003236;7.0;6.0;3.75;3.75;0.75;1.25;0.25;0.25;1.5;0.25;0.75;0.25;0.25;0.75;0.5;0.25;-0.251953;0.026855;0.973145;-0.63;-1.05;0.84;315.0;-0.22381;-0.0259
1.21;8.5;7.5;5.0;4.25;0.75;0.5;0.25;0.0;2.75;0.75;1.0;0.5;0.25;0.75;0.0;0.25;-0.220215;0.013184;0.987305;-0.63;0.63;0.63;379.0;-0.219481;-0.000482;6.75;6.5;3.75;3.5;0.75;0.75;0.5;0.25;1.5;0.25;0.75;0.25;0.25;0.75;0.5;0.25;-0.253418;0.022949;0.970215;-0.63;-1.05;0.77;312.0;-0.222037;-0.019227
1.22;8.0;7.5;5.0;4.25;0.75;0.5;0.25;0.0;2.75;0.75;0.5;0.5;0.0;0.75;0.0;0.5;-0.223145;0.014648;0.990723;-0.7;0.7;0.56;366.0;-0.22375;0.001327;6.5;6.25;3.75;3.75;0.75;0.75;0.5;0.25;1.75;0.5;0.5;0.25;0.25;0.25;0.5;0.5;-0.252441;0.023926;0.967773;-0.56;-1.05;0.84;310.0;-0.22053;-0.020505
1.23;7.75;7.5;5.0;4.5;0.75;0.25;0.25;0.25;2.75;1.0;0.5;0.5;0.0;0.75;0.0;0.5;-0.224609;0.019531;0.986328;-0.56;0.7;0.56;371.0;-0.217535;-0.003059;6.75;6.25;4.0;3.75;0.75;1.0;0.5;0.25;2.0;0.5;0.5;0.5;0.25;0.5;0.5;0.5;-0.256836;0.02002;0.966797;-0.56;-0.91;0.84;328.0;-0.208447;-0.018457
1.24;7.75;7.5;5.0;4.25;0.5;0.5;0.25;0.25;2.75;0.75;0.5;0.75;0.25;0.75;0.25;0.5;-0.221191;0.010742;0.987305;-0.63;0.63;0.63;373.0;-0.210138;-0.010224;6.5;5.5;3.5;3.75;0.75;1.0;0.25;0.25;2.0;0.75;0.5;0.5;0.25;0.5;0.5;0.5;-0.257812;0.027344;0.974609;-0.56;-0.91;0.77;310.0;-0.200192;-0.020849
1.25;8.0;7.5;5.25;4.5;0.5;0.5;0.25;0.25;2.75;0.5;0.75;0.25;0.25;0.75;0.25;0.5;-0.217285;0.01416;0.991699;-0.56;0.49;0.63;376.0;-0.219171;-0.007218;6.25;6.0;4.0;3.75;0.75;0.75;0.25;0.25;2.0;0.25;0.75;0.25;0.5;0.75;0.5;0.5;-0.250488;0.030762;0.973145;-0.63;-0.91;0.84;314.0;-0.204102;-0.021536
1.26;8.0;7.5;5.25;4.75;0.75;0.5;0.25;0.25;2.75;0.5;1.0;0.25;0.25;1.0;0.25;0.5;-0.219238;0.01123;0.986816;-0.63;0.49;0.56;387.0;-0.211897;-0.008066;6.5;6.25;4.0;3.75;0.75;0.75;0.25;0.25;2.0;0.25;0.75;0.25;0.5;0.75;0.5;0.5;-0.251953;0.024902;0.970215;-0.49;-0.98;0.77;320.0;-0.20754;-0.021522
1.27;8.0;7.5;5.0;4.5;0.5;0.5;0.25;0.25;2.75;0.5;0.75;0.5;0.25;1.25;0.25;0.5;-0.224609;0.015625;0.985352;-0.63;0.63;0.63;380.0;-0.207847;-0.007921;6.5;6.0;3.75;3.75;0.75;1.0;0.5;0.25;1.75;0.5;0.75;0.25;0.5;0.75;0.5;0.5;-0.254883;0.026855;0.974609;-0.56;-0.91;0.84;321.0;-0.202337;-0.022922
1.28;8.25;7.5;5.0;4.75;0.5;0.5;0.25;0.0;2.5;0.5;1.0;0.5;0.0;0.75;0.25;0.5;-0.224609;0.010254;0.986328;-0.63;0.63;0.56;374.0;-0.223324;-0.007477;6.25;6.0;3.75;3.75;0.75;1.0;0.5;0.25;1.75;0.75;0.75;0.25;0.5;0.75;0.5;0.5;-0.249023;0.023926;0.980469;-0.56;-0.98;0.77;321.0;-0.196637;-0.023316
1.29;8.25;7.5;5.25;4.5;0.75;0.5;0.25;0.25;2.75;0.75;0.75;0.5;0.0;0.75;0.5;0.5;-0.219238;0.010742;0.987793;-0.56;0.49;0.56;388.0;-0.21097;-0.00526;6.5;6.0;3.75;3.5;0.75;1.0;0.25;0.25;1.5;0.75;0.75;0.5;0.5;0.5;0.5;0.5;-0.256348;0.023438;0.972168;-0.56;-0.98;0.84;313.0;-0.20723;-0.031082
1.3;8.25;7.5;5.0;4.25;0.75;0.5;0.25;0.25;2.75;0.5;1.0;0.5;0.25;1.0;0.5;0.5;-0.223633;0.015625;0.986816;-0.63;0.56;0.63;387.0;-0.203972;-0.00731;6.0;5.75;3.75;3.25;0.75;1.0;0.25;0.25;1.5;0.5;0.75;0.5;0.5;0.25;0.5;0.5;-0.253418;0.024414;0.972168;-0.63;-0.91;0.77;297.0;-0.210036;-0.033187
1.31;8.25;7.5;5.0;4.25;0.75;0.5;0.25;0.0;2.5;0.5;1.0;0.5;0.0;1.25;0.5;0.5;-0.219238;0.011719;0.991211;-0.63;0.56;0.56;379.0;-0.208966;-0.001787;6.25;5.75;3.75;4.0;0.75;1.0;0.25;0.25;1.75;0.25;0.75;0.5;0.5;0.25;0.5;0.5;-0.253418;0.025391;0.972168;-0.63;-0.91;0.77;309.0;-0.212803;-0.034798
1.32;8.0;7.0;5.0;4.25;0.75;0.5;0.25;0.25;2.75;0.5;1.0;0.25;0.0;1.0;0.25;0.25;-0.218262;0.01416;0.988281;-0.63;0.56;0.56;369.0;-0.212158;0.000927;6.75;5.75;3.75;3.75;0.75;1.0;0.5;0.25;1.75;0.25;0.75;0.25;0.5;0.25;0.25;0.5;-0.25293;0.025879;0.972656;-0.56;-0.98;0.77;311.0;-0.221306;-0.023807
1.33;7.75;7.5;5.0;4.25;0.75;0.5;0.25;0.25;2.75;0.5;1.0;0.5;0.0;1.0;0.25;0.25;-0.222656;0.010742;0.98291;-0.63;0.63;0.56;374.0;-0.210225;-0.004423;6.25;5.75;3.75;3.75;0.75;1.0;0.5;0.25;2.0;0.5;0.75;0.25;0.5;0.5;0.25;0.5;-0.25;0.023438;0.968262;-0.56;-0.98;0.84;314.0;-0.203697;-0.020514
1.34;7.75;7.5;5.25;4.25;0.75;0.5;0.25;0.25;3.0;0.75;1.0;0.25;0.25;1.25;0.25;0.25;-0.220215;0.015137;0.985352;-0.7;0.56;0.56;386.0;-0.200077;-0.00011;6.0;5.75;4.0;3.75;0.75;1.0;0.25;0.25;1.5;0.75;0.75;0.5;0.5;0.75;0.5;0.5;-0.255371;0.020508;0.974121;-0.56;-0.91;0.84;313.0;-0.198753;-0.031659
1.35;8.0;7.5;5.0;4.25;0.75;0.5;0.25;0.0;2.75;1.0;1.25;0.25;0.25;1.0;0.25;0.25;-0.216309;0.013672;0.97998;-0.7;0.7;0.56;381.0;-0.204647;0.000213;6.0;5.75;3.75;3.75;0.75;1.0;0.25;0.25;1.75;0.75;0.75;0.5;0.5;0.25;0.25;0.5;-0.250488;0.020996;0.972656;-0.63;-0.91;0.84;306.0;-0.207709;-0.031991
1.36;8.0;7.5;5.0;4.25;1.0;0.5;0.25;0.0;2.25;0.5;1.0;0.25;0.25;0.75;0.25;0.25;-0.222656;0.011719;0.993164;-0.56;0.63;0.56;366.0;-0.227201;-0.005851;6.25;6.0;3.75;3.75;0.75;1.0;0.25;0.25;1.75;0.75;0.75;0.25;0.5;0.25;0.25;0.5;-0.254883;0.022949;0.972656;-0.56;-0.91;0.7;309.0;-0.215091;-0.029335
1.37;8.0;7.5;5.0;4.5;0.75;0.5;0.25;0.25;2.5;0.5;1.0;0.5;0.0;0.75;0.25;0.25;-0.223145;0.015625;0.986328;-0.56;0.56;0.56;374.0;-0.220626;-0.009127;6.0;6.0;3.75;3.5;1.0;1.0;0.25;0.25;2.0;0.75;0.75;0.25;0.5;0.5;0.25;0.5;-0.253906;0.022949;0.970703;-0.63;-0.84;0.77;312.0;-0.201751;-0.022816
1.38;8.125;7.5;5.0;4.5;0.75;0.5;0.25;0.25;2.625;0.5;1.0;0.5;0.0;0.75;0.25;0.25;-0.22168;0.0151365;0.9885255;-0.63;0.56;0.525;377.5;-0.21906399999999998;-0.0073565;6.0;5.75;3.75;4.0;1.0;1.0;0.25;0.25;2.0;0.75;0.75;0.25;0.5;0.5;0.5;0.5;-0.252441;0.026367;0.97168;-0.63;-0.84;0.84;318.0;-0.196179;-0.026022
1.39;8.25;7.5;5.0;4.5;0.75;0.5;0.25;0.25;2.75;0.5;1.0;0.5;0.0;0.75;0.25;0.25;-0.220215;0.014648;0.990723;-0.7;0.56;0.49;381.0;-0.217502;-0.005586;6.0;5.75;3.5;3.5;0.75;1.0;0.25;0.25;1.5;0.75;0.75;0.25;0.25;0.5;0.5;0.5;-0.251953;0.027344;0.969727;-0.56;-0.98;0.84;297.0;-0.208144;-0.027855
1.4;8.0;7.5;5.0;4.5;0.75;0.25;0.25;0.25;2.75;0.75;1.0;0.5;0.25;0.75;0.25;0.5;-0.221191;0.016602;0.983887;-0.7;0.63;0.56;382.0;-0.20859;-0.007844;6.5;5.5;3.75;3.75;0.75;1.0;0.5;0.25;1.5;0.75;0.75;0.5;0.25;0.25;0.25;0.5;-0.251953;0.026367;0.969238;-0.49;-0.98;0.84;308.0;-0.214018;-0.024903
1.41;8.25;7.5;5.0;4.25;0.5;0.25;0.25;0.0;2.75;0.75;1.0;0.5;0.25;1.25;0.0;0.25;-0.215332;0.009277;0.987305;-0.49;0.56;0.63;374.0;-0.211545;0.002569;6.25;5.5;3.75;3.75;0.75;1.25;0.5;0.5;1.5;0.75;1.0;0.5;0.25;0.75;0.5;0.75;-0.249512;0.026855;0.97168;-0.63;-0.91;0.7;324.0;-0.188215;-0.032789
1.42;8.0;7.75;5.0;4.5;0.5;0.25;0.25;0.25;2.25;0.75;1.25;0.5;0.25;1.25;0.25;0.25;-0.222168;0.011719;0.989746;-0.56;0.77;0.56;380.0;-0.210739;-0.012106;6.0;5.5;3.75;4.0;1.0;0.75;0.5;0.25;2.0;0.5;1.0;0.5;0.5;0.25;0.5;0.5;-0.256836;0.02832;0.978516;-0.56;-0.91;0.7;318.0;-0.192136;-0.024665
1.43;8.125;7.625;5.125;4.5;0.625;0.375;0.25;0.25;2.375;0.75;1.125;0.5;0.25;1.25;0.25;0.25;-0.2175295;0.011963000000000001;0.9904785;-0.595;0.7;0.56;385.0;-0.2098935;-0.009791000000000001;6.25;5.75;3.75;4.0;0.75;1.0;0.5;0.25;2.0;0.75;0.75;0.5;0.5;0.25;0.5;0.5;-0.249023;0.026367;0.973633;-0.63;-0.91;0.77;323.0;-0.195888;-0.026098
1.44;8.25;7.5;5.25;4.5;0.75;0.5;0.25;0.25;2.5;0.75;1.0;0.5;0.25;1.25;0.25;0.25;-0.212891;0.012207;0.991211;-0.63;0.63;0.56;390.0;-0.209048;-0.007476;6.5;5.5;3.5;3.5;0.75;1.0;0.5;0.25;2.0;0.75;0.5;0.5;0.5;0.25;0.5;0.5;-0.25;0.021484;0.97168;-0.56;-0.91;0.77;311.0;-0.197413;-0.020214
1.45;8.0;7.5;5.0;4.5;0.75;0.5;0.25;0.25;2.75;0.75;1.0;0.25;0.25;1.25;0.25;0.5;-0.228027;0.010742;0.982422;-0.56;0.56;0.63;386.0;-0.203805;-0.005505;6.0;5.5;3.75;3.0;1.0;1.0;0.5;0.25;2.0;0.75;0.75;0.5;0.25;0.75;0.5;0.5;-0.251953;0.027344;0.973633;-0.56;-0.98;0.77;311.0;-0.18167;-0.011334
1.46;8.0;7.5;5.0;4.5;0.75;0.5;0.25;0.25;2.75;0.5;1.0;0.25;0.25;1.25;0.25;0.25;-0.228027;0.015137;0.990234;-0.63;0.7;0.56;382.0;-0.209299;-0.004827;6.0;5.5;3.5;3.25;0.75;1.25;0.25;0.25;2.0;1.0;1.0;0.5;0.25;0.75;0.5;0.5;-0.251465;0.027344;0.969727;-0.49;-0.91;0.84;312.0;-0.17801;-0.021177
1.47;7.75;7.5;5.25;4.25;0.75;0.5;0.25;0.25;2.5;0.5;1.0;0.25;0.25;1.25;0.25;0.5;-0.219238;0.011719;0.990723;-0.56;0.56;0.63;377.0;-0.209854;-0.00703;6.0;5.5;3.5;3.25;0.75;1.0;0.25;0.25;2.0;0.75;1.25;0.5;0.5;0.25;0.5;0.5;-0.251953;0.025879;0.976562;-0.56;-0.91;0.77;307.0;-0.184636;-0.026792
1.48;8.0;7.5;5.25;4.0;0.75;0.5;0.25;0.25;2.5;0.5;1.25;0.25;0.25;1.25;0.25;0.5;-0.217773;0.01416;0.987305;-0.56;0.56;0.63;380.0;-0.2074;-0.005267;6.0;5.5;3.75;3.5;0.75;1.0;0.5;0.25;2.0;0.75;1.0;0.5;0.5;0.25;0.5;0.5;-0.251465;0.025879;0.972168;-0.63;-0.84;0.77;314.0;-0.186666;-0.023216
1.49;8.0;7.5;5.25;4.25;0.75;0.5;0.25;0.25;2.75;0.5;1.0;0.5;0.0;1.25;0.25;0.5;-0.223633;0.016113;0.984375;-0.56;0.56;0.63;384.0;-0.20612;-0.002936;6.0;5.5;3.75;3.0;0.75;1.0;0.5;0.5;2.0;0.75;0.75;0.5;0.5;0.75;0.75;0.5;-0.254883;0.026855;0.97168;-0.63;-0.84;0.84;317.0;-0.172049;-0.020997
1.5;8.0;7.5;5.125;4.25;0.75;0.5;0.25;0.125;2.75;0.625;1.0;0.375;0.0;1.0;0.25;0.5;-0.22412100000000001;0.0148925;0.9873045;-0.56;0.595;0.56;378.0;-0.21072249999999998;-0.000876;6.0;5.5;3.75;3.25;0.75;1.25;0.5;0.25;2.0;0.75;1.0;0.5;0.25;0.75;0.5;0.5;-0.25293;0.027344;0.972656;-0.63;-0.98;0.84;317.0;-0.179249;-0.017446
1.51;8.0;7.5;5.0;4.25;0.75;0.5;0.25;0.0;2.75;0.75;1.0;0.25;0.0;0.75;0.25;0.5;-0.224609;0.013672;0.990234;-0.56;0.63;0.49;372.0;-0.215325;0.001184;6.0;5.75;3.75;3.5;0.75;1.0;0.5;0.25;2.0;0.75;1.25;0.5;0.25;0.5;0.5;0.5;-0.251953;0.027832;0.974609;-0.56;-0.91;0.7;320.0;-0.18306;-0.020484
1.52;8.0;7.25;5.0;4.25;0.75;0.5;0.25;0.25;2.5;1.0;1.0;0.25;0.0;0.75;0.25;0.5;-0.224609;0.010742;0.985352;-0.63;0.7;0.56;373.0;-0.212749;-0.004212;6.0;5.5;3.5;3.25;1.0;1.0;0.5;0.25;2.0;0.75;1.25;0.5;0.5;0.5;0.5;0.5;-0.252441;0.029785;0.974609;-0.63;-0.91;0.7;317.0;-0.176246;-0.020951
1.53;8.0;7.25;5.0;4.5;0.5;0.5;0.25;0.25;2.75;0.75;1.0;0.5;0.0;1.25;0.25;0.5;-0.216309;0.01123;0.984863;-0.63;0.63;0.56;381.0;-0.202201;-0.004348;6.0;5.5;3.75;3.25;0.75;1.25;0.5;0.25;2.0;1.0;1.0;0.5;0.5;0.75;0.5;0.5;-0.256348;0.027832;0.977539;-0.77;-0.84;0.84;322.0;-0.172992;-0.019977
1.54;8.0;7.75;5.0;4.25;0.5;0.5;0.25;0.25;2.5;0.75;1.25;0.5;0.25;1.25;0.25;0.25;-0.220703;0.017578;0.986816;-0.7;0.56;0.63;383.0;-0.205328;-0.009794;6.0;5.5;3.5;3.25;0.75;1.0;0.5;0.25;2.0;1.0;1.0;0.5;0.5;0.25;0.5;0.5;-0.252441;0.025391;0.97168;-0.63;-0.91;0.77;311.0;-0.181021;-0.021579
1.55;7.75;7.5;5.0;4.25;0.75;0.5;0.25;0.0;2.5;0.75;1.25;0.5;0.25;1.0;0.25;0.25;-0.220703;0.01416;0.989746;-0.49;0.56;0.63;375.0;-0.207744;-0.005985;6.0;5.5;3.75;3.0;0.5;1.0;0.5;0.25;2.0;1.0;1.25;0.75;0.5;0.25;0.75;0.5;-0.255859;0.027344;0.977539;-0.7;-0.91;0.77;317.0;-0.16881;-0.023268
1.56;8.25;7.5;5.0;4.5;0.75;0.5;0.25;0.0;2.75;0.5;1.25;0.5;0.25;1.0;0.25;0.5;-0.222168;0.018066;0.983398;-0.63;0.63;0.63;386.0;-0.20805;-0.005099;5.75;5.25;3.5;3.0;0.5;0.75;0.5;0.25;2.0;0.75;1.25;0.75;0.5;0.75;0.75;0.5;-0.252441;0.023926;0.967285;-0.84;-0.98;0.77;307.0;-0.15882;-0.019783
1.57;8.0;8.0;5.0;4.5;0.75;0.5;0.25;0.25;2.75;0.5;1.25;0.25;0.25;0.75;0.25;0.25;-0.225586;0.015625;0.987305;-0.56;0.63;0.56;385.0;-0.216277;-0.009963;5.25;5.25;3.5;3.25;0.75;1.0;0.5;0.25;2.25;0.75;1.0;0.75;0.5;0.75;0.75;0.5;-0.251953;0.030762;0.966797;-0.7;-0.91;0.77;311.0;-0.153996;-0.021471
1.58;8.0;7.5;5.0;4.5;0.75;0.5;0.25;0.25;2.75;0.5;1.0;0.25;0.25;0.75;0.25;0.25;-0.223633;0.016113;0.991699;-0.63;0.7;0.56;377.0;-0.216952;-0.007073;5.5;5.25;3.75;3.25;0.5;0.75;0.5;0.25;2.25;0.75;1.0;0.75;0.5;0.5;0.75;0.5;-0.251953;0.027344;0.973633;-0.77;-0.91;0.77;309.0;-0.161934;-0.019064
1.59;8.0;7.5;5.25;4.5;0.75;0.5;0.25;0.25;2.75;0.75;1.0;0.0;0.25;1.0;0.5;0.25;-0.226074;0.008789;0.989746;-0.63;0.63;0.56;385.0;-0.208712;-0.003074;5.75;5.5;3.75;3.75;1.0;1.0;0.25;0.25;2.25;0.75;1.0;0.75;0.5;0.75;1.0;0.5;-0.254883;0.025879;0.973633;-0.77;-0.91;0.77;330.0;-0.161511;-0.026079
1.6;8.0;7.5;5.25;4.5;0.75;0.5;0.25;0.25;2.5;0.75;1.0;0.25;0.25;1.0;0.5;0.25;-0.219727;0.015625;0.985352;-0.63;0.56;0.56;385.0;-0.209907;-0.007845;5.75;5.25;3.75;3.25;1.0;1.25;0.5;0.5;2.25;0.75;1.0;0.75;0.5;0.75;1.0;0.5;-0.258301;0.025391;0.974609;-0.63;-0.91;0.77;333.0;-0.152372;-0.024894
1.61;8.0;7.75;5.0;4.5;0.75;0.5;0.25;0.25;2.5;0.75;1.0;0.5;0.25;1.0;0.5;0.25;-0.223145;0.016602;0.99707;-0.56;0.63;0.56;387.0;-0.207697;-0.011785;5.75;5.25;3.75;3.5;0.75;1.25;0.5;0.5;2.0;0.75;0.75;0.75;0.5;0.75;0.75;0.75;-0.254395;0.027832;0.972656;-0.7;-0.91;0.63;325.0;-0.164291;-0.030834
1.62;8.25;7.5;5.0;4.25;0.75;0.5;0.25;0.25;2.75;0.75;1.0;0.5;0.0;0.75;0.25;0.25;-0.223145;0.013184;0.981445;-0.56;0.7;0.63;380.0;-0.21353;-0.003339;5.25;5.25;3.5;3.0;0.75;1.0;0.5;0.25;2.0;0.75;1.0;0.5;0.5;0.5;0.75;0.5;-0.253418;0.02002;0.978516;-0.77;-0.91;0.7;300.0;-0.165439;-0.021871
1.63;8.25;7.5;5.0;4.25;0.75;0.5;0.25;0.0;2.75;0.75;1.0;0.25;0.25;0.75;0.25;0.5;-0.217773;0.010254;0.988281;-0.49;0.42;0.63;377.0;-0.214334;-0.000896;5.5;5.25;3.5;3.0;0.75;1.0;0.5;0.25;2.25;0.75;1.0;0.5;0.5;0.75;0.5;0.5;-0.256836;0.029785;0.976074;-0.7;-0.98;0.77;305.0;-0.163688;-0.015108
1.64;8.0;7.5;5.25;4.25;0.75;0.5;0.25;0.0;2.75;0.5;1.0;0.25;0.25;1.25;0.25;0.5;-0.225098;0.012695;0.98584;-0.56;0.49;0.63;379.0;-0.209069;0.000711;5.5;5.25;3.5;3.25;1.0;1.0;0.5;0.25;2.0;0.75;1.0;0.75;0.5;1.0;0.75;0.5;-0.253418;0.024414;0.971191;-0.7;-0.98;0.84;316.0;-0.156437;-0.021402
1.65;8.25;7.5;5.25;4.25;0.75;0.5;0.25;0.25;2.75;0.5;1.25;0.5;0.25;1.25;0.25;0.5;-0.225098;0.016113;0.990723;-0.63;0.63;0.56;392.0;-0.202136;-0.005708;5.75;5.25;3.75;3.25;0.75;1.0;0.5;0.5;2.0;0.75;1.25;0.75;0.5;0.5;1.0;0.75;-0.256348;0.025879;0.974609;-0.77;-0.98;0.77;325.0;-0.155487;-0.030268
1.66;8.0;7.25;5.0;4.25;0.75;0.5;0.25;0.25;2.75;0.75;1.0;0.5;0.25;1.25;0.25;0.5;-0.219727;0.012695;0.979492;-0.63;0.56;0.63;384.0;-0.198651;-0.004917;5.75;5.25;3.75;3.0;0.75;1.0;0.5;0.5;2.0;0.75;1.0;0.5;0.5;0.25;1.0;0.5;-0.252441;0.026855;0.973633;-0.84;-1.05;0.77;313.0;-0.167716;-0.025378
1.67;8.25;7.5;5.25;4.25;0.5;0.5;0.25;0.25;2.75;0.75;1.0;0.25;0.25;0.75;0.25;0.5;-0.217773;0.013672;0.98584;-0.7;0.7;0.56;381.0;-0.213238;-0.004931;5.75;4.75;3.5;3.0;0.75;1.0;0.5;0.5;2.25;0.75;1.25;0.5;0.5;0.5;0.75;0.5;-0.254395;0.029297;0.970215;-0.77;-0.91;0.77;311.0;-0.155187;-0.019563
1.68;8.25;7.5;5.25;4.25;0.75;0.5;0.25;0.25;2.75;0.75;1.0;0.25;0.25;0.75;0.25;0.5;-0.219727;0.018066;0.993164;-0.56;0.7;0.49;384.0;-0.212552;-0.004414;5.5;5.25;3.5;3.25;0.75;1.0;0.5;0.5;2.0;0.75;1.25;0.5;0.5;0.75;0.75;0.5;-0.25293;0.021973;0.976074;-0.63;-0.91;0.77;315.0;-0.158894;-0.026906
1.69;8.25;7.5;5.25;4.5;0.75;0.25;0.25;0.25;2.75;0.75;1.0;0.25;0.25;1.0;0.25;0.5;-0.220703;0.011719;0.98877;-0.63;0.7;0.56;387.0;-0.209846;-0.002965;5.5;5.25;3.75;3.25;1.0;1.0;0.5;0.5;2.25;0.75;1.25;0.5;0.75;0.5;1.0;0.5;-0.254395;0.025391;0.973633;-0.63;-0.91;0.84;327.0;-0.151769;-0.026785
1.7;8.25;7.5;5.25;4.5;0.75;0.5;0.25;0.25;2.75;0.75;0.75;0.25;0.25;1.0;0.25;0.5;-0.217285;0.012207;0.987305;-0.56;0.77;0.63;387.0;-0.212624;-0.004205;5.5;5.25;3.75;3.25;1.0;1.0;0.5;0.5;2.25;0.75;1.25;0.75;0.5;0.25;1.0;0.75;-0.253906;0.027344;0.974609;-0.7;-0.91;0.7;327.0;-0.152594;-0.028776
1.71;8.25;7.5;5.25;4.75;0.75;0.5;0.25;0.25;2.5;0.75;0.5;0.25;0.25;1.25;0.25;0.5;-0.224121;0.01123;0.98291;-0.56;0.7;0.56;386.0;-0.217043;-0.006579;5.5;4.75;3.75;3.25;1.0;1.25;0.5;0.5;2.5;0.75;1.0;0.75;0.5;0.5;0.5;0.5;-0.253906;0.027344;0.976562;-0.77;-0.91;0.77;321.0;-0.155548;-0.02096
1.72;8.0;7.5;5.25;4.5;0.75;0.5;0.25;0.25;3.0;1.0;0.5;0.5;0.25;1.25;0.5;0.5;-0.221191;0.021484;0.986816;-0.49;0.63;0.49;396.0;-0.195708;-0.002822;5.5;4.75;3.75;3.0;1.0;1.0;0.5;0.25;2.25;0.75;1.25;0.75;0.5;0.75;0.5;0.5;-0.254883;0.02832;0.973145;-0.77;-0.91;0.77;312.0;-0.153221;-0.01443
1.73;8.0;7.5;5.25;4.5;0.75;0.75;0.25;0.25;3.0;1.0;1.0;0.5;0.25;1.25;0.5;0.5;-0.230469;0.016113;0.986816;-0.63;0.7;0.56;404.0;-0.189425;-0.006407;5.75;5.25;3.5;3.25;0.75;0.75;0.5;0.25;2.25;0.75;1.25;0.75;0.5;0.75;0.75;0.75;-0.25293;0.030762;0.974609;-0.7;-0.91;0.77;318.0;-0.152636;-0.019013
1.74;8.25;7.75;5.25;4.5;0.75;0.75;0.25;0.0;2.75;1.0;1.0;0.25;0.25;1.25;0.25;0.5;-0.220215;0.015625;0.989258;-0.49;0.42;0.7;396.0;-0.205495;-0.002432;5.5;5.25;3.5;3.25;1.0;1.0;0.5;0.25;2.25;0.75;1.0;0.75;0.5;0.75;0.75;0.5;-0.251465;0.024414;0.973633;-0.77;-0.98;0.77;317.0;-0.155947;-0.019525
1.75;8.25;7.5;5.25;4.25;0.75;0.5;0.25;0.0;2.75;1.0;1.0;0.25;0.25;1.25;0.25;0.5;-0.221191;0.01123;0.986816;-0.63;0.56;0.63;388.0;-0.203897;0.002426;5.5;5.25;3.5;3.25;0.75;1.0;0.5;0.5;2.0;0.75;1.25;0.75;0.5;0.75;0.5;0.5;-0.256836;0.027344;0.973633;-0.84;-0.91;0.77;315.0;-0.160688;-0.028865
1.76;8.0;7.25;5.25;4.25;0.75;0.5;0.25;0.25;2.75;0.75;1.0;0.25;0.25;1.25;0.25;0.5;-0.223145;0.009766;0.986816;-0.56;0.7;0.63;384.0;-0.202243;-0.001984;5.75;5.25;3.75;3.25;0.75;1.0;0.5;0.5;2.0;0.75;1.25;0.75;0.5;0.75;0.75;0.75;-0.254395;0.023438;0.973633;-0.7;-0.84;0.77;325.0;-0.156396;-0.028325
1.77;8.25;7.5;5.0;4.5;0.75;0.5;0.25;0.25;2.75;0.5;0.75;0.0;0.25;1.25;0.25;0.5;-0.224121;0.010742;0.984863;-0.63;0.63;0.63;380.0;-0.214963;-0.002144;5.5;5.25;3.75;3.5;0.75;1.0;0.5;0.5;2.25;1.0;1.0;0.75;0.5;0.75;0.75;0.75;-0.248535;0.027832;0.966797;-0.7;-0.98;0.77;329.0;-0.150871;-0.026446
1.78;7.75;7.5;5.0;4.75;0.75;0.5;0.25;0.25;2.75;0.5;1.0;0.25;0.25;1.25;0.25;0.25;-0.225098;0.015137;0.989258;-0.56;0.63;0.56;382.0;-0.208477;-0.007395;5.25;5.25;3.75;3.0;0.75;1.0;0.5;0.25;2.25;1.0;1.0;0.75;0.5;0.75;0.5;0.75;-0.258301;0.027832;0.973145;-0.77;-0.98;0.7;313.0;-0.152931;-0.018494
1.79;8.25;7.5;5.0;4.5;0.75;0.25;0.25;0.25;3.0;0.75;1.0;0.5;0.25;1.25;0.25;0.25;-0.223633;0.012695;0.98877;-0.63;0.7;0.56;391.0;-0.200528;-0.001057;5.5;5.25;3.75;3.25;1.0;1.25;0.5;0.25;2.25;0.75;1.0;0.5;0.5;0.75;0.5;0.75;-0.25293;0.023438;0.969238;-0.77;-0.91;0.7;319.0;-0.162924;-0.019154
1.8;8.0;7.5;5.0;4.25;0.75;0.25;0.25;0.25;2.75;0.5;0.5;0.5;0.25;1.25;0.25;0.25;-0.221191;0.016113;0.986328;-0.63;0.56;0.56;373.0;-0.212567;-0.001467;5.25;4.75;3.5;3.0;0.75;1.25;0.5;0.25;2.25;0.75;1.0;0.5;0.5;0.75;0.75;0.75;-0.259277;0.024902;0.972656;-0.84;-0.98;0.77;305.0;-0.149252;-0.018358
1.81;8.25;7.5;4.75;4.25;0.75;0.5;0.25;0.25;2.75;0.5;0.5;0.5;0.25;0.75;0.25;0.25;-0.225098;0.010254;0.983398;-0.56;0.42;0.63;371.0;-0.220921;-0.005787;5.25;4.75;3.5;3.0;0.75;1.0;0.5;0.25;2.0;0.75;0.75;0.75;0.5;0.75;1.0;0.75;-0.254395;0.021484;0.970215;-0.77;-0.91;0.63;301.0;-0.148877;-0.021655
1.82;8.0;7.5;5.0;4.5;0.75;0.5;0.25;0.25;2.75;0.5;1.0;0.5;0.0;0.75;0.25;0.5;-0.223145;0.013672;0.992188;-0.56;0.63;0.56;379.0;-0.21386;-0.007643;5.25;4.75;3.5;3.0;0.75;1.0;0.5;0.5;2.25;1.0;0.75;0.75;0.5;1.0;0.75;0.75;-0.255371;0.023438;0.973145;-0.84;-0.91;0.77;311.0;-0.139776;-0.02038
1.83;7.75;7.5;5.0;4.25;0.75;0.5;0.25;0.25;3.0;0.75;1.25;0.5;0.0;1.25;0.25;0.5;-0.220215;0.01709;0.988281;-0.42;0.56;0.63;387.0;-0.193477;-0.002263;5.25;4.75;3.75;3.0;1.0;1.25;0.5;0.25;2.25;1.0;0.75;0.75;0.5;0.5;0.5;0.75;-0.25293;0.030762;0.97998;-0.77;-0.91;0.77;309.0;-0.156113;-0.018331
1.84;8.0;7.5;5.0;4.25;0.75;0.25;0.25;0.25;3.0;0.5;1.0;0.5;0.25;0.75;0.25;0.5;-0.219727;0.013672;0.984375;-0.63;0.63;0.49;379.0;-0.206947;-0.004005;5.75;4.75;3.5;3.25;1.0;1.25;0.5;0.5;2.25;1.0;1.0;0.5;0.5;0.25;0.5;0.75;-0.253906;0.02832;0.967285;-0.84;-0.91;0.7;316.0;-0.162882;-0.023764
1.85;8.0;7.5;5.25;4.25;0.75;0.25;0.25;0.25;2.75;0.5;1.0;0.5;0.25;0.75;0.5;0.25;-0.220703;0.013184;0.992188;-0.7;0.63;0.63;380.0;-0.209352;-0.005258;5.75;4.75;3.5;3.25;1.0;1.25;0.5;0.5;2.25;1.0;1.25;0.75;0.5;0.5;0.5;0.75;-0.253418;0.023926;0.974121;-0.84;-0.91;0.7;324.0;-0.152024;-0.025553
1.86;8.0;7.5;5.0;4.25;0.75;0.25;0.25;0.25;2.5;0.25;0.5;0.5;0.25;1.25;0.5;0.25;-0.221191;0.008789;0.984375;-0.56;0.63;0.56;370.0;-0.215779;-0.005264;5.75;5.25;3.5;3.0;0.5;1.0;0.5;0.5;2.25;1.0;1.25;0.75;0.75;0.75;0.5;1.0;-0.257812;0.024902;0.973145;-0.77;-0.98;0.77;323.0;-0.146644;-0.02827
1.87;8.0;7.5;5.0;4.25;0.75;0.25;0.25;0.25;2.75;0.25;0.5;0.5;0.25;1.25;0.5;0.5;-0.222656;0.012207;0.992676;-0.49;0.56;0.7;375.0;-0.208993;-0.003814;5.25;5.0;3.5;3.0;0.75;1.0;0.5;0.5;2.25;1.0;1.0;0.5;0.5;0.5;0.75;0.5;-0.25293;0.025879;0.974121;-0.7;-0.98;0.7;308.0;-0.152654;-0.02146
1.88;8.25;7.5;5.25;4.25;0.5;0.5;0.25;0.25;2.75;0.5;0.75;0.5;0.25;0.5;0.25;0.5;-0.221191;0.009766;0.991699;-0.63;0.7;0.56;376.0;-0.220629;-0.007962;5.75;4.75;3.75;3.25;0.75;1.0;0.5;0.5;2.25;0.75;1.25;0.5;0.5;0.5;1.0;0.5;-0.253418;0.028809;0.977051;-0.84;-0.91;0.7;320.0;-0.152434;-0.021011
1.89;8.0;7.5;5.0;4.0;0.5;0.5;0.25;0.25;2.75;0.5;1.0;0.5;0.25;0.25;0.25;0.5;-0.221191;0.012695;0.991699;-0.49;0.63;0.56;368.0;-0.218832;-0.009909;5.75;5.0;3.5;3.5;1.0;1.25;0.5;0.5;2.75;0.75;1.25;0.5;0.25;0.75;1.0;0.5;-0.254395;0.026367;0.978027;-0.77;-0.91;0.7;335.0;-0.14398;-0.015654
1.9;8.25;7.5;5.0;4.25;0.75;0.5;0.25;0.25;2.75;0.75;0.75;0.5;0.25;0.5;0.25;0.5;-0.223145;0.015625;0.988281;-0.63;0.7;0.56;379.0;-0.216057;-0.007657;5.25;5.25;3.5;3.25;1.0;1.0;0.5;0.5;2.25;0.75;1.25;0.5;0.5;0.75;1.0;0.75;-0.251465;0.025879;0.974609;-0.7;-0.84;0.7;323.0;-0.144425;-0.025744
1.91;8.0;7.5;5.0;4.25;0.75;0.5;0.25;0.25;2.75;0.75;0.5;0.5;0.25;0.75;0.25;0.5;-0.21875;0.014648;0.992676;-0.56;0.63;0.56;376.0;-0.214128;-0.006565;5.0;5.0;3.5;3.0;0.75;0.75;0.5;0.5;2.25;0.75;1.25;0.75;0.5;0.5;0.5;0.5;-0.253418;0.03125;0.968262;-0.84;-0.91;0.77;302.0;-0.152295;-0.023945
1.92;8.25;7.5;5.0;4.25;0.75;0.5;0.25;0.25;3.0;0.75;0.75;0.5;0.0;0.75;0.25;0.5;-0.217773;0.019531;0.991211;-0.56;0.63;0.63;383.0;-0.210201;-0.001104;5.25;4.75;3.75;3.0;0.75;1.0;0.5;0.5;2.25;0.75;1.0;0.75;0.5;0.5;0.5;0.75;-0.252441;0.02832;0.97168;-0.84;-0.91;0.77;307.0;-0.154614;-0.023382
1.93;8.25;7.25;5.25;4.75;0.75;0.5;0.25;0.25;3.0;0.75;1.0;0.5;0.0;0.75;0.25;0.5;-0.218262;0.007324;0.982422;-0.56;0.63;0.56;392.0;-0.207306;-0.0036;5.25;4.75;3.75;3.25;1.0;1.0;0.5;0.25;2.5;1.0;1.0;0.75;0.5;0.75;0.75;0.75;-0.255371;0.024902;0.977539;-0.7;-0.77;0.84;320.0;-0.140192;-0.014654
1.94;8.0;7.25;5.25;4.25;0.75;0.5;0.25;0.25;3.0;0.75;1.0;0.25;0.25;1.25;0.25;0.5;-0.21875;0.010742;0.982422;-0.7;0.77;0.56;387.0;-0.198008;0.000567;5.25;4.75;3.5;3.0;0.75;1.0;0.5;0.5;2.5;1.0;1.0;0.75;0.5;0.5;0.75;0.75;-0.255859;0.023438;0.968262;-0.77;-0.91;0.7;313.0;-0.140102;-0.020824
1.95;8.25;7.5;5.25;4.25;0.5;0.5;0.25;0.25;2.75;0.75;1.0;0.25;0.25;1.25;0.5;0.5;-0.222168;0.012695;0.986328;-0.63;0.56;0.56;389.0;-0.201194;-0.00332;5.25;4.75;3.5;3.0;0.75;1.0;0.5;0.5;2.25;1.0;1.0;0.75;0.5;0.75;0.75;0.75;-0.255859;0.022461;0.978516;-0.77;-0.91;0.7;312.0;-0.140534;-0.022731
1.96;8.25;7.5;5.25;4.25;0.75;0.5;0.25;0.25;2.5;0.75;1.0;0.5;0.25;1.25;0.25;0.5;-0.222656;0.014648;0.991211;-0.49;0.63;0.56;388.0;-0.206271;-0.006965;5.25;4.75;3.5;3.0;0.75;1.0;0.5;0.5;2.25;1.0;0.75;0.75;0.5;0.75;0.75;0.75;-0.253906;0.030273;0.976562;-0.77;-0.91;0.63;309.0;-0.143927;-0.021869
1.97;8.0;7.5;5.0;4.25;0.75;0.5;0.25;0.25;2.75;0.75;1.0;0.5;0.25;1.25;0.25;0.5;-0.224609;0.017578;0.987305;-0.56;0.7;0.56;386.0;-0.200074;-0.005969;5.25;4.75;3.5;3.0;1.0;1.25;0.5;0.5;2.5;1.0;0.75;0.75;0.5;0.5;0.75;0.75;-0.254883;0.02832;0.972168;-0.77;-0.77;0.7;316.0;-0.143386;-0.021555
1.98;7.75;7.75;5.0;4.25;0.75;0.25;0.25;0.25;2.75;0.5;1.0;0.5;0.25;1.0;0.25;0.5;-0.222168;0.01123;0.983887;-0.7;0.56;0.63;378.0;-0.207455;-0.007451;5.0;4.75;3.5;3.0;1.0;1.0;0.5;0.5;2.5;1.0;1.0;0.75;0.5;0.5;0.75;0.75;-0.251953;0.022461;0.972168;-0.77;-0.91;0.77;313.0;-0.137583;-0.021208
1.99;8.0;7.75;5.0;4.25;0.75;0.25;0.25;0.25;2.75;0.5;0.75;0.5;0.25;1.0;0.5;0.5;-0.217285;0.013184;0.991211;-0.7;0.7;0.42;381.0;-0.207535;-0.006333;4.75;4.5;3.5;3.0;1.0;1.0;0.5;0.25;2.5;1.0;1.0;0.75;0.5;0.75;1.0;0.5;-0.257324;0.023438;0.970703;-0.77;-0.91;0.84;307.0;-0.127706;-0.013855
2.0;8.0;7.5;5.25;4.25;0.75;0.25;0.25;0.25;2.5;0.75;0.75;0.5;0.25;1.25;0.25;0.5;-0.223633;0.015137;0.986816;-0.56;0.77;0.49;380.0;-0.208481;-0.004925;4.75;4.75;3.5;3.0;0.5;1.0;0.5;0.25;2.5;1.0;1.25;0.75;0.5;0.75;1.0;0.5;-0.250977;0.02832;0.972168;-0.7;-0.91;0.77;307.0;-0.12683;-0.017529
2.01;8.0;7.5;5.25;4.0;0.75;0.25;0.25;0.25;2.5;0.75;0.75;1.0;0.0;1.25;0.25;0.5;-0.221191;0.014648;0.989746;-0.56;0.56;0.49;380.0;-0.203871;-0.004774;5.0;4.5;3.5;3.0;0.75;1.0;0.5;0.25;2.25;1.0;1.0;0.5;0.5;0.75;0.5;0.75;-0.25293;0.029785;0.975586;-0.84;-0.84;0.77;297.0;-0.146174;-0.014357
2.02;8.0;7.5;5.25;4.25;0.75;0.5;0.25;0.25;2.75;0.5;0.75;0.5;0.25;1.25;0.25;0.25;-0.222168;0.021484;0.989746;-0.63;0.56;0.49;382.0;-0.209237;-0.003713;4.75;4.5;3.5;3.0;1.0;0.75;0.5;0.25;2.75;1.25;1.25;0.5;0.5;0.75;0.5;0.75;-0.251465;0.027344;0.973633;-0.84;-0.98;0.77;307.0;-0.127089;-0.005731
2.03;7.75;7.5;5.0;4.5;0.75;0.5;0.25;0.25;2.75;0.75;1.0;0.25;0.0;1.25;0.25;0.5;-0.222656;0.012207;0.990723;-0.56;0.56;0.49;381.0;-0.20463;-0.003537;4.75;4.75;3.5;2.75;0.75;1.0;0.5;0.25;2.5;1.25;1.0;0.75;0.5;0.75;0.5;0.75;-0.257812;0.025391;0.980469;-0.84;-1.05;0.77;303.0;-0.132851;-0.013221
2.04;8.25;7.5;5.25;4.25;0.75;0.5;0.25;0.25;2.75;0.75;1.0;0.25;0.0;1.25;0.25;0.5;-0.219727;0.009766;0.987793;-0.56;0.7;0.49;387.0;-0.207373;0.000556;4.75;4.75;3.5;2.75;0.75;1.0;0.5;0.25;2.25;1.25;1.0;0.75;0.5;0.5;0.5;1.0;-0.253418;0.03125;0.970703;-0.77;-0.91;0.77;298.0;-0.139318;-0.019651
2.05;8.25;7.5;5.0;4.25;0.75;0.5;0.25;0.25;2.75;0.5;1.0;0.25;0.25;1.0;0.25;0.5;-0.220215;0.01709;0.98584;-0.49;0.56;0.63;381.0;-0.211698;-0.004564;4.75;4.75;3.5;3.0;0.75;1.0;0.5;0.25;2.25;1.0;1.25;0.5;0.5;0.5;0.75;1.0;-0.251465;0.02832;0.97168;-0.7;-1.05;0.77;301.0;-0.139032;-0.021349
2.06;8.25;7.5;5.0;4.5;0.5;0.5;0.25;0.0;2.75;0.5;1.0;0.25;0.25;0.75;0.25;0.5;-0.224609;0.014648;0.990234;-0.56;0.56;0.63;374.0;-0.219086;-0.00368;4.75;4.75;3.5;3.0;0.75;1.0;0.5;0.25;2.5;1.5;1.25;0.5;0.25;0.5;0.5;1.0;-0.25;0.026367;0.973145;-0.7;-0.91;0.7;305.0;-0.134844;-0.012327
2.07;8.25;7.5;5.25;4.5;0.75;0.5;0.25;0.25;2.25;0.5;0.5;0.5;0.25;1.0;0.25;0.5;-0.21875;0.013672;0.980469;-0.56;0.49;0.56;377.0;-0.225043;-0.011386;4.75;5.0;3.5;3.0;1.0;1.0;0.5;0.25;2.5;1.5;0.75;0.5;0.25;0.75;0.5;1.0;-0.256348;0.026367;0.970215;-0.77;-0.91;0.77;307.0;-0.139642;-0.009505
2.08;8.0;7.5;5.25;4.75;0.75;0.5;0.25;0.25;2.5;0.5;1.0;0.5;0.0;1.25;0.0;0.5;-0.21875;0.015137;0.98584;-0.63;0.63;0.56;384.0;-0.216293;-0.008399;5.5;4.5;3.5;3.0;1.0;1.0;0.5;0.25;2.25;1.0;0.75;0.5;0.75;0.75;0.5;1.0;-0.254395;0.027832;0.972656;-0.7;-0.98;0.7;306.0;-0.149319;-0.015277
2.09;8.25;7.5;5.25;4.5;0.5;0.5;0.25;0.25;2.75;0.75;1.0;0.5;0.0;1.25;0.25;0.5;-0.22168;0.010742;0.990723;-0.63;0.56;0.63;390.0;-0.205544;-0.003839;5.0;4.5;3.5;3.0;0.75;1.0;0.5;0.25;2.5;1.0;1.25;0.75;0.5;0.75;0.5;1.0;-0.249512;0.027832;0.972656;-0.84;-0.91;0.7;307.0;-0.132259;-0.016025
2.1;8.25;7.5;5.25;4.25;0.75;0.5;0.25;0.25;3.25;1.0;1.0;0.5;0.25;0.75;0.5;0.5;-0.216309;0.018066;0.993164;-0.49;0.7;0.63;400.0;-0.193478;-0.001602;4.75;4.5;3.5;2.75;1.0;1.25;0.5;0.25;2.75;1.25;1.25;0.75;0.5;0.75;0.5;0.75;-0.254883;0.025879;0.975098;-0.77;-0.77;0.77;312.0;-0.122932;-0.011392
2.11;8.25;7.75;5.25;4.5;0.75;0.5;0.25;0.25;2.75;1.0;1.25;0.5;0.25;0.75;0.25;0.5;-0.22168;0.011719;0.984375;-0.56;0.77;0.56;399.0;-0.204983;-0.009514;4.75;4.5;3.5;2.75;0.75;1.0;0.5;0.25;2.5;1.0;1.25;0.75;0.5;0.75;0.5;1.0;-0.256348;0.025879;0.977051;-0.84;-0.91;0.77;301.0;-0.128172;-0.01512
2.12;8.0;7.5;5.25;4.5;0.75;0.5;0.25;0.25;2.75;1.0;1.5;0.5;0.25;1.25;0.25;0.5;-0.223633;0.01416;0.992676;-0.49;0.49;0.63;401.0;-0.192022;-0.007955;4.75;4.75;3.5;3.0;0.75;1.0;0.5;0.25;2.25;1.0;1.0;0.75;0.5;0.75;0.75;0.75;-0.251953;0.032715;0.971191;-0.84;-0.77;0.77;302.0;-0.137379;-0.020109
2.13;8.25;7.25;5.0;4.25;0.75;0.25;0.25;0.25;2.25;0.25;1.0;0.5;0.25;0.75;0.25;0.5;-0.217773;0.009277;0.989258;-0.63;0.63;0.7;366.0;-0.224077;-0.010702;4.75;4.75;3.5;3.0;0.75;1.0;0.5;0.25;2.25;0.75;1.25;0.75;0.5;0.75;0.5;0.75;-0.258789;0.026367;0.97168;-0.84;-0.84;0.77;299.0;-0.142719;-0.021228
2.14;7.75;7.5;5.25;4.25;0.75;0.25;0.25;0.25;2.75;0.25;1.0;0.5;0.25;0.75;0.25;0.5;-0.222168;0.015625;0.98877;-0.56;0.63;0.63;373.0;-0.213786;-0.007284;4.5;4.75;3.5;3.0;0.5;1.0;0.5;0.5;2.25;1.0;1.25;0.75;0.5;1.0;0.5;0.75;-0.259277;0.024902;0.971191;-0.84;-1.05;0.84;303.0;-0.130803;-0.026036
2.15;7.75;7.75;5.25;4.5;0.75;0.5;0.25;0.25;2.75;0.5;1.0;0.75;0.25;1.0;0.25;0.5;-0.222168;0.014648;0.990723;-0.63;0.63;0.56;390.0;-0.205024;-0.012527;4.5;4.75;3.5;3.0;0.75;1.0;0.5;0.5;2.5;1.25;1.25;0.75;0.25;0.75;0.75;1.0;-0.255859;0.024902;0.978516;-0.84;-0.98;0.77;312.0;-0.121952;-0.021038
2.16;8.0;7.75;5.25;4.5;0.75;0.5;0.25;0.25;2.5;0.5;1.25;0.75;0.25;0.75;0.25;0.5;-0.222168;0.009766;0.985352;-0.7;0.63;0.56;389.0;-0.211219;-0.016172;5.25;5.0;3.5;3.0;0.75;1.25;0.5;0.5;2.25;1.0;1.25;0.75;0.25;0.75;1.0;1.0;-0.255371;0.025391;0.975586;-0.84;-0.98;0.77;322.0;-0.134633;-0.025649
2.17;8.0;7.5;5.25;4.5;0.75;0.5;0.25;0.25;2.75;0.5;1.0;0.5;0.25;0.75;0.0;0.5;-0.219238;0.012207;0.992188;-0.56;0.7;0.56;382.0;-0.216574;-0.009109;5.0;4.75;3.5;3.0;0.75;1.25;0.5;0.5;2.25;1.0;1.0;0.75;0.5;0.75;1.0;0.75;-0.248535;0.030273;0.975098;-0.84;-0.77;0.7;315.0;-0.133291;-0.026819
2.18;8.25;7.75;5.25;4.5;0.75;0.5;0.25;0.25;2.5;0.5;1.25;0.5;0.25;0.75;0.25;0.5;-0.21875;0.012207;0.985352;-0.63;0.56;0.63;389.0;-0.215724;-0.013194;4.75;4.5;3.5;3.0;1.0;1.25;0.5;0.5;2.25;1.25;1.0;0.75;0.5;0.75;1.0;0.75;-0.254395;0.03125;0.976074;-0.84;-0.91;0.84;315.0;-0.125158;-0.025266
2.19;8.25;7.5;5.25;4.5;0.75;0.5;0.25;0.25;3.0;1.25;1.25;0.75;0.25;0.75;0.25;0.5;-0.22168;0.011719;0.985352;-0.63;0.77;0.56;405.0;-0.193532;-0.007557;5.0;4.5;3.5;3.0;1.0;1.0;0.5;0.5;2.5;1.25;1.25;0.75;0.5;0.75;0.75;0.75;-0.253906;0.025879;0.967773;-0.98;-0.98;0.77;319.0;-0.124734;-0.018704
2.2;8.0;7.5;5.25;4.75;0.75;0.5;0.25;0.25;3.0;1.0;1.25;0.75;0.25;1.0;0.25;0.5;-0.22168;0.019043;0.990723;-0.63;0.49;0.49;405.0;-0.192334;-0.009419;4.75;4.5;3.5;2.75;1.0;1.0;0.5;0.5;2.25;1.0;1.25;0.75;0.5;0.5;0.75;1.0;-0.252441;0.030273;0.973145;-0.84;-0.98;0.77;306.0;-0.130147;-0.024981
2.21;8.0;7.5;5.25;4.5;1.0;0.5;0.25;0.25;2.75;0.5;1.0;0.75;0.25;1.25;0.25;0.5;-0.215332;0.010742;0.995605;-0.56;0.56;0.49;395.0;-0.200861;-0.009;4.75;4.75;3.5;3.0;1.0;1.0;0.5;0.25;2.25;1.0;1.0;0.75;0.5;0.75;1.0;0.75;-0.257812;0.025879;0.975098;-0.84;-0.98;0.77;308.0;-0.132185;-0.019892
2.22;8.0;7.5;5.25;4.5;0.75;0.5;0.25;0.25;2.75;0.75;1.25;0.5;0.25;0.75;0.25;0.5;-0.22168;0.01709;0.990234;-0.63;0.56;0.56;390.0;-0.205422;-0.009896;4.75;4.75;3.5;3.0;1.0;0.75;0.5;0.25;2.5;1.0;1.0;0.75;0.5;0.75;1.0;0.75;-0.254395;0.025879;0.975586;-0.77;-0.98;0.84;308.0;-0.127487;-0.014041
2.23;8.25;7.5;5.25;4.5;0.75;0.5;0.25;0.25;2.75;1.0;1.0;0.5;0.25;0.75;0.25;0.5;-0.222168;0.008301;0.985352;-0.56;0.7;0.56;393.0;-0.206761;-0.007737;5.0;4.75;3.25;2.75;1.0;1.0;0.5;0.5;2.5;1.25;1.0;0.75;0.5;0.75;1.0;1.0;-0.254395;0.023926;0.980469;-0.84;-1.05;0.77;317.0;-0.120239;-0.020041
2.24;7.75;7.75;5.25;4.25;0.75;0.5;0.25;0.25;2.75;1.0;1.0;0.5;0.25;0.75;0.25;0.5;-0.224121;0.010254;0.985352;-0.63;0.63;0.56;387.0;-0.204628;-0.008791;4.75;4.75;3.25;3.0;0.75;1.0;0.5;0.5;2.5;1.25;1.0;0.75;0.5;0.75;0.5;1.0;-0.254395;0.023926;0.977539;-0.84;-0.98;0.77;308.0;-0.129043;-0.022855
2.25;8.0;7.5;5.25;4.25;0.75;0.5;0.25;0.25;3.0;1.0;1.0;0.5;0.25;1.0;0.25;0.5;-0.226074;0.013672;0.989258;-0.63;0.63;0.56;393.0;-0.196864;-0.003261;4.75;4.75;3.5;3.0;0.75;1.0;0.5;0.25;2.25;1.0;1.25;1.0;0.5;0.75;0.5;1.0;-0.253418;0.025391;0.973145;-0.77;-0.98;0.77;306.0;-0.133426;-0.024435
2.26;8.25;7.5;5.25;4.5;0.75;0.5;0.25;0.25;2.75;0.75;1.0;0.5;0.25;1.25;0.25;0.25;-0.222168;0.019043;0.990723;-0.56;0.56;0.56;394.0;-0.204818;-0.004915;4.75;4.75;3.5;3.25;0.75;1.0;0.5;0.5;2.25;1.0;1.0;0.75;0.5;0.75;0.75;1.0;-0.257812;0.023926;0.972656;-0.84;-0.98;0.77;311.0;-0.134779;-0.028467
2.27;8.0;7.75;5.25;4.5;0.75;0.5;0.25;0.25;2.75;0.75;1.25;0.5;0.25;1.25;0.25;0.25;-0.217773;0.010254;0.985352;-0.49;0.7;0.56;396.0;-0.201638;-0.007555;5.25;4.75;3.5;3.5;1.0;1.0;0.5;0.5;2.5;1.0;1.25;0.75;0.5;0.75;1.0;0.75;-0.255859;0.023926;0.970215;-0.77;-0.91;0.7;330.0;-0.130829;-0.023744
2.28;8.0;7.75;5.25;4.75;1.0;0.5;0.25;0.25;3.0;1.25;1.25;0.5;0.25;1.0;0.25;0.25;-0.21875;0.014648;0.98584;-0.56;0.56;0.56;409.0;-0.195045;-0.006236;5.25;4.75;3.5;3.0;1.0;1.0;0.5;0.5;2.5;1.0;1.25;0.75;0.5;0.75;0.75;0.5;-0.256836;0.02832;0.970215;-0.77;-0.98;0.77;320.0;-0.134993;-0.018105
2.29;8.25;7.75;5.25;4.5;0.75;0.5;0.25;0.25;3.0;0.5;1.25;0.5;0.25;0.75;0.25;0.5;-0.223145;0.015137;0.988281;-0.49;0.56;0.63;396.0;-0.207208;-0.008007;5.25;4.75;3.5;3.0;1.0;1.0;0.5;0.25;2.5;1.25;1.25;0.75;0.25;0.5;0.75;0.5;-0.254395;0.022461;0.972656;-0.77;-0.91;0.7;314.0;-0.139557;-0.010523
2.3;8.25;7.75;5.25;4.5;0.75;0.5;0.25;0.25;2.75;0.25;1.0;0.5;0.25;0.75;0.25;0.5;-0.220703;0.015625;0.990723;-0.56;0.63;0.56;387.0;-0.217974;-0.010345;5.0;4.75;3.5;3.0;0.75;1.0;0.5;0.25;2.5;1.0;1.25;0.75;0.5;0.75;0.5;0.75;-0.253418;0.027832;0.972656;-0.91;-0.98;0.77;308.0;-0.136949;-0.015822
2.31;8.0;7.75;5.25;4.75;0.75;0.5;0.25;0.25;3.0;0.25;1.0;0.5;0.25;1.0;0.5;0.5;-0.219727;0.016113;0.986816;-0.7;0.63;0.56;396.0;-0.204673;-0.009668;4.75;4.75;3.5;3.0;0.75;1.25;0.5;0.5;2.5;1.0;1.25;0.75;0.5;0.75;0.75;0.75;-0.255371;0.023438;0.976562;-0.77;-0.98;0.7;316.0;-0.128113;-0.024927
2.32;8.0;7.75;5.25;4.75;0.5;0.5;0.25;0.25;2.75;0.5;1.25;0.5;0.25;1.25;0.5;0.5;-0.221191;0.013184;0.986816;-0.56;0.7;0.63;398.0;-0.199536;-0.011903;4.75;4.75;3.5;3.25;1.0;1.25;0.5;0.25;2.5;1.0;1.25;0.75;0.75;0.75;0.5;0.75;-0.255371;0.023926;0.972656;-0.84;-0.98;0.77;317.0;-0.133751;-0.023909
2.33;8.25;7.5;5.25;4.5;0.75;0.75;0.25;0.25;3.0;0.5;1.0;0.5;0.25;1.25;0.25;0.5;-0.217773;0.014648;0.990723;-0.63;0.56;0.56;399.0;-0.201363;-0.006047;5.0;4.75;3.75;3.0;1.0;1.25;0.5;0.25;2.5;1.0;1.0;0.5;0.5;0.75;0.75;0.75;-0.251465;0.02832;0.975586;-0.7;-1.05;0.7;314.0;-0.139731;-0.013627
2.34;8.25;7.5;5.25;4.25;0.75;0.75;0.25;0.25;3.0;0.5;1.0;0.5;0.25;1.25;0.25;0.5;-0.220703;0.013184;0.981934;-0.63;0.63;0.63;396.0;-0.20071;-0.004389;5.25;4.75;3.5;3.0;0.5;1.25;0.5;0.25;2.5;1.0;1.25;0.5;0.5;0.75;0.75;0.75;-0.24707;0.027832;0.96875;-0.77;-0.98;0.7;311.0;-0.137812;-0.015908
2.35;8.0;7.5;5.25;4.25;0.75;0.75;0.25;0.25;2.5;0.5;1.0;0.5;0.25;1.25;0.25;0.5;-0.216797;0.009277;0.98291;-0.63;0.7;0.56;386.0;-0.2077;-0.010388;5.25;4.5;3.5;3.0;0.5;1.0;0.5;0.25;2.5;0.75;1.0;1.0;0.5;0.75;0.75;0.75;-0.251953;0.021484;0.970703;-0.84;-0.98;0.84;306.0;-0.135762;-0.017253
2.36;8.0;7.75;5.0;4.75;0.75;0.5;0.25;0.25;2.5;0.75;1.25;0.5;0.5;1.25;0.25;0.5;-0.219727;0.013672;0.988281;-0.7;0.7;0.56;396.0;-0.201625;-0.01633;5.25;5.0;3.5;3.0;0.75;1.0;0.5;0.25;2.5;0.75;1.25;0.75;0.5;0.75;1.0;0.75;-0.259277;0.030762;0.971191;-0.77;-0.98;0.77;317.0;-0.135081;-0.017821
2.37;8.0;7.75;5.25;4.75;0.75;0.5;0.25;0.25;2.75;0.5;1.0;0.75;0.25;1.25;0.5;0.5;-0.21875;0.015625;0.990234;-0.49;0.56;0.56;401.0;-0.19908;-0.012654;5.0;4.75;3.5;3.25;1.0;1.0;0.5;0.25;2.5;1.0;1.25;0.5;0.5;0.75;1.0;1.0;-0.250977;0.030762;0.976074;-0.84;-0.91;0.77;319.0;-0.129271;-0.017107
2.38;8.0;7.75;5.25;4.75;0.75;0.5;0.25;0.25;2.75;0.5;1.0;0.5;0.5;1.25;0.25;0.25;-0.223633;0.013672;0.988281;-0.63;0.63;0.56;396.0;-0.206347;-0.011633;4.75;4.5;3.5;3.0;0.5;0.75;0.5;0.25;2.5;1.0;0.75;0.75;0.5;0.75;0.75;0.5;-0.258789;0.027832;0.971191;-0.84;-1.05;0.77;293.0;-0.136206;-0.011099
2.39;8.25;7.75;5.25;4.75;0.75;0.5;0.25;0.25;2.75;0.5;1.0;0.5;0.25;1.25;0.25;0.25;-0.220703;0.005859;0.984375;-0.56;0.63;0.56;396.0;-0.209986;-0.008099;4.75;4.5;3.5;2.75;0.5;0.75;0.5;0.25;2.25;1.0;0.75;0.5;0.5;0.5;0.75;0.5;-0.256836;0.028809;0.973633;-0.77;-1.05;0.77;281.0;-0.147661;-0.01109
2.4;7.75;7.75;5.25;4.75;0.75;0.5;0.25;0.25;3.0;0.25;1.0;0.5;0.25;1.25;0.25;0.5;-0.223145;0.018555;0.990723;-0.49;0.49;0.63;393.0;-0.204063;-0.008886;5.25;4.5;3.5;3.0;0.75;1.0;0.5;0.25;2.25;1.0;1.25;0.5;0.5;0.5;0.75;0.5;-0.251953;0.026367;0.973633;-0.84;-0.91;0.7;301.0;-0.146582;-0.014818
2.41;8.25;7.75;5.25;4.75;0.75;0.5;0.25;0.25;2.75;0.25;0.75;0.5;0.25;1.5;0.25;0.5;-0.223633;0.006836;0.988281;-0.49;0.77;0.56;394.0;-0.210586;-0.00789;5.0;4.75;3.5;3.0;0.5;1.0;0.5;0.25;2.25;1.0;1.25;0.5;0.5;0.25;0.75;0.5;-0.258301;0.02832;0.976074;-0.98;-0.84;0.77;296.0;-0.151036;-0.019576
2.42;8.25;7.75;5.25;4.5;0.75;0.5;0.25;0.25;2.5;0.5;1.25;0.5;0.25;1.25;0.25;0.5;-0.225586;0.01416;0.987305;-0.49;0.56;0.56;394.0;-0.20832;-0.010944;5.0;4.75;3.5;3.0;0.5;1.0;0.5;0.25;2.25;1.0;1.25;0.5;0.5;0.5;1.0;0.75;-0.254883;0.022461;0.972168;-0.91;-0.84;0.77;302.0;-0.138904;-0.020096
2.43;8.25;7.75;5.25;4.75;0.75;0.5;0.25;0.0;2.75;0.25;1.25;0.5;0.25;1.25;0.25;0.5;-0.220703;0.012695;0.983398;-0.49;0.63;0.7;394.0;-0.210015;-0.006493;5.0;4.75;3.5;2.75;0.5;1.0;0.5;0.25;2.25;1.0;1.25;0.5;0.5;0.75;0.75;0.75;-0.258789;0.03125;0.976074;-0.84;-0.91;0.77;299.0;-0.138371;-0.015908
2.44;8.25;7.75;5.25;5.0;0.75;0.5;0.25;0.0;2.25;0.25;1.0;0.5;0.25;1.25;0.25;0.25;-0.21875;0.009766;0.987793;-0.56;0.49;0.63;385.0;-0.224716;-0.011416;5.25;4.75;3.5;3.0;0.5;1.0;0.5;0.5;2.25;1.0;1.25;0.5;0.5;0.75;0.75;0.5;-0.254395;0.025391;0.974609;-0.98;-0.91;0.77;307.0;-0.142961;-0.020456
2.45;8.5;7.75;5.25;4.75;0.75;0.5;0.25;0.25;2.25;0.5;1.0;0.5;0.25;1.25;0.25;0.25;-0.218262;0.012207;0.982422;-0.28;0.49;0.7;392.0;-0.219894;-0.012409;5.5;4.75;3.5;3.0;0.75;1.0;0.5;0.5;2.25;0.75;1.0;0.25;0.5;0.75;0.75;0.5;-0.25293;0.02832;0.975098;-1.05;-0.98;0.77;304.0;-0.155576;-0.015733
2.46;8.25;7.75;5.25;4.5;0.75;0.5;0.25;0.25;2.25;0.75;1.25;0.5;0.25;1.25;0.0;0.25;-0.224609;0.013672;0.981934;-0.49;0.49;0.56;389.0;-0.21602;-0.011343;5.25;4.75;3.5;3.0;0.5;1.0;0.5;0.5;2.25;0.75;1.0;0.5;0.5;0.75;0.5;0.5;-0.253418;0.023438;0.977539;-0.98;-0.91;0.7;299.0;-0.155426;-0.019753
2.47;8.25;7.75;5.25;4.5;0.75;0.5;0.25;0.25;2.75;0.5;1.25;0.5;0.25;1.25;0.25;0.25;-0.218262;0.015137;0.983887;-0.56;0.63;0.56;396.0;-0.206251;-0.007236;5.0;4.75;3.5;3.0;0.5;1.0;0.5;0.25;2.25;0.75;1.0;0.5;0.5;0.75;0.5;0.5;-0.259277;0.020508;0.972168;-1.05;-0.91;0.77;292.0;-0.155065;-0.01569
2.48;8.25;8.0;5.5;4.75;0.75;0.5;0.25;0.25;3.0;0.5;1.25;0.5;0.25;1.0;0.25;0.25;-0.219238;0.014648;0.986328;-0.49;0.56;0.63;406.0;-0.208066;-0.007682;5.25;5.0;3.5;2.75;0.75;1.0;0.5;0.25;2.25;1.0;1.0;0.5;0.5;0.5;0.5;0.5;-0.254395;0.024902;0.976562;-1.05;-0.98;0.77;298.0;-0.158655;-0.013644
2.49;8.25;8.0;5.5;4.75;0.75;0.5;0.25;0.25;2.75;0.5;1.0;0.5;0.25;0.75;0.0;0.25;-0.216797;0.008789;0.97998;-0.63;0.56;0.56;394.0;-0.223558;-0.010005;5.25;5.0;3.5;3.25;0.75;0.75;0.5;0.25;2.0;1.0;1.0;0.5;0.5;0.75;0.5;0.5;-0.249023;0.022949;0.973145;-1.26;-0.91;0.77;299.0;-0.16183;-0.017256
2.5;8.25;8.0;5.5;4.75;0.75;0.5;0.25;0.25;2.75;0.5;1.0;0.5;0.25;0.75;0.25;0.5;-0.219727;0.010742;0.990234;-0.56;0.56;0.63;399.0;-0.216849;-0.011652;5.25;5.25;3.5;3.0;0.75;1.0;0.5;0.25;2.0;0.75;1.0;0.75;0.5;0.75;0.25;0.75;-0.248535;0.026855;0.968262;-1.12;-1.05;0.77;301.0;-0.165727;-0.023245
2.51;8.25;7.75;5.25;5.0;0.75;0.5;0.25;0.25;3.0;0.5;0.75;0.5;0.25;0.75;0.25;0.25;-0.219727;0.019043;0.98877;-0.49;0.56;0.7;395.0;-0.216821;-0.00859;5.5;5.0;3.5;3.0;0.75;1.25;0.5;0.25;2.25;0.75;1.0;0.5;0.5;0.75;0.25;0.5;-0.254395;0.022461;0.973145;-1.05;-0.98;0.77;303.0;-0.166876;-0.015749
2.52;8.25;7.75;5.25;4.75;0.5;0.5;0.25;0.25;2.75;0.5;1.0;0.5;0.0;1.25;0.0;0.5;-0.21875;0.012207;0.986816;-0.63;0.7;0.56;389.0;-0.215308;-0.006509;5.75;4.75;3.75;3.0;0.75;1.0;0.5;0.25;2.0;0.75;0.75;0.25;0.5;0.75;0.25;0.75;-0.255859;0.025879;0.974609;-1.05;-0.98;0.7;296.0;-0.178119;-0.010904
2.53;8.25;7.75;5.25;5.0;0.75;0.5;0.25;0.25;2.75;0.75;1.25;0.5;0.25;1.0;0.25;0.5;-0.221191;0.017578;0.983398;-0.56;0.56;0.56;404.0;-0.205794;-0.012151;5.5;4.75;3.75;3.0;0.75;1.25;0.5;0.25;2.25;0.75;1.0;0.5;0.5;0.5;0.5;0.5;-0.257812;0.027344;0.970703;-0.91;-0.98;0.7;304.0;-0.164804;-0.015552
2.54;8.25;7.75;5.5;5.0;0.75;0.5;0.25;0.25;2.75;0.75;1.0;0.5;0.25;0.75;0.5;0.5;-0.216797;0.013184;0.984863;-0.7;0.56;0.49;405.0;-0.208496;-0.012239;5.25;4.75;3.5;3.0;0.75;1.0;0.5;0.25;2.25;0.75;1.25;0.5;0.5;0.5;0.25;0.5;-0.248535;0.020996;0.973145;-0.91;-0.84;0.7;295.0;-0.163378;-0.01556
2.55;8.25;7.5;5.75;4.75;0.75;0.5;0.25;0.25;2.0;1.0;1.0;0.75;0.25;0.75;0.25;0.5;-0.220215;0.012207;0.986328;-0.63;0.63;0.63;394.0;-0.217843;-0.017664;4.75;4.75;3.75;2.75;0.75;1.0;0.5;0.25;2.25;0.75;1.25;0.5;0.5;0.75;0.25;0.5;-0.250977;0.028809;0.975098;-0.98;-0.98;0.7;292.0;-0.153939;-0.01319
2.56;8.25;7.75;5.75;4.75;0.75;0.5;0.25;0.25;2.5;1.0;1.0;0.75;0.25;0.75;0.25;0.5;-0.22168;0.010254;0.98877;-0.63;0.63;0.56;404.0;-0.21069;-0.013422;5.5;4.5;3.75;3.0;0.5;0.75;0.5;0.25;2.75;1.0;1.0;0.25;0.5;0.75;0.5;0.5;-0.259277;0.020508;0.96875;-0.98;-0.91;0.63;302.0;-0.14868;0.001783
2.57;8.75;7.75;5.5;4.75;0.75;0.75;0.25;0.25;2.75;1.0;1.0;0.75;0.25;0.75;0.25;0.5;-0.223633;0.012695;0.990234;-0.63;0.56;0.49;413.0;-0.20846;-0.011883;5.75;5.0;3.5;2.75;0.5;1.0;0.5;0.25;2.5;0.5;0.75;0.25;0.25;0.75;0.5;0.5;-0.256348;0.025879;0.972656;-0.98;-0.98;0.63;292.0;-0.171906;-0.001117
2.58;8.25;7.75;5.25;5.0;0.75;0.75;0.25;0.25;2.75;1.0;1.0;0.5;0.25;0.75;0.25;0.5;-0.21582;0.010742;0.98877;-0.63;0.7;0.49;405.0;-0.208864;-0.013889;5.5;4.75;3.75;3.0;0.75;1.0;0.5;0.25;2.25;0.5;0.75;0.5;0.25;0.75;0.75;0.75;-0.250488;0.024902;0.969238;-0.84;-0.84;0.63;300.0;-0.162584;-0.009903
2.59;8.25;8.5;5.25;4.75;0.75;0.5;0.25;0.25;2.75;1.0;1.0;0.5;0.25;0.5;0.25;0.75;-0.223633;0.012207;0.990723;-0.63;0.63;0.56;405.0;-0.21405;-0.01546;5.75;4.5;3.5;3.0;0.75;0.75;0.5;0.25;2.5;0.5;0.75;0.5;0.5;0.75;1.0;0.75;-0.257324;0.023926;0.973633;-0.91;-0.77;0.7;303.0;-0.148853;-0.006746
2.6;8.25;7.75;5.25;4.75;0.75;0.5;0.25;0.25;2.75;1.0;1.0;0.5;0.25;0.5;0.25;0.75;-0.220703;0.013184;0.986816;-0.63;0.63;0.56;398.0;-0.210201;-0.012597;5.75;4.5;3.5;2.75;0.75;0.75;0.5;0.25;2.5;0.75;1.25;0.25;0.5;0.75;1.0;0.5;-0.253906;0.021973;0.973145;-0.84;-0.91;0.7;304.0;-0.142662;-0.001751
2.61;8.25;7.5;5.25;4.75;0.75;0.5;0.25;0.25;2.25;1.0;1.25;0.5;0.25;1.0;0.25;0.5;-0.221191;0.009766;0.988281;-0.56;0.63;0.49;394.0;-0.208992;-0.014198;5.75;4.75;3.5;3.0;1.0;0.75;0.5;0.25;2.5;0.5;1.25;0.25;0.5;0.75;0.5;0.5;-0.254883;0.024414;0.971191;-0.84;-0.91;0.77;304.0;-0.160156;-0.00379
2.62;8.5;7.75;5.25;4.75;0.75;0.5;0.25;0.25;2.75;0.75;1.25;0.5;0.25;0.75;0.25;0.5;-0.222168;0.015625;0.985352;-0.56;0.7;0.56;402.0;-0.210149;-0.010808;5.0;4.75;3.5;2.75;1.0;1.0;0.5;0.25;2.5;0.5;0.75;0.5;0.5;0.75;0.5;0.5;-0.256348;0.027344;0.973145;-0.84;-0.98;0.77;293.0;-0.155633;-0.008215
2.63;8.25;8.0;5.5;4.75;0.75;0.5;0.25;0.25;2.75;0.5;1.25;0.5;0.25;0.75;0.25;0.5;-0.224121;0.014648;0.985352;-0.63;0.56;0.56;401.0;-0.213695;-0.012395;5.0;4.75;3.5;3.0;1.0;0.5;0.5;0.25;2.75;0.5;0.75;0.5;0.5;0.75;0.75;0.5;-0.258301;0.028809;0.967773;-0.84;-0.98;0.77;296.0;-0.146607;-0.002393
2.64;8.25;7.75;5.5;4.5;0.75;0.75;0.25;0.25;2.75;0.5;1.0;0.75;0.0;0.75;0.25;0.5;-0.220703;0.014648;0.987305;-0.77;0.7;0.49;397.0;-0.213759;-0.010412;5.25;4.5;3.5;2.75;0.75;0.75;0.5;0.25;2.75;0.75;1.0;0.25;0.5;1.0;0.75;0.5;-0.257324;0.021484;0.973633;-0.77;-0.91;0.7;298.0;-0.137439;0.002721
2.65;8.25;7.75;5.25;4.5;0.75;0.75;0.25;0.25;2.75;0.5;1.0;0.75;0.0;0.75;0.25;0.5;-0.214844;0.018555;0.990234;-0.63;0.56;0.56;394.0;-0.213359;-0.011185;5.0;4.5;3.5;2.75;0.75;1.0;0.5;0.25;2.75;0.75;1.0;0.5;0.5;0.75;0.5;0.5;-0.255859;0.020996;0.974121;-0.77;-0.98;0.77;296.0;-0.141267;-0.004514
2.66;8.25;7.75;5.25;4.75;0.75;0.5;0.25;0.25;2.75;0.75;1.0;0.5;0.25;0.75;0.25;0.5;-0.21875;0.016113;0.986328;-0.63;0.56;0.42;396.0;-0.211919;-0.010904;5.0;4.5;3.25;2.75;0.75;1.0;0.5;0.25;2.75;0.75;1.25;0.5;0.5;0.75;0.5;0.5;-0.255859;0.026855;0.975586;-0.91;-0.91;0.77;296.0;-0.136441;-0.006555
2.67;8.5;8.0;5.25;4.75;0.75;0.5;0.25;0.25;2.75;0.75;1.0;0.5;0.25;0.75;0.25;0.5;-0.217285;0.019531;0.98877;-0.7;0.56;0.56;401.0;-0.214555;-0.011034;5.25;4.75;3.5;2.5;1.0;0.75;0.5;0.25;2.75;0.75;1.0;0.5;0.5;0.75;0.75;0.5;-0.254883;0.02002;0.971191;-0.84;-1.05;0.91;302.0;-0.139087;-4.5e-05
2.68;8.25;7.75;5.25;4.5;0.75;0.5;0.25;0.25;2.75;1.0;1.0;0.5;0.25;1.25;0.25;0.75;-0.222656;0.01123;0.993164;-0.7;0.49;0.63;402.0;-0.198831;-0.007715;5.25;4.75;3.5;2.75;1.0;0.75;0.5;0.25;2.75;1.0;1.0;0.5;0.5;0.75;1.0;0.5;-0.256836;0.026855;0.976562;-0.77;-1.05;0.84;310.0;-0.131994;-0.00239
2.69;8.25;7.75;5.25;4.75;0.75;0.5;0.25;0.25;2.75;1.0;1.0;0.5;0.25;0.75;0.25;0.5;-0.217285;0.009277;0.984375;-0.77;0.7;0.56;399.0;-0.208695;-0.010371;4.75;4.75;3.5;3.0;1.0;1.0;0.5;0.25;2.5;1.0;1.25;0.5;0.5;0.5;0.5;0.5;-0.256836;0.026367;0.975586;-0.77;-0.98;0.77;302.0;-0.144302;-0.013577
2.7;8.5;8.0;5.25;4.75;0.75;0.5;0.25;0.25;3.0;0.75;1.0;0.5;0.25;0.75;0.25;0.5;-0.223633;0.009277;0.989258;-0.7;0.63;0.56;405.0;-0.210394;-0.008513;5.0;4.5;3.5;3.0;0.75;1.0;0.5;0.25;2.5;1.0;1.0;0.5;0.5;0.5;0.5;0.75;-0.254883;0.02832;0.973633;-0.77;-0.91;0.84;298.0;-0.145696;-0.012387
2.71;8.25;7.75;5.25;4.75;0.75;0.5;0.25;0.25;3.0;0.5;1.0;0.75;0.25;1.0;0.25;0.5;-0.223633;0.010254;0.989746;-0.63;0.84;0.56;402.0;-0.204325;-0.009848;5.0;4.5;3.5;2.75;0.75;1.0;0.5;0.25;2.5;1.0;1.0;0.5;0.5;0.75;0.5;0.75;-0.257324;0.026855;0.970703;-0.77;-1.05;0.77;297.0;-0.139901;-0.008758
2.72;8.25;7.75;5.25;4.75;0.75;0.5;0.25;0.25;2.75;0.75;1.0;0.5;0.0;1.25;0.25;0.5;-0.219727;0.010254;0.990234;-0.63;0.56;0.42;398.0;-0.206893;-0.00604;5.5;4.5;3.5;3.0;1.0;1.25;0.5;0.25;2.5;1.0;1.0;0.75;0.5;0.75;0.75;0.75;-0.253906;0.022461;0.973633;-0.77;-0.98;0.77;317.0;-0.137859;-0.013783
2.73;8.25;7.5;5.25;4.75;0.75;0.5;0.25;0.25;2.5;1.0;1.0;0.5;0.0;0.75;0.25;0.5;-0.21875;0.010742;0.990723;-0.63;0.7;0.49;390.0;-0.213895;-0.009252;5.25;4.75;3.5;3.0;0.75;1.0;0.5;0.25;2.5;0.75;0.75;0.5;0.5;1.0;0.75;0.5;-0.255371;0.021973;0.974609;-0.84;-1.19;0.77;303.0;-0.146167;-0.008552
2.74;8.25;7.75;5.25;4.75;0.75;0.5;0.25;0.25;2.75;0.75;1.0;0.5;0.25;0.75;0.25;0.5;-0.221191;0.01416;0.98877;-0.63;0.77;0.56;396.0;-0.211919;-0.010904;5.25;4.75;3.5;2.75;0.75;1.0;0.5;0.25;2.5;0.75;0.75;0.5;0.5;0.25;0.75;0.75;-0.251953;0.027344;0.974609;-0.84;-1.05;0.77;295.0;-0.155381;-0.012284
2.75;8.25;8.0;5.25;4.75;0.75;0.5;0.25;0.25;2.75;0.75;1.0;0.5;0.0;0.75;0.25;0.5;-0.216797;0.011719;0.985352;-0.56;0.56;0.49;396.0;-0.215489;-0.009212;5.0;4.75;3.5;2.75;0.75;0.75;0.5;0.25;2.25;1.0;0.75;0.25;0.5;0.25;0.75;0.75;-0.25293;0.024414;0.972168;-0.7;-0.91;0.7;286.0;-0.157849;-0.010739
2.76;8.0;7.75;5.25;4.75;0.75;0.5;0.25;0.25;2.25;1.0;1.0;0.5;0.0;1.0;0.25;0.25;-0.227051;0.016602;0.982422;-0.63;0.77;0.56;387.0;-0.216615;-0.01147;5.25;4.75;3.5;2.75;0.75;1.0;0.5;0.25;2.75;0.75;1.0;0.5;0.25;0.5;0.5;0.5;-0.250977;0.025391;0.973145;-0.84;-0.98;0.77;297.0;-0.152892;-0.002606
2.77;8.25;7.75;5.25;4.5;0.75;0.5;0.25;0.25;3.0;1.0;1.0;0.5;0.0;1.25;0.25;0.25;-0.222168;0.017578;0.983887;-0.56;0.7;0.56;400.0;-0.20107;-0.000258;4.75;4.5;3.5;2.75;0.75;0.75;0.5;0.25;2.5;0.75;1.0;0.5;0.5;0.75;0.25;0.5;-0.248047;0.025879;0.975098;-0.77;-0.91;0.7;284.0;-0.149088;-0.00556
2.78;8.25;8.5;5.25;4.5;0.75;0.5;0.25;0.25;3.0;1.0;1.25;0.5;0.25;1.25;0.25;0.5;-0.215332;0.012207;0.98584;-0.56;0.77;0.49;414.0;-0.197944;-0.007824;4.75;4.75;3.5;2.75;0.75;0.75;0.5;0.25;2.5;0.75;1.0;0.5;0.5;0.75;0.5;0.5;-0.247559;0.028809;0.975098;-0.77;-1.05;0.77;289.0;-0.145904;-0.007717
2.79;8.25;8.0;5.25;4.75;0.75;0.75;0.25;0.25;2.25;1.0;1.25;0.5;0.25;1.25;0.25;0.5;-0.220703;0.012207;0.98291;-0.56;0.77;0.63;405.0;-0.207595;-0.016892;5.0;4.75;3.5;2.75;0.75;0.75;0.5;0.25;2.5;1.0;1.0;0.5;0.5;1.0;0.75;0.5;-0.25;0.024902;0.972656;-0.77;-0.84;0.7;300.0;-0.135071;-0.005217
2.8;8.0;7.75;5.25;4.75;0.75;0.5;0.25;0.25;2.25;1.0;1.25;0.5;0.25;1.0;0.25;0.5;-0.217773;0.010742;0.983398;-0.56;0.77;0.63;394.0;-0.208925;-0.016054;5.0;4.75;3.5;2.75;0.75;1.0;0.5;0.0;2.75;1.0;0.75;0.5;0.5;0.75;0.75;1.0;-0.252441;0.020996;0.970703;-0.77;-0.98;0.7;301.0;-0.135068;-0.002585
2.81;8.25;7.5;5.75;4.75;0.5;0.5;0.25;0.25;2.75;1.0;1.25;0.5;0.25;1.25;0.0;0.5;-0.216797;0.018066;0.990234;-0.63;0.7;0.63;404.0;-0.20303;-0.006503;5.0;4.5;3.5;2.75;0.75;1.0;0.5;0.0;2.5;1.25;0.75;0.5;0.5;0.75;0.5;0.75;-0.259766;0.022949;0.975098;-0.77;-1.05;0.77;293.0;-0.141596;-0.001562
2.82;8.25;7.75;5.25;4.75;0.75;0.75;0.25;0.25;2.75;0.75;1.25;0.5;0.25;1.25;0.25;0.5;-0.223633;0.012207;0.990234;-0.56;0.7;0.56;406.0;-0.201266;-0.011406;5.25;4.5;3.5;2.75;0.75;1.0;0.5;0.25;2.25;1.0;0.75;0.5;0.5;1.0;0.5;0.5;-0.259766;0.024414;0.980957;-0.84;-0.98;0.77;294.0;-0.148962;-0.00702
2.83;8.25;8.0;5.0;4.5;0.75;0.75;0.25;0.25;2.75;0.75;1.25;0.5;0.25;1.0;0.25;0.5;-0.217773;0.01123;0.984863;-0.42;0.56;0.56;401.0;-0.205044;-0.012644;5.25;4.75;3.5;2.25;0.75;0.75;0.5;0.25;2.5;1.0;0.75;0.5;0.5;0.75;0.5;0.5;-0.251465;0.020996;0.974609;-0.77;-0.98;0.7;289.0;-0.147883;0.000844
2.84;8.25;7.75;5.25;4.75;0.75;0.75;0.25;0.25;2.75;1.0;1.25;0.5;0.25;1.0;0.25;0.5;-0.216309;0.012695;0.98291;-0.7;0.77;0.56;407.0;-0.201682;-0.011959;5.5;4.75;3.5;2.75;0.75;0.5;0.5;0.25;2.75;1.0;1.0;0.5;0.5;0.75;0.75;0.5;-0.25293;0.020508;0.969727;-0.77;-0.91;0.77;304.0;-0.139468;0.001412
2.85;8.25;7.75;5.25;4.75;0.5;0.5;0.25;0.25;2.75;1.0;1.0;0.5;0.25;1.25;0.25;0.5;-0.21582;0.014648;0.987305;-0.56;0.63;0.56;400.0;-0.202115;-0.008727;5.5;4.75;3.5;2.75;0.75;0.75;0.5;0.25;2.75;1.0;1.25;0.5;0.5;0.75;0.75;0.5;-0.255859;0.030762;0.97168;-0.84;-0.91;0.77;310.0;-0.136221;-0.002301
2.86;8.25;7.75;5.25;4.5;0.75;0.5;0.25;0.25;2.75;0.5;1.0;0.5;0.25;1.25;0.25;0.5;-0.219727;0.006348;0.992188;-0.56;0.63;0.63;395.0;-0.207256;-0.007599;4.75;4.75;3.5;2.75;0.5;0.75;0.5;0.25;2.25;0.75;1.0;0.5;0.5;0.75;0.5;0.25;-0.255371;0.022949;0.969727;-0.77;-0.98;0.84;281.0;-0.153901;-0.010427
2.87;8.25;8.0;5.25;4.75;0.75;0.75;0.25;0.25;2.75;0.5;1.0;0.75;0.25;1.25;0.25;0.5;-0.22168;0.011719;0.98584;-0.49;0.63;0.56;406.0;-0.205792;-0.014176;5.25;4.75;3.5;2.75;0.75;1.0;0.5;0.25;2.5;0.75;0.75;0.5;0.5;0.75;0.5;0.25;-0.255371;0.025879;0.974121;-0.77;-0.91;0.77;294.0;-0.157098;-0.00556
2.88;8.25;8.0;5.25;5.0;0.75;0.5;0.25;0.25;3.0;0.75;1.0;0.5;0.25;0.75;0.25;0.5;-0.224609;0.015625;0.985352;-0.56;0.56;0.63;405.0;-0.209618;-0.010935;5.25;5.25;3.5;2.75;0.5;1.0;0.5;0.25;2.5;1.0;0.75;0.5;0.5;0.75;0.5;0.5;-0.256836;0.018555;0.975586;-0.7;-0.98;0.77;300.0;-0.155456;-0.009789
2.89;8.25;7.75;5.0;4.75;0.75;0.5;0.25;0.25;2.75;0.75;1.25;0.5;0.25;0.75;0.25;0.5;-0.22168;0.013672;0.987793;-0.49;0.49;0.7;396.0;-0.208342;-0.012435;5.0;4.75;3.5;2.75;0.5;0.75;0.5;0.25;2.5;1.0;0.75;0.25;0.25;0.75;0.75;0.5;-0.252441;0.031738;0.970703;-0.77;-0.98;0.77;287.0;-0.149156;0.000374
2.9;8.25;7.75;5.25;4.5;0.75;0.5;0.25;0.25;2.75;1.0;1.0;0.5;0.25;1.25;0.25;0.5;-0.220703;0.018066;0.991211;-0.56;0.63;0.56;400.0;-0.2009;-0.006583;5.0;4.75;3.5;2.75;0.75;0.75;0.5;0.25;2.75;1.0;1.0;0.25;0.25;0.75;0.5;0.5;-0.257812;0.026367;0.974121;-0.77;-0.91;0.77;293.0;-0.145753;0.004009
2.91;8.25;7.75;5.25;4.75;0.5;0.5;0.25;0.0;2.75;0.75;1.0;0.25;0.25;1.25;0.25;0.75;-0.220215;0.013184;0.991211;-0.56;0.7;0.56;392.0;-0.208236;-0.004226;4.75;4.75;3.5;2.5;0.75;0.75;0.5;0.25;2.5;1.0;1.25;0.5;0.25;0.75;0.5;0.5;-0.252441;0.026855;0.975586;-0.77;-0.91;0.7;290.0;-0.139543;-0.002148
2.92;8.0;7.75;5.25;4.75;0.5;0.5;0.25;0.0;3.0;1.0;1.0;0.25;0.25;0.75;0.25;1.0;-0.21875;0.01416;0.990234;-0.42;0.49;0.56;392.0;-0.204544;-0.00533;5.5;4.5;3.5;2.75;0.75;0.75;0.5;0.25;2.5;0.75;1.0;0.5;0.5;0.75;0.5;0.5;-0.256836;0.031738;0.974121;-0.77;-0.98;0.84;295.0;-0.150988;-0.003015
2.93;8.25;7.75;5.25;4.75;0.75;0.5;0.25;0.25;2.75;1.0;1.0;0.5;0.25;1.0;0.0;0.5;-0.223145;0.01709;0.984375;-0.49;0.56;0.63;398.0;-0.209509;-0.008758;5.5;4.75;3.5;3.0;1.0;1.0;0.5;0.25;2.75;0.75;1.0;0.75;0.5;0.75;0.5;0.5;-0.254883;0.026855;0.976074;-0.77;-0.98;0.77;313.0;-0.14624;-0.007923
2.94;8.0;7.75;5.25;4.5;0.75;0.5;0.25;0.25;2.75;1.0;1.0;0.5;0.5;1.25;0.25;0.25;-0.227051;0.013672;0.990234;-0.56;0.56;0.63;398.0;-0.199361;-0.008951;5.25;4.75;3.5;2.5;1.0;1.0;0.5;0.25;2.5;1.0;1.0;0.75;0.5;0.75;0.75;0.5;-0.253418;0.026855;0.977539;-0.77;-1.05;0.77;307.0;-0.137041;-0.008078
2.95;8.25;7.75;5.25;4.75;0.75;0.5;0.25;0.25;2.75;1.0;1.0;0.5;0.5;0.75;0.25;0.5;-0.218262;0.009766;0.991699;-0.56;0.56;0.63;401.0;-0.206475;-0.01302;6.0;4.75;3.75;2.75;1.0;0.75;0.5;0.25;2.5;1.0;1.0;0.75;0.5;0.75;0.5;0.5;-0.260254;0.023438;0.966309;-0.77;-0.98;0.7;315.0;-0.151685;-0.002879
2.96;8.0;7.5;5.25;4.75;0.75;0.5;0.25;0.25;2.75;1.0;1.0;0.75;0.25;0.75;0.25;0.5;-0.22168;0.012207;0.98584;-0.56;0.56;0.56;396.0;-0.202946;-0.012308;6.0;4.75;3.5;3.0;1.0;1.0;0.5;0.25;2.5;0.75;0.75;0.5;0.5;0.75;0.5;0.5;-0.255371;0.030273;0.974609;-0.91;-0.91;0.7;310.0;-0.162323;-0.005372
2.97;8.25;7.5;5.5;4.75;0.5;0.5;0.25;0.25;2.0;1.0;1.0;0.5;0.25;1.0;0.25;0.5;-0.224609;0.015625;0.987305;-0.49;0.56;0.56;388.0;-0.217582;-0.01588;5.5;4.75;3.75;3.0;0.75;1.0;0.5;0.25;2.5;1.0;0.75;0.5;0.25;0.75;0.75;0.75;-0.25293;0.023438;0.976074;-0.84;-1.05;0.84;309.0;-0.150319;-0.005254
2.98;8.0;7.5;5.25;4.25;0.75;0.5;0.25;0.25;2.75;1.0;1.0;0.5;0.25;1.0;0.25;0.25;-0.223633;0.012695;0.987793;-0.56;0.56;0.56;388.0;-0.203165;-0.004634;5.75;4.75;3.75;2.75;0.75;1.0;0.5;0.25;2.5;1.0;0.75;0.75;0.25;0.75;0.75;0.5;-0.255371;0.024902;0.976074;-0.84;-0.91;0.7;310.0;-0.150403;-0.003318
2.99;8.0;7.75;5.25;5.0;0.75;0.5;0.25;0.25;2.75;1.0;1.25;0.5;0.25;0.75;0.25;0.5;-0.217773;0.014648;0.993652;-0.42;0.56;0.63;402.0;-0.204819;-0.013562;5.75;4.75;3.75;2.75;0.75;1.0;0.5;0.25;2.75;1.0;0.75;0.5;0.25;0.75;1.0;0.5;-0.257812;0.026367;0.977051;-0.84;-0.98;0.7;314.0;-0.143965;0.001814
3.0;8.25;7.75;5.0;4.75;0.75;0.5;0.25;0.25;2.75;1.0;1.25;0.75;0.25;0.5;0.25;0.25;-0.224121;0.010742;0.984863;-0.56;0.56;0.63;398.0;-0.207854;-0.013931;5.5;4.75;3.5;3.0;0.75;1.0;0.5;0.25;2.75;1.0;0.75;0.5;0.25;1.0;1.0;0.75;-0.255859;0.022949;0.96875;-0.77;-0.91;0.63;315.0;-0.135344;-0.002343
3.01;8.25;7.75;5.0;4.75;0.75;0.75;0.25;0.0;2.75;1.0;0.75;1.0;0.25;0.25;0.5;0.25;-0.224609;0.015625;0.986816;-0.56;0.56;0.63;394.0;-0.211925;-0.014101;5.5;4.75;3.5;3.0;0.75;0.75;0.5;0.25;2.5;1.0;0.75;0.5;0.25;1.0;1.0;0.75;-0.253906;0.025391;0.975098;-0.77;-0.84;0.7;308.0;-0.139728;-0.002943
3.02;8.0;7.75;5.0;4.75;0.75;0.5;0.25;0.25;2.75;1.0;1.0;0.75;0.25;0.75;0.25;0.5;-0.221191;0.012207;0.983398;-0.49;0.56;0.63;396.0;-0.203825;-0.01407;5.5;4.75;3.75;3.0;0.75;0.75;0.5;0.25;2.5;1.0;1.0;0.5;0.5;0.75;0.75;0.75;-0.255859;0.026367;0.970703;-0.7;-0.84;0.7;311.0;-0.144423;-0.007166
3.03;8.25;7.75;5.25;4.75;0.75;0.5;0.25;0.25;2.5;0.5;1.0;0.5;0.25;0.75;0.25;0.25;-0.220703;0.019531;0.985352;-0.56;0.56;0.63;388.0;-0.221735;-0.012925;5.5;4.75;3.0;2.75;0.75;1.0;0.5;0.25;2.5;0.75;1.25;0.5;0.5;0.75;0.5;0.75;-0.255371;0.025391;0.97168;-0.84;-0.84;0.7;299.0;-0.144768;-0.011571
3.04;8.25;7.75;5.25;4.75;0.75;0.5;0.25;0.25;2.75;0.5;1.0;0.5;0.25;1.0;0.25;0.0;-0.21582;0.01709;0.987793;-0.63;0.49;0.63;392.0;-0.215822;-0.008045;5.75;4.5;3.5;3.0;0.75;1.0;0.5;0.25;2.75;1.0;1.25;0.5;0.5;1.0;0.75;0.75;-0.248535;0.030273;0.974609;-0.7;-0.84;0.7;320.0;-0.131662;-0.004763
3.05;8.0;7.75;5.25;4.75;0.75;0.5;0.25;0.25;2.75;0.75;1.0;0.5;0.25;1.25;0.25;0.25;-0.222656;0.01416;0.985352;-0.56;0.63;0.56;396.0;-0.205375;-0.008417;5.25;4.75;3.75;3.0;0.75;1.0;0.5;0.25;2.75;1.0;1.0;0.5;0.25;0.75;0.75;0.75;-0.255859;0.026855;0.975098;-0.77;-0.84;0.7;313.0;-0.139933;-0.004101
3.06;8.0;7.75;5.25;4.75;0.75;0.5;0.0;0.25;2.75;1.0;1.25;0.25;0.25;1.25;0.25;0.5;-0.221191;0.008789;0.984375;-0.63;0.49;0.56;396.0;-0.202932;-0.010333;5.25;4.75;3.5;3.0;0.75;0.75;0.5;0.25;2.75;0.75;1.0;0.5;0.25;0.75;1.0;0.75;-0.254395;0.025879;0.973145;-0.77;-0.91;0.7;307.0;-0.136971;-0.003782
3.07;8.25;7.75;5.25;4.75;0.75;0.5;0.25;0.25;2.75;1.0;1.0;0.25;0.25;1.25;0.25;0.25;-0.225586;0.018555;0.984863;-0.63;0.63;0.56;399.0;-0.206594;-0.004994;4.75;4.75;3.5;2.75;0.5;0.75;0.5;0.25;2.75;0.75;1.25;0.5;0.25;0.75;1.0;0.75;-0.256348;0.025879;0.970703;-0.91;-0.91;0.77;298.0;-0.127028;-0.00543
3.08;8.0;7.75;5.25;4.75;0.75;0.5;0.25;0.25;2.75;1.0;1.0;0.25;0.25;1.0;0.25;0.25;-0.225098;0.015137;0.977539;-0.7;0.7;0.56;394.0;-0.208831;-0.006889;5.25;4.5;3.75;2.75;1.0;1.0;0.5;0.25;2.5;0.75;1.0;0.5;0.25;0.75;0.75;0.5;-0.253418;0.023438;0.975586;-0.77;-0.91;0.77;302.0;-0.146736;-0.002327
3.09;8.0;8.0;5.5;4.75;0.75;0.5;0.25;0.25;3.0;0.5;1.25;0.5;0.25;1.0;0.25;0.25;-0.219727;0.012695;0.987793;-0.56;0.56;0.56;403.0;-0.206696;-0.0085;5.25;4.75;3.5;3.0;1.0;1.0;0.5;0.25;2.5;0.75;0.75;0.5;0.5;1.0;0.5;0.75;-0.254395;0.024414;0.978516;-0.7;-0.84;0.7;305.0;-0.148706;-0.008655
3.1;8.25;7.75;5.25;4.75;0.75;0.5;0.25;0.25;2.75;0.5;1.25;0.5;0.25;1.25;0.25;0.25;-0.217773;0.013672;0.990234;-0.63;0.7;0.49;399.0;-0.206862;-0.008871;5.25;4.75;3.5;2.75;0.75;0.75;0.5;0.25;2.5;0.75;0.75;0.25;0.5;0.75;0.75;0.5;-0.254395;0.021973;0.968262;-0.77;-0.91;0.84;292.0;-0.152592;-0.002289
3.11;8.25;7.75;5.25;4.75;0.75;0.25;0.25;0.25;3.0;0.75;1.25;0.5;0.5;1.25;0.0;0.5;-0.21875;0.01709;0.98584;-0.56;0.63;0.63;403.0;-0.200095;-0.007142;5.0;4.75;3.5;2.75;0.75;0.75;0.5;0.25;2.25;1.0;0.75;0.5;0.5;0.5;0.5;0.5;-0.251465;0.027832;0.975586;-0.84;-0.98;0.7;286.0;-0.157876;-0.009799
3.12;8.25;8.0;5.25;4.75;0.75;0.5;0.25;0.25;2.75;0.75;1.0;0.5;0.25;1.25;0.0;0.5;-0.217285;0.012207;0.992676;-0.63;0.77;0.56;400.0;-0.210401;-0.009183;5.0;5.25;3.5;2.5;0.75;0.75;0.5;0.25;2.5;0.75;0.75;0.5;0.5;0.75;0.5;0.5;-0.255859;0.024414;0.973145;-0.7;-0.98;0.77;291.0;-0.155275;-0.006029
3.13;8.25;7.75;5.25;4.75;0.75;0.5;0.25;0.25;2.5;0.75;0.75;0.5;0.25;1.25;0.25;0.5;-0.223633;0.018066;0.986328;-0.63;0.56;0.7;394.0;-0.211989;-0.010508;5.0;4.75;3.5;3.0;0.75;0.75;0.5;0.25;2.5;0.75;0.75;0.5;0.5;0.5;0.5;0.5;-0.251953;0.022949;0.972168;-0.7;-0.91;0.77;290.0;-0.158012;-0.009241
3.14;8.0;8.0;5.25;4.75;0.75;0.5;0.25;0.25;2.75;1.0;1.0;0.5;0.25;1.25;0.25;0.5;-0.222656;0.010742;0.988281;-0.56;0.49;0.7;403.0;-0.201473;-0.010015;5.25;4.5;3.5;2.75;0.75;0.75;0.5;0.25;2.5;0.75;0.75;0.25;0.5;0.75;0.75;0.5;-0.256836;0.023438;0.969727;-0.91;-1.05;0.84;290.0;-0.150295;-0.000864
3.15;8.25;8.0;5.25;4.75;0.75;0.5;0.25;0.25;2.75;1.0;0.75;0.75;0.25;1.25;0.25;0.5;-0.224121;0.016602;0.987305;-0.56;0.56;0.56;406.0;-0.202978;-0.01047;5.5;4.75;3.25;2.75;0.75;0.75;0.5;0.25;2.5;1.0;0.75;0.25;0.5;0.5;0.75;0.5;-0.250977;0.026367;0.978027;-0.84;-1.05;0.77;293.0;-0.154506;-0.002953
3.16;8.25;8.0;5.5;4.75;0.75;0.75;0.25;0.25;2.75;1.0;1.25;0.5;0.25;1.0;0.25;0.5;-0.217285;0.018066;0.986816;-0.7;0.63;0.56;412.0;-0.203468;-0.012152;5.5;4.75;3.5;3.0;0.75;0.75;0.5;0.25;2.5;1.0;1.0;0.25;0.5;0.5;0.25;0.5;-0.253418;0.026855;0.972656;-0.77;-0.98;0.77;296.0;-0.164218;-0.003809
3.17;8.25;7.75;5.5;4.75;0.5;0.75;0.25;0.25;2.75;0.75;1.0;0.5;0.25;1.25;0.25;0.5;-0.222168;0.016602;0.98584;-0.77;0.7;0.56;404.0;-0.205344;-0.010445;5.5;4.5;3.5;3.0;0.75;1.0;0.5;0.25;2.75;1.0;1.0;0.25;0.5;0.75;0.25;0.5;-0.25;0.025879;0.970703;-0.84;-1.05;0.77;302.0;-0.152581;-0.000417
3.18;8.25;7.75;5.25;4.75;0.5;0.75;0.25;0.0;3.0;0.75;1.0;0.5;0.25;0.75;0.25;0.5;-0.220703;0.011719;0.991211;-0.56;0.56;0.56;395.0;-0.209993;-0.006832;5.5;4.5;3.75;3.0;0.75;1.0;0.5;0.25;2.75;1.0;1.0;0.25;0.5;0.75;0.75;0.5;-0.254395;0.024902;0.976074;-0.77;-0.91;0.77;311.0;-0.143357;-0.001044
3.19;8.25;8.5;5.0;4.75;0.75;0.75;0.25;0.0;2.75;1.0;1.0;0.5;0.25;0.75;0.25;0.5;-0.224121;0.006836;0.989746;-0.7;0.63;0.56;402.0;-0.21379;-0.012048;5.25;4.5;3.5;3.0;0.75;1.0;0.5;0.25;2.5;1.0;1.0;0.25;0.5;0.5;0.5;0.75;-0.26123;0.023438;0.97168;-0.77;-1.05;0.77;298.0;-0.151573;-0.008491
3.2;8.25;8.0;5.25;4.75;0.75;0.5;0.25;0.25;2.75;0.75;1.0;0.5;0.25;0.5;0.25;0.5;-0.216797;0.017578;0.98877;-0.63;0.56;0.63;396.0;-0.216882;-0.012997;5.5;4.5;3.5;2.75;0.75;1.0;0.5;0.25;2.25;1.0;0.75;0.5;0.5;0.5;0.5;0.5;-0.26123;0.022949;0.972168;-0.7;-0.98;0.77;292.0;-0.160336;-0.008831
3.21;8.5;7.75;5.25;4.75;0.75;0.5;0.25;0.25;2.25;1.0;1.0;0.5;0.25;0.5;0.25;0.5;-0.222168;0.014648;0.984375;-0.7;0.56;0.56;392.0;-0.222261;-0.015817;5.5;4.75;3.5;2.75;0.75;1.0;0.5;0.25;2.25;1.0;1.0;0.5;0.5;0.75;0.75;0.5;-0.258301;0.022461;0.974609;-0.84;-1.05;0.84;303.0;-0.149061;-0.010414
3.22;8.25;7.75;5.25;5.0;0.75;0.5;0.25;0.25;2.5;1.0;1.25;0.5;0.25;0.25;0.25;0.5;-0.222168;0.015625;0.98877;-0.77;0.63;0.56;396.0;-0.217629;-0.017526;5.25;4.75;3.5;3.0;1.0;1.0;0.5;0.25;2.25;1.0;1.25;0.25;0.5;0.5;0.75;0.5;-0.25;0.022461;0.968262;-0.77;-0.98;0.84;304.0;-0.15198;-0.012655
3.23;8.5;8.0;5.5;5.0;0.75;0.5;0.25;0.25;2.75;1.0;1.0;0.75;0.25;0.25;0.25;0.5;-0.220703;0.009766;0.990234;-0.7;0.7;0.56;408.0;-0.216446;-0.015489;5.5;4.75;3.5;3.0;0.75;0.75;0.5;0.25;2.5;1.0;1.0;0.5;0.5;0.5;0.5;0.5;-0.255371;0.029297;0.973633;-0.84;-0.91;0.77;301.0;-0.155216;-0.007346
3.24;8.25;7.75;5.0;4.75;0.75;0.75;0.25;0.0;2.75;0.5;1.0;0.25;0.25;0.75;0.25;0.25;-0.221191;0.004883;0.992676;-0.63;0.77;0.56;384.0;-0.221898;-0.006852;6.0;4.75;3.75;3.0;0.75;0.5;0.5;0.25;2.5;1.0;1.25;0.5;0.5;0.75;0.5;0.75;-0.258301;0.030273;0.975586;-0.7;-0.98;0.84;314.0;-0.150682;-0.002861
3.25;8.25;7.75;5.0;4.75;0.75;0.5;0.25;0.0;2.75;0.75;1.0;0.25;0.25;0.75;0.25;0.25;-0.222656;0.015137;0.982422;-0.7;0.63;0.49;384.0;-0.219018;-0.004269;5.75;4.75;3.5;3.0;0.75;1.0;0.5;0.25;2.75;1.0;1.0;0.25;0.5;0.5;0.75;0.5;-0.255859;0.030762;0.96875;-0.77;-0.98;0.77;311.0;-0.150892;-0.003603
3.26;8.25;8.0;5.25;4.75;0.75;0.5;0.25;0.25;2.75;0.5;1.0;0.5;0.25;1.0;0.25;0.5;-0.216797;0.012695;0.98584;-0.63;0.63;0.63;398.0;-0.212804;-0.011321;5.75;5.0;3.5;3.0;0.75;0.75;0.5;0.25;2.25;0.75;1.0;0.25;0.5;0.5;0.75;0.5;-0.258301;0.021973;0.973145;-0.7;-0.91;0.7;300.0;-0.16651;-0.009557
3.27;8.5;8.0;5.25;4.75;0.75;0.5;0.25;0.25;2.75;0.25;1.0;0.5;0.25;1.0;0.25;0.5;-0.222656;0.012695;0.98877;-0.56;0.7;0.63;398.0;-0.217396;-0.011004;6.0;4.75;3.75;3.0;0.75;0.75;0.5;0.25;2.25;0.75;0.75;0.5;0.5;0.75;0.5;0.5;-0.255371;0.023438;0.969238;-0.77;-0.98;0.91;303.0;-0.168765;-0.005755
3.28;8.25;8.0;5.25;4.75;0.75;0.5;0.25;0.25;2.25;0.5;1.0;0.5;0.25;1.0;0.25;0.5;-0.222168;0.012695;0.987305;-0.63;0.56;0.56;391.0;-0.221393;-0.01655;5.75;5.0;3.75;2.75;0.75;1.0;0.5;0.25;2.25;0.5;1.0;0.5;0.5;0.75;0.5;0.5;-0.255371;0.024902;0.977051;-0.98;-1.12;0.77;303.0;-0.167412;-0.010308
3.29;7.75;8.0;5.25;4.75;0.75;0.5;0.25;0.25;2.75;0.5;1.0;0.5;0.25;0.75;0.5;0.5;-0.222656;0.016602;0.984863;-0.63;0.49;0.56;393.0;-0.209228;-0.014687;5.5;5.0;3.5;3.0;0.75;0.5;0.5;0.25;2.5;0.5;1.0;0.5;0.25;0.75;0.5;0.5;-0.253906;0.021973;0.969238;-0.84;-0.98;0.84;295.0;-0.163219;-0.002321
3.3;8.0;7.75;5.25;5.0;0.75;0.5;0.25;0.25;3.0;0.5;1.0;0.5;0.25;1.0;0.5;0.5;-0.220703;0.015625;0.987305;-0.63;0.49;0.56;402.0;-0.202144;-0.010753;5.25;4.75;3.5;2.75;0.75;0.5;0.5;0.25;2.5;0.5;0.75;0.5;0.25;0.75;0.75;0.75;-0.254395;0.022949;0.966797;-0.77;-1.05;0.84;288.0;-0.152855;-0.000934
3.31;8.25;7.75;5.25;4.75;0.75;0.5;0.25;0.25;2.75;0.5;1.0;0.5;0.25;1.25;0.25;0.5;-0.214844;0.012207;0.983398;-0.63;0.56;0.56;398.0;-0.207861;-0.009237;5.75;5.0;3.5;2.75;0.75;0.75;0.5;0.25;2.25;0.75;1.0;0.5;0.5;0.75;0.5;0.5;-0.258789;0.029785;0.976074;-0.84;-1.12;0.77;300.0;-0.162697;-0.008011
3.32;8.25;7.75;5.25;4.75;0.75;0.5;0.25;0.25;2.5;0.5;1.0;0.5;0.25;1.25;0.25;0.5;-0.220703;0.007324;0.986328;-0.7;0.56;0.56;394.0;-0.212074;-0.01181;6.0;5.0;3.5;2.75;1.0;1.0;0.5;0.25;2.5;0.75;1.0;0.25;0.5;0.5;0.75;0.5;-0.254395;0.023438;0.97168;-0.91;-1.05;0.7;310.0;-0.162081;-0.004955
3.33;8.25;7.75;5.25;4.75;0.75;0.25;0.25;0.0;2.75;0.5;1.25;0.5;0.25;0.5;0.25;0.5;-0.222656;0.014648;0.986328;-0.7;0.49;0.7;386.0;-0.218367;-0.007244;6.0;5.0;3.25;2.75;0.75;1.0;0.5;0.25;2.25;0.75;0.75;0.25;0.5;0.25;0.5;0.5;-0.256348;0.024414;0.96582;-0.91;-1.05;0.84;292.0;-0.180462;-0.009648
3.34;8.25;8.0;5.25;4.75;0.75;0.25;0.25;0.0;3.0;0.5;1.25;0.75;0.25;0.5;0.25;0.5;-0.22168;0.018555;0.983887;-0.7;0.7;0.56;395.0;-0.212223;-0.007814;5.75;5.0;3.5;3.0;0.75;1.0;0.5;0.25;2.0;0.75;0.75;0.25;0.5;0.25;0.5;0.5;-0.256348;0.02832;0.974609;-0.91;-1.05;0.84;292.0;-0.185646;-0.015457
3.35;8.5;8.0;5.25;4.75;0.75;0.5;0.25;0.25;2.5;0.5;1.25;0.75;0.25;0.5;0.0;0.5;-0.222168;0.013184;0.988281;-0.7;0.63;0.63;395.0;-0.224005;-0.017581;6.0;5.0;3.75;2.75;0.75;0.75;0.5;0.25;2.25;0.5;0.75;0.5;0.5;0.75;0.5;0.5;-0.25293;0.024414;0.972656;-0.84;-0.98;0.84;300.0;-0.173539;-0.005572
3.36;8.25;8.5;5.25;4.75;0.75;0.5;0.25;0.25;2.75;0.75;1.25;0.5;0.0;0.75;0.25;0.5;-0.223633;0.01123;0.981445;-0.77;0.77;0.56;404.0;-0.214874;-0.011926;6.0;5.0;3.5;2.75;0.75;0.5;0.5;0.25;2.25;0.5;0.75;0.25;0.5;0.75;0.5;0.5;-0.255371;0.023438;0.972168;-0.77;-1.05;0.84;291.0;-0.176579;-0.000958
3.37;8.25;7.75;5.5;4.75;0.75;0.5;0.25;0.25;2.75;1.0;1.0;0.5;0.0;1.0;0.25;0.5;-0.220215;0.015137;0.98291;-0.63;0.63;0.56;402.0;-0.207752;-0.005883;6.0;5.25;3.75;2.75;0.75;0.5;0.5;0.25;2.0;0.75;0.75;0.25;0.5;0.75;0.25;0.5;-0.255371;0.026367;0.975098;-0.84;-0.98;0.77;293.0;-0.186526;-0.003377
3.38;8.25;7.75;5.5;4.75;1.0;0.5;0.25;0.25;2.75;0.75;1.0;0.5;0.0;1.0;0.25;0.5;-0.214355;0.016113;0.988281;-0.63;0.84;0.56;402.0;-0.210306;-0.005875;6.0;5.25;3.75;3.0;1.0;1.0;0.5;0.25;2.0;0.75;0.75;0.5;0.25;0.75;0.25;0.5;-0.25293;0.029297;0.978027;-0.91;-1.05;0.84;305.0;-0.185262;-0.009392
3.39;8.25;8.5;5.25;4.75;0.75;0.5;0.25;0.25;2.75;0.5;1.0;0.5;0.25;0.75;0.0;0.5;-0.21875;0.009277;0.985352;-0.7;0.7;0.63;398.0;-0.223508;-0.013876;6.0;5.5;3.5;3.0;1.0;0.75;0.5;0.25;2.0;0.75;0.75;0.25;0.5;0.75;0.5;0.5;-0.252441;0.023438;0.968262;-0.84;-1.05;0.77;304.0;-0.182099;-0.010575
3.4;8.25;8.0;5.25;4.75;0.75;0.5;0.25;0.25;2.75;0.75;1.25;0.5;0.25;0.75;0.25;0.5;-0.223633;0.008301;0.984863;-0.63;0.77;0.56;401.0;-0.210084;-0.012627;6.0;5.25;3.75;3.0;0.75;1.0;0.5;0.25;2.0;0.75;0.5;0.25;0.5;0.75;0.5;0.75;-0.254883;0.023926;0.981445;-0.91;-1.05;0.77;303.0;-0.182456;-0.012049
3.41;8.25;7.75;5.25;4.5;0.75;0.5;0.25;0.25;2.75;0.75;1.25;0.5;0.25;1.0;0.25;0.5;-0.213867;0.016113;0.991211;-0.7;0.84;0.63;398.0;-0.204562;-0.008947;6.0;5.25;3.75;2.75;0.75;0.75;0.5;0.25;2.0;0.75;0.5;0.5;0.25;0.5;0.5;0.75;-0.257324;0.031738;0.974121;-0.91;-1.05;0.77;296.0;-0.185356;-0.007943
3.42;8.5;7.75;5.25;4.75;0.75;0.25;0.25;0.0;2.75;0.5;1.0;0.5;0.25;0.5;0.25;0.5;-0.219238;0.012695;0.985352;-0.63;0.56;0.56;386.0;-0.223009;-0.00559;6.0;5.0;3.5;2.75;0.5;0.5;0.5;0.25;2.0;0.75;0.5;0.5;0.25;0.75;0.25;0.25;-0.254883;0.021484;0.975586;-0.84;-1.05;0.77;281.0;-0.190274;1.1e-05
3.43;8.5;7.75;5.25;4.75;0.75;0.25;0.25;0.0;2.5;0.75;1.0;0.5;0.25;0.5;0.25;0.5;-0.222168;0.012207;0.994629;-0.7;0.63;0.63;386.0;-0.224039;-0.007673;6.0;5.5;3.75;3.0;0.5;0.5;0.5;0.25;2.0;0.75;0.5;0.5;0.25;0.75;0.5;0.25;-0.256348;0.025391;0.975098;-0.77;-1.05;0.77;295.0;-0.190098;-0.004996
3.44;8.5;7.75;5.5;4.75;0.75;0.5;0.25;0.25;2.75;0.5;1.0;0.5;0.25;0.75;0.25;0.5;-0.21582;0.012207;0.988281;-0.7;0.7;0.56;399.0;-0.216909;-0.009822;6.0;5.5;3.75;3.0;0.75;0.75;0.5;0.25;2.0;0.5;0.75;0.25;0.25;0.75;0.5;0.5;-0.253418;0.026367;0.974609;-0.84;-0.98;0.77;299.0;-0.190302;-0.007436
3.45;8.5;7.75;5.25;4.75;0.75;0.5;0.5;0.25;2.5;0.5;1.0;0.5;0.25;1.0;0.25;0.5;-0.224121;0.015625;0.987305;-0.77;0.7;0.56;399.0;-0.214048;-0.009429;6.5;5.5;3.75;3.0;1.0;0.75;0.5;0.25;1.75;0.25;0.5;0.25;0.25;0.75;0.75;0.5;-0.255371;0.022949;0.974609;-0.84;-0.98;0.77;301.0;-0.201279;-0.008265
3.46;8.25;7.75;5.25;4.75;0.75;0.5;0.25;0.25;2.75;0.25;1.25;0.75;0.25;0.5;0.0;0.5;-0.22168;0.012695;0.989746;-0.63;0.63;0.63;391.0;-0.220445;-0.01546;6.0;5.5;3.75;3.0;0.5;0.75;0.5;0.25;2.0;0.5;0.5;0.25;0.25;0.25;0.25;0.5;-0.249023;0.021484;0.968262;-0.77;-0.98;0.84;286.0;-0.210944;-0.009332
3.47;8.0;8.5;5.5;4.75;0.75;0.5;0.25;0.25;2.5;0.25;1.0;0.5;0.25;0.5;0.25;0.5;-0.219238;0.01123;0.992188;-0.56;0.63;0.56;392.0;-0.22943;-0.018785;6.0;5.5;3.75;3.0;0.5;0.75;0.5;0.25;2.0;0.75;0.75;0.5;0.25;0.25;0.25;0.5;-0.250977;0.025391;0.972656;-0.77;-1.05;0.84;294.0;-0.19823;-0.012465
3.48;8.25;8.5;5.25;5.0;0.75;0.5;0.25;0.25;2.25;0.5;1.0;0.5;0.25;0.75;0.0;0.5;-0.217773;0.015625;0.984375;-0.56;0.63;0.56;394.0;-0.232717;-0.020721;6.0;5.25;3.75;3.0;0.75;0.75;0.5;0.25;2.0;0.75;0.75;0.5;0.25;0.5;0.25;0.5;-0.254395;0.026855;0.972656;-0.77;-0.98;0.77;297.0;-0.190869;-0.008931
3.49;8.25;8.0;5.25;4.75;0.75;0.5;0.25;0.25;2.5;0.5;1.0;0.5;0.25;0.75;0.25;0.5;-0.224609;0.016602;0.983887;-0.49;0.7;0.56;392.0;-0.220788;-0.015047;6.25;5.25;3.75;3.0;0.75;0.75;0.5;0.25;2.0;0.5;0.5;0.25;0.5;0.75;0.25;0.25;-0.255859;0.021484;0.977051;-0.84;-0.98;0.91;295.0;-0.200164;-0.005271
3.5;8.25;7.75;5.5;5.0;0.75;0.5;0.25;0.25;2.75;0.5;0.75;0.75;0.25;0.75;0.25;0.5;-0.212402;0.01123;0.982422;-0.7;0.63;0.56;399.0;-0.216217;-0.013584;6.0;5.25;3.75;3.0;0.75;0.75;0.5;0.25;2.0;0.5;0.75;0.25;0.5;0.75;0.5;0.25;-0.252441;0.022461;0.969727;-0.91;-1.05;0.84;297.0;-0.188279;-0.008161
3.51;8.0;8.0;5.25;4.75;0.75;0.5;0.25;0.25;2.75;0.5;1.0;0.5;0.25;0.75;0.5;0.5;-0.219727;0.016602;0.98584;-0.7;0.49;0.49;396.0;-0.210616;-0.013803;6.25;5.5;3.75;3.0;0.5;0.75;0.5;0.25;2.0;0.75;0.75;0.5;0.25;0.75;0.5;0.5;-0.250977;0.02832;0.97168;-0.77;-0.98;0.77;305.0;-0.185126;-0.009096
3.52;8.5;7.75;5.25;4.75;0.75;0.5;0.25;0.25;2.75;0.75;1.0;0.5;0.0;0.75;0.25;0.5;-0.221191;0.014648;0.990723;-0.63;0.56;0.7;396.0;-0.21555;-0.007372;6.25;5.5;3.75;3.0;0.75;0.75;0.5;0.25;2.0;0.75;0.75;0.25;0.25;0.25;0.5;0.5;-0.253906;0.026855;0.968262;-0.84;-0.98;0.77;300.0;-0.197556;-0.008528
3.53;8.25;8.0;5.0;4.75;0.75;0.5;0.25;0.25;2.25;0.75;1.25;0.5;0.0;1.0;0.25;0.25;-0.222656;0.013672;0.980957;-0.56;0.56;0.49;390.0;-0.218968;-0.013701;6.0;5.5;3.75;3.0;0.75;0.5;0.5;0.25;2.0;0.75;0.75;0.25;0.25;0.25;0.5;0.5;-0.255859;0.025879;0.976562;-0.84;-1.05;0.91;294.0;-0.196037;-0.006985
3.54;8.25;8.0;5.5;5.0;1.0;0.5;0.25;0.25;2.75;0.5;1.25;0.5;0.0;1.25;0.5;0.25;-0.216797;0.012207;0.984375;-0.7;0.63;0.49;411.0;-0.206447;-0.008088;6.0;5.75;3.75;3.0;0.5;0.5;0.5;0.25;1.75;0.75;0.75;0.5;0.25;0.25;0.5;0.5;-0.255371;0.026855;0.97168;-0.91;-0.98;0.77;293.0;-0.200196;-0.015324
3.55;8.25;7.75;5.5;4.75;0.75;0.5;0.25;0.25;2.75;0.75;1.25;0.5;0.25;1.25;0.5;0.25;-0.217773;0.012207;0.986328;-0.7;0.63;0.56;408.0;-0.199864;-0.008145;6.25;5.5;3.5;3.0;0.75;0.75;0.5;0.25;2.0;0.75;0.75;0.5;0.25;0.25;0.75;0.5;-0.256348;0.030273;0.969727;-0.84;-1.05;0.77;303.0;-0.187277;-0.012944
3.56;8.5;8.5;5.5;4.75;0.75;0.5;0.25;0.25;3.0;0.75;1.0;0.5;0.25;1.0;0.5;0.25;-0.222168;0.010742;0.989746;-0.7;0.7;0.63;417.0;-0.207599;-0.008089;6.5;5.5;3.75;3.0;0.75;1.0;0.5;0.25;2.0;0.75;0.75;0.5;0.25;0.25;0.75;0.5;-0.249023;0.022461;0.973633;-0.91;-1.05;0.84;312.0;-0.189668;-0.013318
3.57;8.5;7.75;5.5;4.75;0.75;1.0;0.25;0.25;2.75;0.75;1.5;0.5;0.25;1.0;0.5;0.5;-0.217285;0.01123;0.986328;-0.63;0.49;0.56;419.0;-0.199067;-0.013964;6.5;5.5;3.75;3.0;0.75;1.0;0.5;0.25;1.75;0.75;0.75;0.5;0.25;0.5;0.25;0.5;-0.251465;0.028809;0.972168;-0.7;-0.84;0.77;305.0;-0.201552;-0.013944
3.58;8.5;7.75;5.25;4.75;0.75;0.75;0.25;0.25;2.75;1.0;1.25;0.5;0.25;1.25;0.5;0.5;-0.218262;0.009766;0.987305;-0.49;0.56;0.63;415.0;-0.195411;-0.010558;6.25;5.5;3.75;3.0;0.75;0.75;0.5;0.25;1.75;0.75;0.5;0.5;0.5;0.75;0.25;0.5;-0.248535;0.024414;0.974609;-0.91;-0.98;0.77;301.0;-0.196563;-0.013594
3.59;8.25;7.75;5.25;4.75;1.0;0.5;0.25;0.25;2.75;1.0;1.0;0.25;0.25;1.25;0.25;0.5;-0.225586;0.010254;0.990723;-0.56;0.63;0.56;403.0;-0.203908;-0.005634;6.5;5.75;3.75;3.25;0.75;1.0;0.5;0.25;2.0;0.75;0.75;0.25;0.25;0.75;0.5;0.5;-0.256836;0.022949;0.974609;-0.91;-1.05;0.84;316.0;-0.19261;-0.010538
3.6;8.25;7.75;5.25;4.75;0.75;0.25;0.25;0.25;2.75;1.0;1.25;0.25;0.25;1.25;0.25;0.5;-0.223633;0.015625;0.988281;-0.7;0.7;0.56;400.0;-0.201811;-0.004938;6.75;6.0;3.5;3.0;0.75;0.5;0.5;0.25;2.0;0.75;0.75;0.25;0.25;0.5;0.5;0.5;-0.250488;0.024414;0.974121;-0.77;-0.98;0.84;307.0;-0.200095;-0.005954
3.61;8.25;7.75;5.25;4.75;0.75;0.25;0.25;0.25;2.75;0.75;1.25;0.5;0.25;1.25;0.25;0.5;-0.218262;0.005859;0.98584;-0.63;0.63;0.49;400.0;-0.201994;-0.007521;6.25;5.75;3.5;3.0;0.5;0.5;0.5;0.25;2.25;0.75;0.75;0.25;0.25;0.75;0.5;0.5;-0.251465;0.023438;0.975098;-0.77;-0.91;0.7;302.0;-0.185101;-0.002705
3.62;8.25;8.5;5.25;4.75;0.5;0.5;0.25;0.25;2.75;0.75;0.75;0.25;0.25;1.0;0.25;0.5;-0.217773;0.015137;0.984863;-0.56;0.56;0.56;397.0;-0.21903;-0.010479;6.25;5.5;3.75;2.75;0.5;0.5;0.5;0.0;2.0;1.0;1.0;0.25;0.25;0.75;0.5;0.25;-0.255859;0.026367;0.969238;-0.91;-0.98;0.77;296.0;-0.185357;0.005115
3.63;8.5;7.75;5.25;4.75;0.75;0.25;0.25;0.25;2.75;1.0;0.75;0.25;0.25;1.25;0.25;0.5;-0.21582;0.02002;0.98584;-0.63;0.56;0.63;397.0;-0.209401;-0.002531;6.5;5.5;3.75;3.0;0.75;0.75;0.5;0.0;1.75;1.0;1.0;0.25;0.25;0.5;0.5;0.25;-0.253418;0.021973;0.97168;-0.84;-0.91;0.84;302.0;-0.197326;-0.002896
3.64;8.5;7.75;5.25;4.75;1.0;0.25;0.25;0.25;2.75;0.5;1.0;0.5;0.25;1.25;0.25;0.5;-0.217773;0.016113;0.984863;-0.56;0.77;0.49;401.0;-0.209036;-0.005915;6.5;5.25;3.75;3.25;0.75;0.75;0.5;0.25;2.25;0.75;0.5;0.25;0.0;0.5;0.5;0.5;-0.249023;0.023926;0.97168;-0.84;-0.98;0.84;304.0;-0.19537;0.001002
3.65;8.5;8.0;5.25;4.75;0.75;0.5;0.25;0.25;2.5;0.5;1.0;0.5;0.25;1.25;0.25;0.5;-0.211426;0.014648;0.986328;-0.63;0.42;0.63;399.0;-0.214719;-0.011929;6.5;5.5;3.75;3.25;0.75;0.5;0.5;0.25;2.25;0.75;0.5;0.25;0.25;0.5;0.5;0.5;-0.25293;0.025391;0.969727;-0.84;-1.05;0.77;306.0;-0.194805;-0.001271
3.66;8.25;7.75;5.25;4.75;0.75;0.25;0.25;0.25;2.5;0.75;1.0;0.5;0.25;1.0;0.25;0.5;-0.224121;0.015137;0.98584;-0.7;0.84;0.49;392.0;-0.212947;-0.010401;6.5;5.75;4.0;3.0;0.75;0.5;0.5;0.25;2.0;0.75;0.5;0.25;0.5;0.75;0.75;0.25;-0.255859;0.026367;0.97168;-0.84;-0.98;0.84;311.0;-0.191391;-0.004138
3.67;8.25;8.0;5.25;4.75;0.75;0.5;0.25;0.25;2.75;0.75;1.0;0.5;0.25;1.25;0.25;0.5;-0.225586;0.012207;0.984375;-0.56;0.77;0.56;403.0;-0.206006;-0.009702;6.0;5.75;3.75;3.0;0.75;0.75;0.5;0.0;1.75;0.75;0.5;0.25;0.5;0.75;0.75;0.5;-0.253906;0.026367;0.96875;-0.84;-0.98;0.84;299.0;-0.191352;-0.009368
3.68;8.25;7.75;5.5;4.75;0.75;0.5;0.25;0.25;2.75;0.5;1.0;0.5;0.25;0.75;0.25;0.5;-0.224121;0.013672;0.987305;-0.56;0.49;0.63;396.0;-0.215578;-0.01067;7.0;5.75;3.75;3.0;0.75;1.0;0.5;0.25;1.75;0.75;0.5;0.5;0.5;0.75;0.5;0.25;-0.255371;0.025391;0.974609;-0.91;-0.98;0.7;316.0;-0.200582;-0.013178
3.69;8.25;7.75;5.5;4.75;0.75;0.5;0.25;0.25;2.5;0.5;0.75;0.75;0.25;0.5;0.25;0.5;-0.223633;0.006836;0.985352;-0.63;0.7;0.56;390.0;-0.22374;-0.015737;6.75;5.5;3.75;3.0;0.75;0.75;0.5;0.25;1.75;0.75;0.5;0.5;0.25;0.25;0.5;0.25;-0.256836;0.017578;0.972656;-0.84;-1.05;0.84;301.0;-0.209705;-0.009912
3.7;8.25;7.75;5.25;4.75;0.75;0.5;0.25;0.25;2.5;0.5;0.75;0.5;0.25;0.75;0.0;0.5;-0.214355;0.013672;0.983398;-0.56;0.7;0.56;384.0;-0.227525;-0.012802;6.5;5.5;3.75;3.5;0.75;0.5;0.5;0.25;2.25;0.75;0.75;0.25;0.25;0.5;0.5;0.5;-0.251465;0.021484;0.973145;-0.84;-0.91;0.77;312.0;-0.191838;-0.004471
3.71;8.25;8.0;5.25;4.75;0.75;0.5;0.25;0.25;2.25;0.75;1.0;0.5;0.25;0.75;0.25;0.5;-0.220215;0.013672;0.990234;-0.7;0.63;0.56;391.0;-0.221799;-0.017118;6.5;5.5;3.75;3.5;0.75;0.75;0.5;0.25;2.0;0.5;0.75;0.25;0.25;0.25;0.75;0.5;-0.257812;0.026855;0.974121;-0.77;-0.98;0.77;309.0;-0.199601;-0.013001
3.72;8.5;7.75;5.5;4.75;0.5;0.5;0.25;0.25;2.75;0.75;1.0;0.5;0.25;0.75;0.25;0.5;-0.219727;0.014648;0.988281;-0.63;0.7;0.49;399.0;-0.214339;-0.009832;6.5;6.0;3.75;3.25;0.5;1.0;0.5;0.0;1.75;0.5;0.75;0.5;0.25;0.25;0.75;0.25;-0.246582;0.022461;0.97168;-0.91;-1.05;0.7;305.0;-0.209366;-0.016129
3.73;8.5;7.5;5.5;4.75;0.75;0.5;0.25;0.25;2.5;0.75;1.0;0.5;0.25;1.0;0.25;0.5;-0.223145;0.015137;0.983398;-0.7;0.77;0.56;398.0;-0.212959;-0.009765;6.25;5.5;3.75;3.0;0.5;0.75;0.5;0.0;1.5;0.25;0.5;0.5;0.25;0.5;0.5;0.25;-0.250488;0.022461;0.97168;-0.77;-1.05;0.84;281.0;-0.219529;-0.010968
3.74;8.5;7.75;5.25;4.5;0.75;0.5;0.25;0.25;2.75;0.75;1.0;0.5;0.25;0.75;0.25;0.5;-0.217773;0.019531;0.98291;-0.7;0.63;0.56;396.0;-0.212714;-0.008426;6.25;5.75;3.75;3.0;0.5;0.5;0.25;0.25;1.75;0.25;0.5;0.5;0.25;0.75;0.25;0.5;-0.256836;0.02002;0.969238;-0.84;-1.05;0.77;285.0;-0.215455;-0.014572
3.75;8.5;7.75;5.25;4.75;0.75;0.25;0.25;0.25;2.25;0.75;1.0;0.5;0.25;0.75;0.25;0.5;-0.220215;0.01416;0.985352;-0.77;0.7;0.49;389.0;-0.222389;-0.013277;6.25;5.75;3.75;3.0;0.75;0.75;0.5;0.25;2.0;0.75;0.75;0.5;0.5;0.75;0.25;0.5;-0.248047;0.02832;0.974121;-0.77;-1.05;0.77;310.0;-0.189221;-0.012455
3.76;8.25;7.75;5.25;4.75;0.75;0.25;0.25;0.25;2.75;0.5;1.0;0.5;0.25;0.75;0.0;0.5;-0.223633;0.012695;0.98584;-0.7;0.77;0.56;387.0;-0.220284;-0.008913;6.5;5.5;3.75;3.0;1.0;0.75;0.5;0.25;2.0;0.5;0.5;0.5;0.5;0.25;0.5;0.5;-0.259277;0.025879;0.972168;-0.77;-1.12;0.77;306.0;-0.200129;-0.012625
3.77;8.25;7.75;5.25;4.75;0.75;0.5;0.25;0.25;2.5;0.5;0.75;0.75;0.25;1.0;0.25;0.5;-0.22168;0.013672;0.979492;-0.63;0.56;0.56;392.0;-0.215876;-0.014262;6.25;5.75;3.75;3.5;1.0;0.75;0.5;0.25;2.25;0.5;0.75;0.5;0.5;0.25;0.5;0.5;-0.251953;0.026367;0.972656;-0.77;-1.05;0.84;318.0;-0.192711;-0.016631
3.78;8.25;7.75;5.25;4.75;0.75;0.5;0.25;0.25;2.5;0.5;0.75;0.75;0.25;1.0;0.5;0.25;-0.218262;0.013184;0.979492;-0.7;0.63;0.56;393.0;-0.213502;-0.013629;6.25;5.75;3.75;3.5;1.0;1.0;0.5;0.25;2.0;0.75;0.5;0.25;0.25;0.5;0.5;0.5;-0.256348;0.020508;0.97168;-0.77;-0.98;0.77;314.0;-0.199259;-0.013405
3.79;8.5;7.75;5.5;4.5;0.75;0.25;0.25;0.25;2.75;0.5;1.0;0.5;0.25;0.75;0.25;0.25;-0.221191;0.013184;0.986328;-0.77;0.77;0.49;391.0;-0.219044;-0.005026;6.5;5.75;4.0;3.5;0.75;1.0;0.5;0.25;2.0;0.75;0.5;0.5;0.25;0.5;0.5;0.5;-0.250977;0.028809;0.969727;-0.84;-1.05;0.77;320.0;-0.198712;-0.01459
3.8;8.25;7.75;5.5;4.5;0.75;0.25;0.25;0.25;2.25;0.75;1.0;0.75;0.25;0.75;0.25;0.5;-0.223633;0.013184;0.986816;-0.56;0.63;0.63;389.0;-0.21771;-0.013824;6.75;5.5;4.0;3.5;0.75;0.75;0.5;0.25;2.0;0.75;0.5;0.5;0.25;0.5;0.5;0.5;-0.253906;0.024902;0.97168;-0.84;-0.98;0.77;317.0;-0.199241;-0.009862
3.81;8.25;7.75;5.0;4.25;0.75;0.25;0.25;0.25;2.25;0.75;1.0;0.5;0.25;1.25;0.25;0.5;-0.224609;0.014648;0.987793;-0.77;0.77;0.56;381.0;-0.211948;-0.009351;7.0;5.5;4.0;3.5;0.75;1.0;0.5;0.25;2.0;0.75;0.5;0.5;0.25;0.5;0.25;0.5;-0.254395;0.023926;0.969727;-0.7;-0.98;0.77;320.0;-0.206041;-0.01061
3.82;8.5;8.0;5.25;4.5;0.75;0.25;0.25;0.25;2.75;0.75;1.0;0.5;0.25;0.5;0.25;0.5;-0.219238;0.016602;0.98584;-0.77;0.63;0.56;393.0;-0.218174;-0.008536;6.5;5.75;4.0;3.25;0.75;0.75;0.5;0.25;2.0;0.75;0.5;0.5;0.25;0.5;0.5;0.5;-0.254395;0.022461;0.975098;-0.84;-1.05;0.77;314.0;-0.198304;-0.010134
3.83;8.25;7.75;5.25;4.25;0.75;0.25;0.25;0.25;2.25;0.75;1.0;0.5;0.25;0.25;0.25;0.5;-0.223633;0.012207;0.986816;-0.56;0.56;0.56;375.0;-0.227842;-0.013179;6.5;5.75;3.75;3.0;0.75;0.5;0.5;0.25;2.0;0.75;0.75;0.5;0.25;0.75;0.5;0.75;-0.251465;0.027344;0.973633;-0.7;-0.98;0.7;312.0;-0.186124;-0.007545
3.84;8.25;7.75;5.25;4.5;0.75;0.75;0.25;0.25;2.75;0.75;1.0;0.5;0.25;0.5;0.0;0.25;-0.217285;0.017578;0.981934;-0.63;0.63;0.42;389.0;-0.221346;-0.010706;6.5;5.5;3.75;3.5;1.0;1.0;0.5;0.25;2.0;0.75;0.75;0.5;0.25;0.75;0.5;0.5;-0.254883;0.030273;0.973145;-0.77;-1.12;0.77;322.0;-0.187527;-0.013195
3.85;8.5;7.75;5.25;4.25;0.75;0.5;0.25;0.25;2.75;0.75;0.75;0.25;0.25;0.75;0.25;0.25;-0.219727;0.018066;0.986328;-0.56;0.49;0.56;385.0;-0.220741;-0.002624;6.0;5.5;4.0;3.5;0.75;1.0;0.5;0.25;1.75;0.75;0.75;0.5;0.25;0.25;0.5;0.5;-0.249512;0.026367;0.976562;-0.77;-1.05;0.84;309.0;-0.199118;-0.021349
3.86;8.25;7.75;5.25;4.25;0.75;0.25;0.25;0.25;2.75;0.75;0.75;0.25;0.25;1.0;0.25;0.5;-0.225098;0.02002;0.989746;-0.63;0.56;0.56;383.0;-0.213847;-0.00146;6.0;6.0;3.75;3.5;0.75;1.0;0.5;0.25;2.0;0.75;0.75;0.5;0.25;0.25;0.5;0.5;-0.24707;0.027832;0.967773;-0.7;-0.91;0.7;314.0;-0.196779;-0.02138
3.87;8.25;7.75;5.5;4.5;1.0;0.5;0.25;0.25;2.75;0.75;1.0;0.5;0.25;0.75;0.0;0.5;-0.222656;0.013184;0.990234;-0.7;0.7;0.56;396.0;-0.215586;-0.00745;6.25;6.25;3.75;3.5;0.75;1.0;0.5;0.25;2.0;0.75;0.75;0.5;0.25;0.25;0.25;0.5;-0.251465;0.027832;0.977051;-0.77;-1.05;0.84;317.0;-0.205844;-0.020818
3.88;8.25;7.75;5.25;4.5;0.75;0.5;0.25;0.25;2.75;0.5;0.75;0.5;0.25;1.0;0.25;0.25;-0.220703;0.010742;0.990234;-0.84;0.7;0.49;388.0;-0.216324;-0.006741;6.5;5.5;3.75;3.5;0.75;1.0;0.5;0.25;2.0;1.0;0.75;0.5;0.25;0.5;0.25;0.75;-0.249512;0.026855;0.974121;-0.84;-0.98;0.84;319.0;-0.191475;-0.015377
3.89;8.25;7.75;5.25;4.25;0.75;0.25;0.25;0.25;2.75;0.5;0.75;0.5;0.25;0.75;0.25;0.25;-0.22168;0.009766;0.983887;-0.63;0.56;0.56;380.0;-0.220108;-0.004061;6.5;5.75;3.75;3.5;0.75;1.0;0.5;0.25;2.25;0.75;0.75;0.5;0.25;0.5;0.5;0.5;-0.253418;0.025879;0.974609;-0.7;-0.98;0.77;323.0;-0.18929;-0.01327
3.9;8.25;7.75;5.25;4.25;0.75;0.25;0.25;0.0;2.75;0.75;1.0;0.5;0.25;0.75;0.25;0.25;-0.216797;0.014648;0.989746;-0.7;0.63;0.63;381.0;-0.215598;-0.00016;7.25;5.75;4.0;3.5;0.5;1.0;0.5;0.25;2.25;1.0;0.75;0.5;0.25;0.5;0.25;0.5;-0.25293;0.020996;0.97168;-0.84;-0.91;0.77;332.0;-0.19752;-0.008621
3.91;8.0;7.75;5.0;4.5;0.5;0.25;0.25;0.0;2.75;0.75;1.0;0.5;0.25;0.75;0.25;0.25;-0.222168;0.009277;0.991211;-0.7;0.56;0.56;375.0;-0.215075;-0.003995;6.5;5.75;4.0;3.25;0.75;1.0;0.5;0.25;2.0;0.75;0.5;0.5;0.25;0.5;0.25;0.5;-0.252441;0.027344;0.969727;-0.77;-0.91;0.77;314.0;-0.203399;-0.011965
3.92;8.25;7.75;5.25;4.75;0.5;0.5;0.25;0.25;2.5;0.5;1.0;0.5;0.25;0.75;0.25;0.5;-0.220215;0.010742;0.986328;-0.56;0.56;0.56;386.0;-0.220252;-0.014655;6.25;5.5;3.75;3.0;0.75;1.0;0.5;0.25;2.25;0.75;0.5;0.5;0.25;0.75;0.5;0.5;-0.25293;0.026855;0.97168;-0.77;-0.91;0.77;311.0;-0.18294;-0.006701
3.93;8.5;7.25;5.25;4.5;0.75;0.5;0.25;0.25;2.5;0.75;1.0;0.5;0.25;0.75;0.25;0.5;-0.219238;0.018555;0.97998;-0.56;0.7;0.56;387.0;-0.214393;-0.008985;6.25;5.5;4.0;3.25;1.0;1.0;0.5;0.25;2.25;0.75;0.75;0.5;0.25;0.75;0.75;0.5;-0.24707;0.023438;0.976074;-0.7;-0.91;0.7;326.0;-0.175367;-0.008803
3.94;8.25;7.5;5.25;4.25;0.75;0.5;0.25;0.25;2.5;1.0;1.0;0.5;0.25;1.0;0.25;0.5;-0.223145;0.016113;0.985352;-0.63;0.56;0.56;389.0;-0.2067;-0.00755;6.0;5.5;4.0;3.25;1.0;0.75;0.5;0.25;2.0;0.75;0.5;0.25;0.25;0.75;0.5;0.5;-0.253906;0.025879;0.973633;-0.63;-0.84;0.77;308.0;-0.191249;-0.00626
3.95;8.0;7.5;5.25;4.25;0.75;0.5;0.25;0.25;2.5;0.75;1.25;0.5;0.25;1.25;0.25;0.5;-0.221191;0.009277;0.985352;-0.63;0.56;0.63;388.0;-0.201654;-0.008611;6.0;5.5;3.75;3.0;0.5;0.5;0.5;0.25;2.0;0.75;0.75;0.25;0.25;0.5;0.5;0.5;-0.256836;0.023926;0.969238;-0.7;-0.98;0.77;294.0;-0.191949;-0.006223
3.96;8.0;7.75;5.25;4.5;0.75;0.5;0.25;0.25;2.75;0.5;1.0;0.5;0.25;1.0;0.0;0.5;-0.218262;0.018555;0.990723;-0.56;0.49;0.63;387.0;-0.214101;-0.009011;6.0;5.75;3.75;3.5;0.75;1.0;0.5;0.25;2.0;0.75;0.75;0.25;0.25;0.75;0.5;0.5;-0.256836;0.024902;0.970703;-0.7;-0.84;0.77;313.0;-0.189715;-0.014744
3.97;8.25;7.75;5.25;4.75;0.75;0.5;0.25;0.25;2.5;0.5;1.0;0.5;0.25;1.0;0.25;0.5;-0.220215;0.012207;0.990723;-0.56;0.56;0.56;392.0;-0.215775;-0.012933;6.0;5.5;3.75;3.25;1.0;1.0;0.5;0.25;2.0;0.75;0.75;0.5;0.5;0.75;0.5;0.5;-0.254395;0.025879;0.979004;-0.63;-0.98;0.77;316.0;-0.180059;-0.016712
3.98;8.25;7.75;5.25;4.75;0.75;0.5;0.25;0.25;2.75;0.75;0.75;0.75;0.25;0.75;0.25;0.5;-0.21875;0.013184;0.987793;-0.77;0.63;0.56;396.0;-0.212019;-0.01222;6.0;5.5;3.75;3.0;1.0;1.0;0.5;0.25;2.25;0.75;0.5;0.5;0.25;0.5;0.5;0.5;-0.257324;0.024902;0.973145;-0.7;-0.91;0.77;309.0;-0.184835;-0.008482
3.99;8.0;7.75;5.25;4.75;0.75;0.5;0.25;0.25;2.75;0.75;1.0;0.75;0.25;1.0;0.25;0.5;-0.221191;0.008301;0.991211;-0.7;0.63;0.56;398.0;-0.203875;-0.012717;6.0;5.5;3.75;3.0;1.0;1.0;0.5;0.25;2.25;0.75;0.5;0.5;0.25;0.5;0.5;0.5;-0.254395;0.020508;0.978027;-0.77;-0.91;0.77;309.0;-0.184835;-0.008482
4.0;8.25;7.5;5.0;4.25;0.75;0.5;0.25;0.25;2.75;0.75;1.0;0.5;0.25;1.0;0.25;0.5;-0.220703;0.015137;0.989258;-0.56;0.49;0.63;387.0;-0.20524;-0.006231;6.5;5.5;3.75;3.25;1.0;1.0;0.5;0.25;2.5;0.75;0.5;0.5;0.25;0.75;0.75;0.5;-0.251953;0.021484;0.970215;-0.7;-0.91;0.77;327.0;-0.175286;-0.004662
4.01;8.25;7.5;5.0;4.5;0.75;0.5;0.25;0.25;2.75;1.0;1.0;0.5;0.25;1.0;0.25;0.25;-0.220215;0.01416;0.98584;-0.63;0.63;0.56;391.0;-0.204774;-0.006234;6.5;5.25;3.75;3.25;0.75;1.25;0.5;0.25;2.0;0.75;0.75;0.5;0.25;0.5;0.75;0.75;-0.254395;0.027832;0.96875;-0.63;-0.91;0.77;319.0;-0.181508;-0.016525
4.02;7.75;7.5;5.25;4.5;0.75;0.5;0.25;0.25;2.75;1.0;1.25;0.75;0.25;1.0;0.25;0.5;-0.220703;0.01123;0.98877;-0.56;0.56;0.56;396.0;-0.19416;-0.011197;6.0;5.25;3.75;3.25;0.75;1.0;0.5;0.5;2.0;0.75;1.0;0.5;0.25;0.5;0.75;0.75;-0.254395;0.022949;0.973145;-0.7;-0.98;0.77;317.0;-0.171937;-0.022176
4.03;8.25;7.75;5.25;4.25;0.75;0.5;0.25;0.25;2.75;1.0;1.25;0.25;0.25;1.0;0.25;0.5;-0.219238;0.014648;0.989746;-0.56;0.56;0.49;395.0;-0.203746;-0.004691;6.0;5.5;3.75;3.25;0.75;1.0;0.5;0.5;2.0;1.0;0.75;0.5;0.25;0.75;0.5;0.5;-0.251953;0.017578;0.974609;-0.63;-0.91;0.77;318.0;-0.177208;-0.018346
4.04;8.25;7.5;5.25;4.25;0.75;0.25;0.25;0.25;2.75;0.75;1.25;0.25;0.25;1.25;0.25;0.5;-0.220703;0.012207;0.98584;-0.56;0.63;0.56;389.0;-0.202329;-0.001007;6.0;5.25;3.75;3.25;0.75;0.75;0.5;0.5;2.25;0.75;0.75;0.5;0.25;0.75;0.5;0.5;-0.254395;0.025391;0.973633;-0.7;-0.98;0.77;313.0;-0.174357;-0.012141
4.05;8.25;7.5;5.0;4.25;0.75;0.5;0.25;0.25;2.75;0.5;1.25;0.5;0.25;1.0;0.25;0.5;-0.218262;0.01123;0.98877;-0.77;0.77;0.56;387.0;-0.205326;-0.007558;6.0;5.25;3.75;3.25;0.75;0.5;0.5;0.25;2.25;0.75;0.75;0.5;0.25;0.75;0.5;0.5;-0.255859;0.022461;0.977051;-0.7;-0.91;0.77;306.0;-0.176777;-0.004439
4.06;8.25;7.75;5.25;4.5;0.75;0.5;0.25;0.25;2.75;0.75;1.0;0.5;0.5;1.25;0.25;0.5;-0.220703;0.008789;0.986328;-0.56;0.63;0.56;400.0;-0.201856;-0.009763;5.75;5.25;3.75;3.25;0.75;0.75;0.5;0.25;2.25;1.0;0.75;0.5;0.5;0.75;0.5;0.5;-0.251953;0.029785;0.969238;-0.7;-0.91;0.77;311.0;-0.168055;-0.010868
4.07;8.25;7.5;5.25;4.5;0.75;0.5;0.25;0.25;2.5;1.0;1.0;0.5;0.25;1.25;0.25;0.25;-0.218262;0.012207;0.984863;-0.63;0.56;0.56;393.0;-0.205796;-0.006959;6.0;5.5;3.75;3.25;0.75;1.0;0.5;0.25;2.25;0.75;0.75;0.5;0.25;0.75;0.5;0.5;-0.253418;0.027344;0.97168;-0.63;-0.91;0.77;314.0;-0.178235;-0.010815
4.08;8.25;7.5;5.25;4.5;0.75;0.5;0.25;0.25;2.5;0.75;1.0;0.5;0.25;1.25;0.25;0.25;-0.223633;0.016113;0.987793;-0.63;0.63;0.56;390.0;-0.209048;-0.007476;6.0;5.5;3.75;3.0;0.75;1.0;0.5;0.25;2.25;0.5;0.75;0.5;0.25;0.75;0.75;0.5;-0.254395;0.029297;0.970703;-0.7;-0.91;0.7;311.0;-0.175612;-0.010092
4.09;8.25;7.5;5.25;4.75;0.75;0.5;0.25;0.25;2.75;0.75;1.0;0.5;0.25;1.25;0.25;0.25;-0.216797;0.014648;0.992188;-0.56;0.56;0.56;397.0;-0.205444;-0.006578;6.0;5.5;3.75;3.0;0.75;0.75;0.5;0.25;2.5;0.5;0.75;0.5;0.25;0.5;0.5;0.5;-0.257324;0.020508;0.96875;-0.63;-0.98;0.77;307.0;-0.180702;-0.004978
