Time;left pressure 1[N/cm²];left pressure 2[N/cm²];left pressure 3[N/cm²];left pressure 4[N/cm²];left pressure 5[N/cm²];left pressure 6[N/cm²];left pressure 7[N/cm²];left pressure 8[N/cm²];left pressure 9[N/cm²];left pressure 10[N/cm²];left pressure 11[N/cm²];left pressure 12[N/cm²];left pressure 13[N/cm²];left pressure 14[N/cm²];left pressure 15[N/cm²];left pressure 16[N/cm²];left acceleration X[g];left acceleration Y[g];left acceleration Z[g];left angular X[dps];left angular Y[dps];left angular Z[dps];left total force[N];left center of pressure X[-0.5...+0.5];left center of pressure Y[-0.5...+0.5];right pressure 1[N/cm²];right pressure 2[N/cm²];right pressure 3[N/cm²];right pressure 4[N/cm²];right pressure 5[N/cm²];right pressure 6[N/cm²];right pressure 7[N/cm²];right pressure 8[N/cm²];right pressure 9[N/cm²];right pressure 10[N/cm²];right pressure 11[N/cm²];right pressure 12[N/cm²];right pressure 13[N/cm²];right pressure 14[N/cm²];right pressure 15[N/cm²];right pressure 16[N/cm²];right acceleration X[g];right acceleration Y[g];right acceleration Z[g];right angular X[dps];right angular Y[dps];right angular Z[dps];right total force[N];right center of pressure X[-0.5...+0.5];right center of pressure Y[-0.5...+0.5]
0.0;2.25;2.25;2.5;3.0;1.0;1.25;0.0;1.0;2.0;2.5;4.0;4.75;3.5;8.0;0.25;2.25;-0.236328;0.060059;0.966797;-2.38;-0.14;-0.35;337.0;0.082706;-0.078728;0.0;0.75;0.5;0.75;0.25;0.75;0.0;0.75;1.0;2.5;4.5;3.5;3.0;4.25;0.75;2.25;-0.239746;0.011719;0.972656;-0.77;-1.61;1.05;209.0;0.187172;-0.121815
0.01;2.25;2.25;1.75;2.75;1.25;1.25;0.0;0.75;1.5;2.75;4.0;5.25;3.5;8.0;0.25;2.25;-0.239258;0.057617;0.964355;-2.31;-0.21;-0.42;328.0;0.092026;-0.085145;0.0;0.75;0.5;0.75;0.25;0.75;0.0;0.75;1.0;2.5;4.5;3.5;3.0;4.25;0.75;2.25;-0.239746;0.011719;0.972656;-0.77;-1.61;1.05;209.0;0.187172;-0.121815
0.02;2.25;2.25;2.5;2.75;1.25;1.25;0.0;1.0;1.5;2.75;4.0;5.0;3.25;8.0;0.5;2.25;-0.24707;0.05127;0.970215;-2.24;-0.21;-0.35;337.0;0.084491;-0.080956;0.0;0.75;0.5;0.75;0.25;0.75;0.0;0.75;1.0;2.5;4.5;3.5;3.0;4.25;0.75;2.25;-0.239746;0.011719;0.972656;-0.77;-1.61;1.05;209.0;0.187172;-0.121815
0.03;1.5;2.25;2.5;3.25;1.25;1.25;0.0;1.0;0.75;3.0;4.0;5.0;3.5;8.25;0.5;2.25;-0.235352;0.052246;0.961426;-2.24;-0.28;-0.35;332.0;0.087902;-0.095199;0.0;0.75;0.5;0.75;0.25;0.75;0.0;0.75;1.0;2.5;4.5;3.5;3.0;4.25;0.75;2.25;-0.239746;0.011719;0.972656;-0.77;-1.61;1.05;209.0;0.187172;-0.121815
0.04;2.0;2.25;2.5;3.0;1.25;1.25;0.0;1.0;0.5;2.5;3.75;5.0;3.5;8.25;0.25;2.25;-0.243652;0.049316;0.963867;-2.1;-0.0;-0.28;323.0;0.077365;-0.096768;0.0;0.75;0.5;0.75;0.25;0.75;0.0;0.75;1.0;2.5;4.5;3.5;3.0;4.25;0.75;2.25;-0.239746;0.011719;0.972656;-0.77;-1.61;1.05;209.0;0.187172;-0.121815
0.05;2.0;3.0;2.75;3.75;1.25;1.5;0.0;1.0;0.75;2.5;3.75;4.75;3.5;8.25;0.25;2.0;-0.241211;0.062012;0.966309;-2.17;-0.0;-0.42;340.0;0.057311;-0.095427;0.0;0.25;0.0;0.75;0.25;0.5;0.0;1.0;1.25;2.5;4.0;3.5;3.0;3.75;0.75;1.75;-0.24707;0.008789;0.974609;-0.91;-1.61;0.98;193.0;0.20471;-0.126489
0.06;2.0;3.0;2.75;3.75;1.5;1.5;0.0;0.75;0.75;2.0;3.75;4.25;3.5;8.0;0.25;2.0;-0.238281;0.081543;0.961426;-1.89;-0.14;-0.21;328.0;0.050308;-0.092368;0.25;0.25;0.0;0.5;0.25;0.5;0.0;1.0;1.0;2.0;4.0;3.75;2.75;3.5;0.75;2.0;-0.242676;0.012207;0.975586;-0.84;-1.61;1.12;186.0;0.201426;-0.13567
0.07;2.0;2.75;2.75;3.75;1.0;1.5;0.0;1.0;0.75;1.75;4.0;4.25;3.75;8.25;0.0;2.0;-0.242188;0.056641;0.967773;-2.1;-0.14;-0.21;326.0;0.055072;-0.098882;0.0;0.25;0.5;0.5;0.25;0.25;0.0;0.75;1.25;2.0;4.0;3.5;2.5;4.0;0.75;1.5;-0.239258;0.01709;0.974609;-0.91;-1.68;1.12;183.0;0.207994;-0.106975
0.08;2.25;2.75;2.75;3.75;1.0;2.0;0.0;1.0;1.0;2.0;3.75;4.75;3.25;8.25;0.0;2.0;-0.234863;0.052246;0.958496;-2.1;-0.21;-0.14;336.0;0.051795;-0.09432;0.0;0.25;0.25;0.5;0.25;0.25;0.0;0.5;1.0;2.25;3.75;3.25;2.5;4.0;0.75;1.5;-0.248047;0.008789;0.972168;-0.98;-1.54;1.05;173.0;0.217894;-0.105757
0.09;2.25;3.0;3.0;4.0;1.25;2.0;0.0;1.25;1.25;2.0;4.0;5.0;3.25;8.0;0.25;2.25;-0.23584;0.053711;0.963867;-2.03;-0.21;-0.14;357.0;0.048294;-0.096533;0.0;0.25;0.25;0.75;0.0;0.25;0.0;0.5;0.75;2.25;3.75;3.25;2.75;3.5;0.25;1.5;-0.241211;0.009277;0.97998;-0.91;-1.47;1.12;164.0;0.205026;-0.126971
0.1;2.5;3.0;3.5;4.75;1.25;2.5;0.0;1.0;1.25;2.0;3.75;4.75;3.5;8.0;0.5;2.25;-0.240723;0.05957;0.961914;-1.89;-0.21;-0.21;372.0;0.03431;-0.095434;0.0;0.0;0.0;0.5;0.0;0.25;0.0;0.25;0.75;2.0;3.75;2.75;2.5;3.5;0.0;1.75;-0.242188;0.01123;0.974609;-0.98;-1.4;1.05;144.0;0.231502;-0.118197
0.11;3.0;3.25;3.5;5.0;1.25;2.0;0.0;1.0;1.25;2.25;3.75;4.75;3.5;8.25;0.25;2.0;-0.242676;0.054199;0.966309;-2.03;-0.07;-0.28;376.0;0.027069;-0.089281;0.0;0.0;0.0;0.5;0.0;0.25;0.0;0.25;0.75;2.0;3.75;3.25;2.0;3.25;0.5;1.25;-0.243652;0.006348;0.975586;-0.91;-1.4;0.98;145.0;0.233432;-0.114382
0.12;2.75;3.75;2.5;5.25;1.25;2.0;0.0;1.25;1.25;2.0;3.75;5.0;3.5;8.25;0.0;2.0;-0.236816;0.056152;0.968262;-2.03;-0.14;-0.21;372.0;0.027618;-0.101299;0.0;0.25;0.25;0.0;0.0;0.25;0.0;0.5;0.75;2.0;3.75;3.25;2.0;3.25;0.75;1.25;-0.243652;0.015625;0.97998;-1.12;-1.26;1.05;151.0;0.230642;-0.113897
0.13;2.75;3.75;3.25;5.0;1.25;2.0;0.0;1.0;1.25;1.75;3.75;4.75;3.5;8.0;0.0;2.0;-0.237305;0.058105;0.965332;-1.82;-0.21;-0.21;367.0;0.020116;-0.095548;0.25;0.0;0.0;0.25;0.25;0.0;0.0;0.5;0.75;1.75;3.75;3.25;2.5;3.25;0.25;1.25;-0.246582;0.007324;0.976562;-0.98;-1.05;1.05;148.0;0.222979;-0.121918
0.14;2.75;3.75;3.25;5.0;1.5;2.5;0.0;0.75;1.5;2.75;4.5;4.75;4.0;8.0;0.0;2.25;-0.237793;0.062988;0.958984;-1.82;-0.0;-0.21;394.0;0.029869;-0.092582;0.0;0.25;0.0;0.0;0.0;0.0;0.0;0.25;0.75;1.75;3.5;3.0;1.25;2.75;0.0;1.25;-0.240234;0.009766;0.974609;-1.19;-1.19;1.05;120.0;0.241828;-0.101868
0.15;2.5;3.5;3.25;5.25;1.5;2.0;0.0;1.0;1.25;2.5;3.25;4.75;3.5;8.25;0.0;2.0;-0.235352;0.05957;0.961914;-1.68;-0.28;-0.14;372.0;0.02538;-0.091847;0.0;0.25;0.0;0.0;0.0;0.0;0.0;0.25;1.0;1.5;3.25;2.75;1.0;2.75;0.25;1.25;-0.253418;0.010254;0.975586;-1.12;-1.26;1.05;117.0;0.247418;-0.086208
0.16;2.75;4.0;3.5;5.5;1.25;2.0;0.0;1.0;1.25;2.75;4.5;5.0;3.75;8.0;0.25;2.0;-0.240234;0.062988;0.97168;-1.75;-0.35;-0.14;398.0;0.024892;-0.095869;0.0;0.0;0.0;0.0;0.0;0.25;0.0;0.25;1.0;1.5;2.5;2.75;1.0;2.75;0.0;0.75;-0.246094;0.010254;0.970215;-1.05;-1.26;0.98;106.0;0.246445;-0.0821
0.17;2.75;4.0;4.0;5.5;1.5;2.5;0.0;1.25;1.5;2.75;4.5;5.0;3.75;7.75;0.25;1.75;-0.238281;0.054199;0.969238;-1.54;-0.14;-0.07;412.0;0.017442;-0.095254;0.0;0.0;0.0;0.0;0.0;0.25;0.0;0.25;0.5;1.5;2.5;2.25;0.75;2.25;0.25;0.5;-0.242188;0.005371;0.973633;-0.91;-1.05;0.98;92.0;0.245285;-0.092733
0.18;3.0;4.0;4.25;5.5;1.75;2.5;0.0;1.5;0.5;2.25;5.0;5.0;3.5;8.0;0.0;2.0;-0.237793;0.056641;0.961426;-1.54;-0.14;-0.07;410.0;0.005958;-0.104175;0.0;0.0;0.0;0.0;0.25;0.25;0.0;0.25;0.5;0.5;2.25;1.75;0.75;2.75;0.5;1.0;-0.247559;0.005371;0.975098;-0.98;-0.91;0.77;87.0;0.252453;-0.087874
0.19;3.0;4.0;4.0;5.75;1.25;2.75;0.0;1.25;0.5;2.5;4.75;5.0;4.25;7.75;0.0;2.0;-0.226562;0.05127;0.966797;-1.33;-0.14;-0.07;408.0;0.00709;-0.11162;0.0;0.0;0.25;0.0;0.0;0.25;0.0;0.0;0.5;0.5;2.0;1.75;1.0;2.25;0.25;0.75;-0.244141;0.010742;0.974121;-0.98;-0.98;0.77;77.0;0.244133;-0.091691
0.2;3.5;4.25;4.0;6.0;1.5;2.75;0.0;1.25;1.0;2.25;4.0;5.25;4.25;7.75;0.0;2.25;-0.237793;0.056641;0.969238;-1.4;-0.14;0.0;419.0;-0.000793;-0.106588;0.0;0.0;0.0;0.0;0.0;0.25;0.0;0.0;0.25;1.0;1.75;1.75;0.75;2.0;0.0;0.75;-0.240234;0.018066;0.966309;-0.98;-0.91;0.91;68.0;0.253762;-0.099348
0.21;3.25;4.5;4.25;6.5;1.25;2.75;0.0;1.25;1.0;3.25;4.75;5.0;4.25;7.75;0.25;2.25;-0.236816;0.053711;0.966309;-1.47;-0.21;0.0;439.0;0.004805;-0.104671;0.0;0.0;0.0;0.0;0.0;0.0;0.0;0.0;0.25;0.75;2.0;1.75;0.5;2.0;0.0;0.5;-0.247559;0.01709;0.978027;-1.26;-0.98;0.77;63.0;0.268535;-0.084751
0.22;3.0;4.25;4.75;6.5;1.75;2.5;0.0;1.25;0.75;2.75;3.75;4.75;4.25;7.75;0.25;2.25;-0.231445;0.052246;0.966797;-1.54;-0.14;-0.14;424.0;-0.004422;-0.103595;0.0;0.0;0.0;0.0;0.0;0.0;0.0;0.0;0.0;0.5;2.0;1.75;0.75;2.0;0.0;0.5;-0.243164;0.015137;0.972656;-1.12;-1.05;0.7;60.0;0.26708;-0.118327
0.23;3.0;4.5;4.75;6.75;1.75;2.75;0.0;1.25;0.5;2.25;3.75;4.75;4.25;7.75;0.0;2.25;-0.237305;0.049805;0.966309;-1.4;-0.42;-0.07;421.0;-0.015044;-0.109759;0.0;0.0;0.0;0.0;0.0;0.0;0.0;0.0;0.0;0.75;1.25;0.75;0.5;1.5;0.0;0.75;-0.242188;0.01709;0.972168;-1.54;-0.98;0.63;42.0;0.0;0.0
0.24;3.5;5.25;4.75;6.75;1.5;3.0;0.0;1.5;0.75;2.0;3.5;5.5;4.0;7.75;0.0;2.0;-0.24707;0.068848;0.975586;-1.68;-0.63;-0.07;436.0;-0.023481;-0.111371;0.0;0.0;0.0;0.0;0.0;0.0;0.0;0.25;0.0;1.0;1.25;0.75;0.5;1.5;0.25;0.5;-0.244629;0.011719;0.968262;-1.89;-0.98;0.56;48.0;0.0;0.0
0.25;3.75;5.25;5.0;6.75;1.75;3.25;0.0;1.5;0.75;2.0;3.75;5.5;4.0;7.75;0.25;2.0;-0.232422;0.056641;0.959961;-1.54;-0.42;0.0;450.0;-0.024399;-0.109082;0.0;0.0;0.0;0.0;0.0;0.0;0.0;0.0;0.0;1.0;1.25;1.25;0.75;1.0;0.25;0.25;-0.239258;0.012695;0.973145;-2.17;-0.98;0.49;47.0;0.0;0.0
0.26;4.0;5.25;5.0;7.0;1.5;3.5;0.0;1.5;0.75;2.25;4.5;5.25;4.25;7.25;0.0;2.5;-0.23584;0.056152;0.959961;-1.4;-0.42;-0.07;459.0;-0.026709;-0.113475;0.0;0.0;0.0;0.0;0.0;0.0;0.0;0.0;0.0;0.5;1.5;0.75;0.5;0.75;0.0;0.25;-0.246582;0.01123;0.977539;-2.38;-0.98;0.35;34.0;0.0;0.0
0.27;3.75;5.75;5.5;7.75;1.75;3.75;0.0;1.5;1.0;1.25;3.75;5.25;4.25;7.25;0.0;2.5;-0.235352;0.054688;0.964355;-1.33;-0.42;-0.14;464.0;-0.042473;-0.11548;0.0;0.0;0.0;0.0;0.0;0.0;0.0;0.0;0.25;0.5;0.75;0.5;0.5;0.25;0.0;0.25;-0.224121;0.027832;0.966797;-2.59;-0.7;0.07;25.0;0.0;0.0
0.28;5.25;5.75;5.5;7.75;1.75;3.5;0.0;1.5;1.25;2.75;4.0;5.0;4.25;7.25;0.25;2.5;-0.239746;0.039551;0.944824;-1.12;-0.21;0.07;493.0;-0.040227;-0.100973;0.0;0.0;0.0;0.0;0.0;0.0;0.0;0.0;0.0;0.5;0.75;0.75;0.25;0.25;0.0;0.25;-0.255371;0.002441;0.973145;-3.22;-0.84;-0.0;22.0;0.0;0.0
0.29;5.5;5.75;5.5;7.75;1.75;3.75;0.0;1.5;1.25;2.5;4.0;5.25;4.25;7.0;0.25;2.25;-0.243652;0.059082;0.961914;-1.12;-0.14;0.0;495.0;-0.045026;-0.102955;0.0;0.0;0.0;0.0;0.0;0.0;0.0;0.0;0.0;0.25;0.75;0.5;0.25;0.75;0.0;0.25;-0.244629;0.01709;0.977539;-3.85;-0.49;-0.14;22.0;0.0;0.0
0.3;5.0;5.75;5.5;8.0;2.0;4.25;0.0;1.5;1.5;3.25;4.0;4.75;4.25;7.25;0.25;2.75;-0.23877;0.054688;0.963379;-1.05;-0.14;0.07;508.0;-0.037861;-0.100202;0.0;0.0;0.0;0.0;0.0;0.0;0.0;0.0;0.0;0.5;0.75;0.5;0.25;0.25;0.0;0.25;-0.248047;0.0;0.985352;-4.69;-0.21;-0.14;20.0;0.0;0.0
0.31;5.0;6.25;5.5;8.25;2.0;4.25;0.0;1.5;0.75;3.0;4.0;5.0;4.25;7.25;0.25;2.5;-0.238281;0.06543;0.969238;-1.12;-0.35;-0.14;505.0;-0.047691;-0.108439;0.0;0.0;0.0;0.0;0.0;0.0;0.0;0.0;0.0;0.25;0.5;0.25;0.5;0.25;0.0;0.25;-0.245117;0.00293;0.990234;-4.69;1.61;-0.28;15.0;0.0;0.0
0.32;5.5;6.25;6.0;8.25;2.25;4.5;0.0;1.5;0.5;2.25;4.5;5.0;4.25;7.25;0.25;2.25;-0.233398;0.060059;0.963867;-1.05;-0.14;0.07;513.0;-0.057359;-0.108615;0.0;0.0;0.0;0.0;0.0;0.0;0.0;0.0;0.0;0.25;0.25;0.25;0.25;0.25;0.0;0.0;-0.231445;0.015625;0.975098;-4.9;2.87;-0.49;10.0;0.0;0.0
0.33;5.5;6.25;5.75;8.25;2.0;4.5;0.0;1.5;1.0;2.5;4.5;5.25;4.25;7.0;0.5;2.25;-0.237793;0.051758;0.952637;-1.12;0.07;-0.07;518.0;-0.05006;-0.107162;0.0;0.0;0.0;0.0;0.0;0.0;0.0;0.0;0.0;0.0;0.25;0.25;0.0;0.25;0.0;0.0;-0.242188;0.006348;0.996094;-5.46;4.34;-1.89;6.0;0.0;0.0
0.34;5.5;6.25;5.75;8.25;1.75;4.5;0.0;1.5;0.25;2.5;4.5;5.5;4.5;7.0;0.25;1.75;-0.235352;0.061035;0.968262;-1.05;-0.14;-0.14;507.0;-0.056614;-0.115381;0.0;0.0;0.0;0.0;0.0;0.0;0.0;0.0;0.0;0.25;0.5;0.25;0.0;0.25;0.0;0.0;-0.21875;0.022461;0.988281;-5.11;5.53;-2.38;11.0;0.0;0.0
0.35;5.75;6.5;6.25;8.75;1.75;5.0;0.0;1.75;0.25;2.5;4.5;5.5;4.5;7.0;0.25;2.0;-0.233887;0.059082;0.967773;-1.19;0.14;-0.14;530.0;-0.062837;-0.117233;0.0;0.0;0.0;0.0;0.0;0.0;0.0;0.0;0.0;0.25;0.5;0.0;0.25;0.25;0.0;0.0;-0.216797;0.021484;0.992676;-1.47;7.7;-6.93;10.0;0.0;0.0
0.36;5.75;6.5;6.0;8.75;2.0;5.0;0.0;1.75;0.75;2.5;3.75;5.5;4.75;7.0;0.25;2.5;-0.237793;0.053711;0.960938;-1.26;0.14;-0.14;533.0;-0.059877;-0.11539;0.0;0.0;0.0;0.0;0.0;0.0;0.0;0.0;0.0;0.25;0.25;0.0;0.25;0.25;0.0;0.0;-0.201172;0.008301;1.013184;-0.07;7.42;-11.2;8.0;0.0;0.0
0.37;5.75;6.5;6.0;8.75;2.0;5.0;0.0;1.75;0.25;2.5;3.75;5.0;4.75;6.75;0.0;2.25;-0.234863;0.057617;0.966797;-0.98;0.07;-0.14;518.0;-0.070079;-0.118695;0.0;0.0;0.0;0.0;0.0;0.0;0.0;0.0;0.0;0.25;0.5;0.0;0.0;0.0;0.0;0.0;-0.213379;0.026855;1.016602;2.38;6.72;-16.799999;7.0;0.0;0.0
0.38;5.75;7.0;6.25;8.75;2.25;5.25;0.0;1.75;0.25;2.5;4.5;5.25;4.5;7.25;0.25;2.25;-0.229492;0.061035;0.967773;-1.19;0.21;-0.21;541.0;-0.064896;-0.115432;0.0;0.0;0.0;0.0;0.0;0.0;0.0;0.0;0.0;0.0;0.75;0.25;0.0;0.0;0.0;0.0;-0.189941;0.032715;1.023438;4.76;3.36;-21.07;9.0;0.0;0.0
0.39;5.75;7.0;6.25;9.75;2.25;5.25;0.25;1.75;0.75;2.75;5.0;5.5;4.75;7.0;0.25;2.25;-0.231934;0.063477;0.97168;-0.98;0.42;-0.21;568.0;-0.060846;-0.113478;0.0;0.0;0.0;0.0;0.0;0.0;0.0;0.0;0.0;0.0;0.5;0.0;0.0;0.0;0.0;0.0;-0.171875;-0.020996;1.01709;7.63;-1.68;-23.24;4.0;0.0;0.0
0.4;5.75;7.0;6.25;9.75;2.25;5.25;0.0;2.0;0.75;2.25;5.0;5.5;4.75;7.0;0.0;2.25;-0.23291;0.063965;0.97168;-1.12;0.42;-0.28;561.0;-0.065565;-0.11859;0.0;0.0;0.0;0.0;0.0;0.0;0.0;0.0;0.0;0.0;0.0;0.0;0.25;0.0;0.0;0.0;-0.080566;-0.03125;1.018555;10.08;-6.3;-24.360001;2.0;0.0;0.0
0.41;6.0;7.0;6.5;9.25;2.25;5.0;0.0;2.0;0.5;2.0;4.0;5.5;4.75;7.0;0.0;2.25;-0.237793;0.061523;0.956543;-0.91;0.28;-0.28;545.0;-0.073059;-0.118001;0.0;0.0;0.0;0.0;0.0;0.0;0.0;0.0;0.0;0.0;0.25;0.0;0.0;0.0;0.0;0.0;-0.069824;0.025879;1.22168;-1.33;-19.32;-18.549999;2.0;0.0;0.0
0.42;6.0;7.0;6.5;9.25;2.25;5.5;0.0;2.0;0.5;2.25;5.0;5.5;4.75;7.0;0.0;2.5;-0.236816;0.060547;0.969238;-1.19;0.56;-0.35;562.0;-0.066936;-0.118918;0.0;0.0;0.0;0.0;0.0;0.0;0.0;0.0;0.0;0.0;0.0;0.0;0.0;0.0;0.0;0.0;-0.073242;0.105469;1.060059;-5.11;-25.48;-13.3;0.0;0.0;0.0
0.43;6.0;7.0;6.5;9.75;2.25;5.5;0.0;2.25;0.5;2.0;5.0;5.5;4.75;7.0;0.25;2.5;-0.236328;0.063477;0.959961;-1.26;0.42;-0.42;570.0;-0.067738;-0.121851;0.0;0.0;0.0;0.0;0.0;0.0;0.0;0.0;0.0;0.0;0.0;0.0;0.0;0.0;0.0;0.0;-0.021973;0.127441;1.062988;-9.1;-26.950001;-10.08;0.0;0.0;0.0
0.44;6.0;6.5;6.5;9.75;2.25;5.5;0.0;2.0;0.25;2.0;4.5;5.5;4.75;7.0;0.25;2.5;-0.233398;0.062988;0.967285;-1.33;0.42;-0.42;555.0;-0.069553;-0.121999;0.0;0.0;0.0;0.0;0.0;0.0;0.0;0.0;0.0;0.0;0.0;0.0;0.0;0.0;0.0;0.0;0.004883;0.129395;0.976074;-8.54;-33.529999;-7.07;0.0;0.0;0.0
0.45;6.0;6.5;6.5;9.75;2.25;5.5;0.0;1.75;0.25;2.25;4.5;5.5;5.0;7.0;0.0;2.5;-0.233398;0.064453;0.966797;-1.47;0.63;-0.42;554.0;-0.06978;-0.121005;0.0;0.0;0.0;0.0;0.0;0.0;0.0;0.0;0.0;0.0;0.0;0.0;0.0;0.0;0.0;0.0;-0.020996;0.129883;0.913574;-7.42;-35.420002;-5.11;0.0;0.0;0.0
0.46;5.75;6.5;6.5;9.25;2.25;5.25;0.0;2.25;0.5;2.0;4.75;5.5;4.75;7.0;0.0;2.75;-0.233887;0.061035;0.970215;-1.54;0.7;-0.56;553.0;-0.064008;-0.121549;0.0;0.0;0.0;0.0;0.0;0.0;0.0;0.0;0.0;0.0;0.0;0.0;0.0;0.0;0.0;0.0;-0.043457;0.137207;0.87207;-3.71;-34.16;-4.55;0.0;0.0;0.0
0.47;5.75;6.25;6.25;9.25;2.0;5.25;0.0;2.0;0.75;2.25;4.75;5.5;4.75;7.0;0.25;2.75;-0.23584;0.057617;0.964844;-1.68;0.77;-0.63;551.0;-0.057272;-0.118631;0.0;0.0;0.0;0.0;0.0;0.0;0.0;0.0;0.0;0.0;0.0;0.0;0.0;0.0;0.0;0.0;-0.065918;0.156738;0.823242;5.95;-30.24;-4.62;0.0;0.0;0.0
0.48;5.75;6.25;6.25;9.25;2.25;5.0;0.0;2.0;0.75;2.5;5.0;5.5;4.75;7.0;0.25;2.5;-0.233398;0.0625;0.961914;-1.68;0.7;-0.56;554.0;-0.055738;-0.116121;0.0;0.0;0.0;0.0;0.0;0.0;0.0;0.0;0.0;0.0;0.0;0.0;0.25;0.0;0.0;0.0;-0.074219;0.164551;0.776367;13.16;-25.48;-3.78;2.0;0.0;0.0
0.49;6.0;6.25;6.25;9.25;2.0;5.0;0.0;2.0;0.75;2.75;4.0;5.5;4.75;7.0;0.25;2.5;-0.233398;0.05957;0.963379;-1.82;0.7;-0.63;547.0;-0.060154;-0.115263;0.0;0.0;0.0;0.0;0.0;0.0;0.0;0.0;0.0;0.0;0.0;0.0;0.0;0.0;0.0;0.0;-0.087891;0.176758;0.669434;18.690001;-16.379999;-1.68;0.0;0.0;0.0
0.5;5.75;6.25;6.25;8.75;2.0;5.25;0.0;2.0;1.0;2.5;5.0;5.5;4.75;7.0;0.5;2.75;-0.233887;0.062012;0.962402;-1.82;0.7;-0.63;556.0;-0.049686;-0.114945;0.0;0.0;0.0;0.0;0.0;0.0;0.0;0.0;0.0;0.0;0.0;0.0;0.0;0.0;0.0;0.0;-0.12207;0.196777;0.691895;23.799999;-3.15;2.17;0.0;0.0;0.0
0.51;5.75;6.25;6.0;8.75;2.25;5.0;0.0;1.75;0.5;1.75;4.75;5.5;4.75;7.0;0.5;2.25;-0.233398;0.058594;0.965332;-1.96;0.91;-0.63;534.0;-0.058438;-0.118085;0.0;0.0;0.0;0.0;0.0;0.0;0.0;0.0;0.0;0.0;0.0;0.0;0.0;0.0;0.0;0.0;-0.080078;0.21582;0.864746;31.01;6.58;7.56;0.0;0.0;0.0
0.52;6.0;6.25;6.25;8.75;2.0;5.25;0.0;2.0;0.5;2.75;4.75;5.75;4.75;7.25;0.25;2.25;-0.233398;0.060547;0.959961;-1.89;0.77;-0.63;552.0;-0.055068;-0.116302;0.0;0.0;0.0;0.0;0.0;0.0;0.0;0.0;0.0;0.0;0.0;0.0;0.0;0.0;0.0;0.0;-0.493652;-0.744629;1.19873;-51.52;16.940001;-7.98;0.0;0.0;0.0
0.53;6.0;6.25;6.25;8.75;2.0;5.25;0.0;2.0;0.5;3.0;4.75;5.75;4.75;7.25;0.25;2.25;-0.22998;0.062988;0.963867;-2.1;0.98;-0.77;554.0;-0.053907;-0.115594;0.0;0.0;0.0;0.0;0.0;0.0;0.0;0.0;0.0;0.0;0.0;0.25;0.0;0.0;0.0;0.0;-0.774414;-0.395508;0.943848;-1.68;29.4;11.27;2.0;0.0;0.0
0.54;5.75;6.25;6.0;8.75;2.25;4.75;0.0;1.75;0.5;2.25;5.0;5.75;4.75;7.25;0.5;2.5;-0.230957;0.061035;0.962402;-2.1;1.05;-0.63;543.0;-0.050978;-0.116127;0.0;0.0;0.0;0.0;0.0;0.0;0.0;0.0;0.0;0.0;0.0;0.5;0.0;0.0;0.0;0.0;-0.952148;-0.459961;0.817383;0.21;32.200001;-12.53;4.0;0.0;0.0
0.55;5.75;6.25;6.25;8.25;2.0;4.75;0.0;1.75;0.75;2.25;5.0;5.5;4.75;7.25;0.75;3.0;-0.235352;0.061523;0.966309;-1.96;1.26;-0.56;543.0;-0.04549;-0.113074;0.0;0.0;0.0;0.0;0.0;0.0;0.0;0.0;0.0;0.25;0.25;0.0;0.0;0.0;0.0;0.0;-0.575195;-0.038574;0.836426;7.35;25.059999;-23.66;4.0;0.0;0.0
0.56;5.75;6.25;6.0;8.25;2.0;4.75;0.0;1.75;0.5;2.0;4.75;5.5;4.75;7.25;0.25;2.25;-0.241699;0.057617;0.963867;-2.03;1.26;-0.63;526.0;-0.054864;-0.115659;0.0;0.0;0.0;0.0;0.0;0.0;0.0;0.0;0.0;0.25;0.5;0.0;0.25;0.25;0.0;0.0;-0.253418;0.015625;0.973145;-1.19;18.76;-3.15;10.0;0.0;0.0
0.57;5.5;6.25;6.0;8.0;2.25;4.5;0.0;1.75;0.75;2.0;4.75;5.5;4.75;7.25;0.0;2.25;-0.239258;0.062012;0.965332;-2.03;1.26;-0.7;522.0;-0.052612;-0.112742;0.0;0.0;0.0;0.0;0.0;0.0;0.0;0.0;0.0;0.5;0.5;0.25;0.0;0.25;0.0;0.0;-0.226074;0.012207;1.029297;1.82;12.95;3.5;13.0;0.0;0.0
0.58;5.25;6.25;6.0;8.0;1.75;4.5;0.0;1.5;1.25;2.75;5.25;5.5;4.75;7.25;0.25;2.5;-0.234863;0.054199;0.964844;-2.1;1.26;-0.56;532.0;-0.038921;-0.10766;0.0;0.0;0.0;0.0;0.0;0.0;0.0;0.0;0.0;0.25;0.75;0.25;0.0;0.25;0.0;0.0;-0.232422;0.004883;1.006836;0.7;2.03;2.03;13.0;0.0;0.0
0.59;5.25;6.25;6.0;8.0;1.75;4.5;0.0;1.75;1.0;2.5;4.75;5.5;4.5;7.25;0.25;2.5;-0.23584;0.05957;0.963379;-2.31;1.33;-0.63;524.0;-0.044407;-0.110783;0.0;0.0;0.0;0.0;0.0;0.0;0.0;0.0;0.0;0.5;1.0;0.25;0.0;0.75;0.0;0.0;-0.233887;0.013672;0.988281;1.4;0.0;2.03;21.0;0.0;0.0
0.6;5.5;5.75;5.25;8.0;2.0;4.5;0.0;1.5;1.0;2.5;3.75;5.5;4.25;7.25;0.25;2.5;-0.228027;0.059082;0.962891;-2.31;1.54;-0.7;504.0;-0.046083;-0.108275;0.0;0.0;0.0;0.0;0.0;0.0;0.0;0.0;0.0;0.25;1.0;0.5;0.0;1.0;0.0;0.25;-0.242188;0.019531;0.980957;1.33;-0.14;1.75;24.0;0.0;0.0
0.61;5.25;6.25;5.25;7.75;2.0;3.75;0.0;1.5;1.25;3.5;4.0;5.5;4.75;7.25;0.25;2.5;-0.238281;0.058594;0.963379;-2.45;1.47;-0.77;514.0;-0.035696;-0.104516;0.0;0.0;0.0;0.0;0.0;0.0;0.0;0.0;0.25;0.25;0.75;0.25;0.25;1.25;0.0;0.25;-0.250488;0.012695;0.978027;0.98;-0.42;1.33;26.0;0.0;0.0
0.62;5.0;5.75;5.0;7.75;2.0;4.25;0.0;1.5;1.5;2.5;5.0;5.5;4.25;7.25;0.5;2.5;-0.245117;0.057129;0.967773;-2.45;1.61;-0.63;511.0;-0.029466;-0.105713;0.0;0.0;0.0;0.25;0.0;0.0;0.0;0.0;0.25;0.25;0.75;0.25;0.5;1.25;0.0;0.25;-0.250977;0.013672;0.977051;0.7;-0.35;1.05;30.0;0.0;0.0
0.63;5.0;5.25;5.0;7.0;2.0;3.5;0.0;1.5;0.5;2.0;5.0;5.25;4.25;7.25;0.25;2.75;-0.237305;0.058594;0.966309;-2.38;1.68;-0.77;475.0;-0.032092;-0.111138;0.0;0.0;0.0;0.0;0.0;0.0;0.0;0.0;0.25;0.5;1.0;1.0;0.25;1.5;0.25;0.5;-0.253906;0.004883;0.980957;0.21;-0.35;0.98;42.0;0.0;0.0
0.64;5.0;5.25;5.0;7.0;1.75;3.5;0.0;1.5;0.25;2.25;5.0;5.25;4.5;7.25;0.0;2.75;-0.23291;0.055664;0.958008;-2.38;1.82;-0.77;472.0;-0.033335;-0.114906;0.0;0.0;0.0;0.0;0.0;0.0;0.0;0.0;0.0;0.25;0.75;0.75;0.25;1.75;0.25;0.5;-0.241699;0.00293;0.972656;-0.07;-0.63;0.98;34.0;0.0;0.0
0.65;3.75;5.25;5.0;6.75;1.5;3.25;0.0;1.5;1.0;2.75;5.0;5.0;4.0;7.25;0.0;2.25;-0.240723;0.057617;0.960449;-2.31;1.75;-0.84;459.0;-0.019246;-0.106432;0.0;0.0;0.25;0.0;0.0;0.0;0.0;0.0;0.0;0.25;1.0;0.75;0.5;2.0;0.25;0.5;-0.244141;0.010742;0.97998;-0.14;-0.91;0.98;42.0;0.0;0.0
0.66;3.5;5.25;5.25;6.75;1.5;3.25;0.0;1.5;2.0;3.0;5.25;5.25;4.0;7.5;0.25;2.25;-0.234375;0.057617;0.965332;-2.24;1.82;-0.84;480.0;-0.005508;-0.096737;0.0;0.0;0.0;0.0;0.0;0.0;0.0;0.0;0.25;0.5;1.5;1.0;0.25;2.0;0.25;0.5;-0.240234;0.013184;0.976074;-0.21;-1.12;1.05;50.0;0.0;0.0
0.67;3.75;4.5;4.75;6.75;1.75;3.25;0.0;1.5;1.25;3.0;5.0;5.5;4.0;7.25;0.25;2.25;-0.234863;0.059082;0.960938;-2.24;1.89;-0.84;464.0;-0.006551;-0.104483;0.0;0.0;0.0;0.0;0.25;0.0;0.0;0.25;0.0;0.5;1.25;1.25;0.25;2.5;0.0;0.5;-0.244629;0.006836;0.968262;0.14;-1.26;1.12;54.0;0.260161;-0.06953
0.68;4.0;4.5;4.5;6.5;1.75;3.0;0.0;1.5;1.0;3.0;5.0;5.5;4.0;7.5;0.5;2.25;-0.238281;0.061035;0.965332;-2.17;1.75;-0.77;461.0;-0.002925;-0.104079;0.0;0.0;0.0;0.0;0.0;0.0;0.0;0.25;0.0;0.5;1.25;1.75;0.25;2.75;0.0;0.75;-0.241699;0.013184;0.96875;0.42;-1.4;1.12;59.0;0.277737;-0.088801
0.69;3.5;4.0;4.5;6.5;1.75;2.5;0.0;1.25;1.25;2.75;5.0;5.5;4.0;7.75;0.0;2.25;-0.23877;0.053223;0.95752;-2.03;1.82;-0.84;443.0;0.004165;-0.099388;0.0;0.25;0.0;0.25;0.0;0.0;0.0;0.0;0.25;1.0;1.5;1.0;0.0;2.25;0.0;0.75;-0.243164;0.00293;0.974609;0.28;-1.54;1.19;57.0;0.245223;-0.032864
0.7;3.25;4.0;4.0;6.0;1.5;2.75;0.0;1.25;1.25;2.75;5.0;5.5;4.0;7.75;0.0;2.0;-0.246094;0.056641;0.966309;-1.96;1.75;-0.84;430.0;0.01117;-0.102351;0.0;0.25;0.0;0.25;0.0;0.0;0.0;0.0;0.25;1.0;1.75;1.0;0.25;2.75;0.0;0.5;-0.240723;0.01416;0.974609;0.42;-1.68;1.33;64.0;0.249777;-0.031176
0.71;3.25;4.0;3.5;5.75;1.25;2.0;0.0;1.0;1.25;2.75;5.0;5.5;3.5;7.75;0.0;2.5;-0.23291;0.05957;0.964844;-2.03;1.54;-0.7;410.0;0.020202;-0.097643;0.0;0.25;0.0;0.25;0.0;0.25;0.0;0.25;0.25;1.25;1.75;1.75;0.5;3.0;0.25;0.5;-0.249023;0.01709;0.977051;0.42;-1.61;1.19;84.0;0.231207;-0.07618
0.72;3.25;4.0;4.0;6.0;1.5;2.0;0.0;1.5;0.75;3.75;5.0;5.0;3.5;7.75;0.25;2.75;-0.237305;0.058594;0.958496;-2.1;1.68;-0.84;427.0;0.016603;-0.099734;0.0;0.25;0.25;0.25;0.0;0.0;0.0;0.25;0.25;1.25;2.0;1.75;0.75;4.25;0.25;0.5;-0.238281;0.0;0.978027;0.42;-1.75;1.4;97.0;0.243764;-0.052296
0.73;3.0;3.75;4.0;5.75;1.75;2.0;0.0;1.0;0.75;2.75;4.5;5.25;3.75;7.75;0.0;2.75;-0.241211;0.060059;0.964844;-2.17;1.61;-0.84;406.0;0.0148;-0.100471;0.0;0.25;0.25;0.25;0.0;0.0;0.0;0.25;0.25;1.25;2.0;1.75;0.75;3.5;0.25;0.75;-0.235352;-0.003906;0.980469;0.35;-1.68;1.47;93.0;0.235374;-0.068872
0.74;3.0;4.0;4.0;5.5;1.5;2.0;0.0;1.0;1.75;2.75;5.25;5.5;3.5;7.75;0.5;2.25;-0.236328;0.058594;0.964844;-2.1;1.54;-0.7;423.0;0.02735;-0.089616;0.0;0.25;0.5;0.0;0.0;0.25;0.0;0.25;0.5;1.25;2.0;1.75;0.75;3.5;0.0;0.75;-0.245605;0.003418;0.970703;0.49;-1.68;1.54;95.0;0.223038;-0.05596
0.75;3.0;3.75;3.5;5.5;1.5;2.0;0.0;1.25;2.25;2.75;5.0;5.5;3.5;7.75;0.25;2.0;-0.240234;0.054199;0.960938;-2.03;1.54;-0.7;420.0;0.031382;-0.088086;0.0;0.5;0.5;0.25;0.0;0.25;0.0;0.5;0.75;1.25;2.25;2.25;0.25;3.5;0.0;1.0;-0.245605;0.007324;0.973633;0.42;-1.68;1.61;110.0;0.197773;-0.062883
0.76;3.0;3.0;3.5;5.25;1.5;1.5;0.0;1.0;1.75;3.5;4.75;5.5;3.5;7.75;0.25;2.0;-0.244141;0.05957;0.963867;-2.03;1.33;-0.7;403.0;0.041313;-0.084016;0.0;0.5;0.5;0.25;0.0;0.25;0.0;0.5;0.5;1.25;2.25;1.75;0.25;4.25;0.25;1.0;-0.244141;0.010254;0.974609;0.28;-1.75;1.68;110.0;0.210671;-0.050582
0.77;2.5;3.0;3.25;5.0;1.25;1.5;0.0;0.75;1.5;2.75;5.25;5.5;3.75;7.75;0.75;2.25;-0.236816;0.058594;0.964844;-2.17;1.54;-0.63;391.0;0.054345;-0.092479;0.0;0.0;0.5;0.25;0.25;0.25;0.0;0.25;0.5;1.25;2.5;2.25;0.75;4.25;0.0;1.0;-0.236328;0.010254;0.974121;0.35;-1.75;1.47;113.0;0.226369;-0.058322
0.78;2.5;3.25;3.25;5.0;1.25;2.0;0.0;1.0;2.0;3.25;5.0;5.25;3.75;7.75;0.25;2.5;-0.243652;0.060059;0.963867;-2.17;1.61;-0.7;403.0;0.0492;-0.090054;0.25;0.25;0.5;0.25;0.0;0.25;0.0;0.5;0.5;1.25;2.5;2.5;1.25;4.0;0.0;1.0;-0.238281;0.010742;0.980469;0.28;-1.75;1.54;123.0;0.200781;-0.087761
0.79;2.5;3.25;3.5;5.25;1.25;2.0;0.0;1.0;2.25;3.75;4.5;5.25;3.5;7.75;0.0;2.25;-0.23584;0.056641;0.961426;-2.03;1.4;-0.63;405.0;0.043631;-0.083108;0.0;0.5;0.5;0.5;0.0;0.25;0.0;0.5;0.5;0.75;2.5;2.75;1.0;3.75;0.25;1.25;-0.243652;0.007812;0.970703;0.35;-1.61;1.54;122.0;0.193884;-0.104505
0.8;3.25;3.0;3.25;5.25;1.25;2.0;0.0;1.0;1.75;3.25;4.5;5.0;3.5;7.5;0.25;2.25;-0.240723;0.055664;0.967285;-1.96;1.61;-0.63;395.0;0.034691;-0.087127;0.0;0.5;0.5;0.5;0.0;0.25;0.0;0.5;0.5;0.75;2.5;2.25;1.25;3.5;0.25;1.25;-0.239258;0.00293;0.974609;0.28;-1.4;1.61;118.0;0.189684;-0.107197
0.81;3.0;3.25;3.0;4.75;1.25;2.0;0.0;0.75;1.25;3.0;5.0;5.0;3.25;7.5;0.25;2.0;-0.241699;0.056152;0.961914;-1.96;1.68;-0.63;379.0;0.03724;-0.089439;0.25;0.25;0.5;0.5;0.0;0.25;0.0;0.5;0.75;1.0;2.5;2.5;1.0;3.25;0.5;1.25;-0.244141;0.006836;0.974121;0.28;-1.4;1.4;124.0;0.192383;-0.092828
0.82;2.5;3.25;3.0;5.0;1.25;1.5;0.0;0.75;1.25;2.75;5.0;5.25;3.5;7.5;0.0;2.25;-0.231934;0.061035;0.965332;-1.82;1.61;-0.56;373.0;0.041936;-0.095014;0.25;0.25;0.5;0.5;0.0;0.25;0.0;0.75;0.75;0.75;2.25;1.75;1.0;3.5;0.0;1.25;-0.245605;0.012695;0.977539;0.35;-1.33;1.4;113.0;0.179267;-0.088064
0.83;2.25;3.0;3.25;4.75;1.0;1.5;0.0;0.75;1.5;2.75;5.25;5.25;3.25;7.5;0.25;2.25;-0.243164;0.057617;0.964355;-1.96;1.75;-0.63;372.0;0.052243;-0.090359;0.25;0.25;0.5;0.75;0.0;0.25;0.0;0.75;0.75;0.75;2.25;2.5;1.75;3.75;0.0;1.25;-0.241211;0.006348;0.975098;0.35;-1.19;1.47;130.0;0.175253;-0.113307
0.84;2.75;3.0;3.0;4.25;1.25;1.5;0.0;1.0;1.5;2.5;5.0;5.25;3.0;7.5;0.5;1.75;-0.242188;0.05957;0.965332;-1.82;1.75;-0.56;369.0;0.048967;-0.086608;0.25;0.5;0.5;0.5;0.0;0.25;0.0;0.5;0.75;1.0;2.5;2.75;0.5;3.5;0.0;1.25;-0.241699;0.012207;0.974121;0.28;-1.19;1.4;122.0;0.179097;-0.082942
0.85;2.75;3.25;2.75;4.25;1.0;1.5;0.0;0.75;1.5;3.0;5.0;5.0;3.0;7.25;0.25;2.25;-0.239746;0.056641;0.958984;-1.96;1.75;-0.56;363.0;0.049473;-0.086114;0.5;0.5;0.5;0.5;0.0;0.5;0.0;0.5;0.75;0.75;2.75;3.0;0.5;3.75;0.25;1.5;-0.248535;0.01709;0.97998;0.21;-1.19;1.47;133.0;0.172714;-0.087996
0.86;2.25;2.75;3.0;4.0;1.25;1.25;0.0;0.75;1.75;3.25;5.25;5.25;3.0;7.25;0.0;2.0;-0.239746;0.061035;0.955566;-2.1;1.61;-0.63;361.0;0.061714;-0.080591;0.5;0.5;0.5;0.75;0.0;0.5;0.0;0.75;0.75;0.75;3.25;3.25;1.75;4.0;0.0;1.5;-0.244141;0.015137;0.976562;0.14;-1.12;1.4;154.0;0.163304;-0.119283
0.87;2.25;2.25;3.0;4.0;1.25;1.5;0.0;0.75;1.5;3.5;5.0;5.0;3.5;7.25;0.25;2.0;-0.240234;0.056641;0.959961;-2.1;1.47;-0.63;360.0;0.066405;-0.085076;0.0;0.5;0.5;0.75;0.0;0.75;0.0;0.75;0.75;1.25;3.25;3.25;2.0;4.0;0.0;1.5;-0.241211;0.01123;0.978516;0.21;-1.05;1.33;158.0;0.176459;-0.126663
0.88;2.5;2.75;2.75;4.0;1.25;1.25;0.0;0.75;1.5;3.5;5.0;5.25;2.75;7.0;0.25;2.0;-0.243652;0.061523;0.963379;-2.03;1.47;-0.63;357.0;0.059453;-0.081526;0.0;0.5;0.25;0.75;0.0;0.75;0.0;0.75;0.5;1.5;3.25;3.25;2.5;4.25;0.25;1.25;-0.246094;0.01416;0.966797;0.14;-1.05;1.4;162.0;0.186679;-0.136294
0.89;2.5;2.25;2.75;4.0;1.0;1.25;0.0;0.75;1.75;3.25;5.0;5.25;3.5;7.25;0.0;2.0;-0.242188;0.058105;0.957031;-2.03;1.47;-0.42;356.0;0.06751;-0.084255;0.0;0.5;0.25;0.5;0.25;0.75;0.0;0.75;0.5;1.5;3.0;3.25;2.5;4.25;0.25;1.75;-0.244141;0.013672;0.974121;0.07;-0.98;1.33;162.0;0.190884;-0.135019
0.9;2.5;2.25;2.75;3.0;1.0;1.25;0.0;0.5;0.75;3.25;5.0;4.75;3.0;7.25;0.0;2.0;-0.246582;0.064453;0.96875;-1.89;1.4;-0.49;325.0;0.068897;-0.082225;0.0;0.75;0.5;0.5;0.25;0.75;0.0;0.75;0.75;1.25;3.25;3.25;2.0;4.25;0.5;1.75;-0.24707;0.011719;0.973633;0.14;-0.91;1.4;168.0;0.181762;-0.120049
0.91;2.0;2.25;3.0;3.25;1.0;1.25;0.0;0.5;2.0;3.25;5.25;4.75;3.25;7.5;0.0;2.0;-0.238281;0.05957;0.958008;-1.96;1.61;-0.56;345.0;0.080962;-0.071127;0.0;0.5;0.5;0.75;0.0;0.5;0.0;1.0;0.75;1.25;3.25;3.25;2.0;4.0;0.0;1.75;-0.243652;0.01416;0.973633;-0.0;-1.12;1.4;160.0;0.178691;-0.131176
0.92;2.25;2.25;3.0;3.25;1.0;1.25;0.0;0.5;2.75;3.0;5.0;4.75;3.0;7.5;0.25;2.0;-0.240723;0.054199;0.953613;-1.96;1.4;-0.63;351.0;0.081783;-0.060512;0.0;0.5;0.5;0.75;0.0;0.5;0.0;0.75;0.75;1.25;3.25;2.75;2.75;4.5;0.0;1.75;-0.241211;0.018555;0.972656;-0.0;-0.91;1.4;162.0;0.186544;-0.125987
0.93;1.75;2.25;2.75;3.25;1.0;1.25;0.0;0.5;2.25;3.25;4.75;4.75;3.0;7.25;0.5;2.0;-0.244141;0.059082;0.964355;-1.96;1.33;-0.56;339.0;0.088019;-0.069358;0.0;0.5;0.0;1.0;0.0;0.5;0.0;0.75;1.0;1.5;3.25;3.75;3.0;4.5;0.25;1.75;-0.241699;0.006836;0.973633;-0.14;-1.05;1.26;177.0;0.197679;-0.135793
0.94;1.5;1.75;2.0;3.0;1.0;1.25;0.0;0.75;2.0;3.25;5.0;5.25;3.25;7.25;0.5;2.25;-0.245605;0.059082;0.962402;-1.96;1.19;-0.56;334.0;0.108559;-0.083842;0.0;0.75;0.25;0.5;0.0;0.5;0.0;0.75;0.75;1.25;3.5;3.25;2.75;4.25;0.5;1.5;-0.246094;0.012695;0.966309;-0.07;-0.98;1.26;167.0;0.195736;-0.133246
0.95;1.5;1.75;2.0;2.75;1.0;1.25;0.0;0.75;2.25;3.0;4.75;5.25;3.0;7.5;0.0;1.75;-0.237793;0.061035;0.958008;-1.89;1.19;-0.49;323.0;0.106394;-0.075382;0.25;0.5;0.5;0.5;0.0;0.75;0.0;0.5;0.75;1.0;3.25;3.25;3.5;4.5;0.25;1.75;-0.245605;0.008789;0.967773;-0.0;-1.05;1.26;171.0;0.186795;-0.135742
0.96;1.75;1.75;2.0;3.25;0.75;1.25;0.0;0.5;2.0;3.0;4.75;5.25;3.25;7.25;0.0;2.0;-0.244629;0.057617;0.958008;-1.96;0.98;-0.56;323.0;0.098482;-0.081539;0.25;0.5;0.25;0.0;0.25;0.5;0.0;0.75;0.75;1.0;3.5;3.25;3.0;4.5;0.0;2.0;-0.240234;0.010742;0.975586;-0.14;-1.12;1.33;165.0;0.202063;-0.131172
0.97;1.5;2.0;2.5;3.0;0.75;1.25;0.0;0.5;2.0;3.25;4.75;4.5;2.75;7.25;0.25;2.0;-0.237793;0.059082;0.957031;-2.03;1.05;-0.56;319.0;0.096257;-0.070007;0.0;0.5;0.25;0.0;0.0;0.75;0.0;1.0;0.75;1.25;3.75;3.5;3.25;3.75;0.25;2.0;-0.242188;0.01123;0.972656;-0.07;-1.12;1.33;171.0;0.201979;-0.155612
0.98;1.5;2.0;2.0;2.75;0.75;1.25;0.0;0.5;2.0;3.75;4.75;4.25;2.75;7.5;0.25;2.0;-0.243652;0.052734;0.958496;-2.1;0.77;-0.49;316.0;0.107396;-0.066413;0.0;0.5;0.5;0.5;0.0;0.25;0.0;1.0;0.75;1.5;3.75;3.75;3.75;4.5;0.25;2.0;-0.237305;0.012207;0.970703;-0.07;-1.12;1.4;187.0;0.19868;-0.14691
0.99;1.75;2.25;2.0;3.0;1.0;1.25;0.0;0.25;2.5;3.25;4.5;4.75;3.0;7.5;0.25;2.0;-0.239746;0.057617;0.958496;-2.1;0.7;-0.49;327.0;0.099313;-0.063899;0.0;0.75;0.5;0.5;0.25;0.25;0.0;1.0;0.75;1.5;3.75;3.5;3.5;4.5;0.25;2.0;-0.248047;0.009277;0.96875;-0.14;-1.33;1.33;187.0;0.188545;-0.139701
1.0;1.75;2.0;1.75;2.75;1.0;1.25;0.0;0.5;2.5;3.25;5.0;5.0;2.5;7.5;0.0;2.5;-0.242676;0.055664;0.959473;-2.1;0.42;-0.42;326.0;0.107976;-0.065878;0.0;0.5;0.5;0.75;0.0;0.25;0.0;1.0;0.75;1.5;3.75;3.5;3.25;4.75;0.5;2.0;-0.241211;0.014648;0.969238;-0.21;-1.61;1.4;187.0;0.197711;-0.136065
1.01;1.25;2.25;2.0;2.75;1.0;1.25;0.0;0.5;2.25;3.25;5.25;4.25;2.75;7.5;0.0;2.25;-0.241699;0.054199;0.957031;-2.24;0.28;-0.49;320.0;0.105942;-0.067592;0.0;0.5;0.5;0.75;0.0;0.5;0.0;1.25;1.0;1.75;3.5;3.75;3.25;4.75;0.75;2.25;-0.244629;0.012207;0.973633;-0.28;-1.61;1.4;201.0;0.194721;-0.13629
1.02;1.5;2.25;2.5;3.0;1.0;1.25;0.0;0.0;2.25;3.25;5.25;4.75;2.5;7.5;0.25;1.75;-0.242676;0.052246;0.964355;-2.38;0.28;-0.49;325.0;0.098032;-0.058174;0.25;0.75;0.5;0.75;0.0;0.25;0.0;1.0;0.75;2.0;3.75;3.25;3.25;4.75;0.25;2.0;-0.243164;0.013184;0.976562;-0.49;-1.68;1.33;191.0;0.183148;-0.12782
1.03;1.5;2.0;2.75;3.0;1.0;1.25;0.0;0.0;2.25;2.75;5.0;4.75;3.0;7.5;0.5;1.75;-0.239746;0.05957;0.958984;-2.24;0.28;-0.42;325.0;0.098614;-0.062441;0.25;0.75;0.5;0.75;0.0;0.5;0.0;1.25;0.75;1.75;3.75;3.5;3.75;4.5;0.0;2.0;-0.243652;0.01123;0.975586;-0.49;-1.68;1.26;196.0;0.170842;-0.147339
1.04;2.0;2.25;2.5;3.25;1.0;1.25;0.0;0.25;2.5;3.25;4.0;4.5;2.75;7.25;0.25;1.75;-0.241699;0.061035;0.962402;-2.17;0.35;-0.49;325.0;0.082477;-0.057602;0.25;0.75;0.75;1.0;0.25;0.75;0.0;1.25;0.75;1.75;3.75;3.25;3.75;4.25;0.25;2.0;-0.240723;0.006836;0.974609;-0.63;-1.61;1.19;204.0;0.153772;-0.145092
1.05;1.75;2.25;2.5;3.25;0.75;1.25;0.0;0.5;1.75;3.75;3.75;4.75;3.0;7.25;0.25;1.5;-0.23584;0.0625;0.961914;-2.03;0.49;-0.49;320.0;0.083388;-0.072411;0.5;1.0;0.75;0.75;0.25;0.5;0.0;1.75;1.0;1.75;4.25;5.0;3.25;4.25;0.5;2.25;-0.241211;0.016113;0.975098;-0.63;-1.4;1.19;232.0;0.155992;-0.147345
1.06;1.75;2.0;2.5;3.0;1.0;1.25;0.0;0.5;1.5;3.0;4.5;5.0;2.5;7.5;0.75;2.0;-0.239746;0.055664;0.961426;-1.75;0.77;-0.49;323.0;0.093897;-0.073963;0.25;1.0;0.75;0.75;0.5;0.75;0.0;1.75;0.75;2.0;3.5;4.0;3.5;4.75;0.0;2.0;-0.24707;0.012695;0.974121;-0.56;-1.26;1.19;218.0;0.148914;-0.144901
1.07;1.5;1.75;2.0;3.0;1.0;1.25;0.0;0.5;1.75;2.5;4.75;4.75;2.25;7.25;0.25;2.5;-0.242188;0.060059;0.961426;-1.68;1.4;-0.42;306.0;0.100724;-0.075536;0.0;0.75;1.0;0.75;0.0;1.0;0.0;1.75;1.0;2.0;4.0;3.5;3.5;4.75;0.0;1.75;-0.239746;0.012207;0.978516;-0.49;-1.12;1.19;216.0;0.158293;-0.140576
1.08;2.25;1.75;2.0;3.0;1.0;1.0;0.0;0.5;1.5;2.25;4.0;4.75;2.5;7.25;0.25;2.25;-0.243164;0.058105;0.964355;-1.61;1.61;-0.42;300.0;0.085975;-0.074817;0.25;0.5;0.75;0.75;0.0;0.75;0.0;1.0;0.25;1.75;4.25;4.0;3.0;4.75;0.25;2.0;-0.242188;0.011719;0.974609;-0.21;-0.91;1.33;198.0;0.175173;-0.143737
1.09;1.75;2.0;1.75;3.0;1.0;0.75;0.0;0.5;1.5;2.75;3.75;4.75;2.75;7.25;0.25;1.75;-0.240723;0.061523;0.964355;-1.61;1.89;-0.28;295.0;0.094149;-0.076083;0.25;0.25;0.5;1.0;0.0;0.75;0.0;1.25;0.25;1.75;4.5;3.75;3.5;4.75;0.25;2.0;-0.243164;0.013672;0.96875;-0.0;-0.77;1.4;202.0;0.177801;-0.15484
1.1;1.5;2.0;1.75;2.75;1.0;1.0;0.0;0.5;1.5;3.0;3.75;4.5;2.75;7.25;0.25;1.75;-0.239746;0.050293;0.958984;-1.54;1.89;-0.42;292.0;0.099145;-0.075116;0.25;0.25;0.5;1.25;0.0;1.0;0.0;2.0;0.5;1.75;4.5;3.75;3.75;4.75;0.25;2.0;-0.240723;0.013184;0.977051;0.07;-0.7;1.4;221.0;0.162285;-0.164234
1.11;1.5;1.5;2.0;2.5;1.0;1.0;0.0;0.5;2.25;3.25;4.5;5.0;2.75;7.25;0.25;2.0;-0.242676;0.057129;0.958984;-1.68;1.75;-0.42;311.0;0.115959;-0.066319;0.25;0.5;0.5;1.25;0.25;0.75;0.0;1.75;0.5;1.5;3.25;3.5;3.5;4.75;0.5;2.25;-0.242188;0.012207;0.970703;-0.0;-0.63;1.4;206.0;0.158813;-0.157898
1.12;1.5;1.5;1.75;2.75;1.0;1.0;0.0;0.5;2.0;3.0;5.0;5.0;3.0;7.25;0.0;2.0;-0.243164;0.0625;0.958984;-1.68;1.61;-0.42;310.0;0.113523;-0.075514;0.25;0.75;0.25;1.25;0.25;0.75;0.0;1.25;0.25;1.5;3.75;3.5;3.75;4.75;0.75;2.0;-0.242676;0.016113;0.979004;0.07;-0.77;1.47;204.0;0.165393;-0.159459
1.13;1.25;1.75;1.75;2.75;0.75;1.0;0.0;0.25;1.75;2.75;5.0;4.75;3.0;7.25;0.25;2.25;-0.239258;0.058105;0.958496;-1.68;1.47;-0.49;301.0;0.117203;-0.078661;0.25;0.5;0.25;1.0;0.25;0.75;0.0;1.75;0.25;1.75;4.25;3.5;4.0;4.75;0.75;2.25;-0.244629;0.013184;0.970215;-0.0;-0.84;1.33;215.0;0.173234;-0.165808
1.14;1.25;1.5;2.0;2.5;0.75;1.0;0.0;0.0;1.75;3.0;5.25;4.75;2.75;7.25;0.25;2.25;-0.241699;0.058105;0.960938;-1.82;1.19;-0.56;298.0;0.123521;-0.06919;0.25;0.25;0.5;1.0;0.25;1.0;0.0;1.75;0.5;1.75;4.0;3.5;4.5;4.75;0.25;2.25;-0.245605;0.010742;0.970703;-0.28;-0.98;1.26;218.0;0.166025;-0.16584
1.15;1.25;1.75;1.5;2.5;0.75;1.0;0.0;0.25;1.75;3.25;5.0;4.75;2.75;7.25;0.25;2.0;-0.243652;0.058594;0.954102;-1.89;1.05;-0.49;297.0;0.123882;-0.073496;0.25;0.5;0.5;0.75;0.25;1.0;0.0;1.75;0.75;2.25;3.75;3.75;4.25;4.0;0.25;2.25;-0.242676;0.014648;0.972168;-0.35;-1.05;1.26;218.0;0.161968;-0.162884
1.16;1.5;1.5;1.5;2.5;0.75;1.0;0.0;0.25;1.75;3.0;4.75;4.75;3.0;7.25;0.5;2.0;-0.245117;0.060059;0.961914;-2.24;1.05;-0.63;297.0;0.124332;-0.074722;0.25;0.75;0.5;0.75;0.25;1.0;0.0;1.25;0.75;2.25;4.0;4.0;4.0;4.25;0.25;2.25;-0.240723;0.016113;0.978516;-0.63;-1.19;1.33;217.0;0.165048;-0.151765
1.17;1.25;1.25;1.5;2.25;0.75;0.75;0.0;0.0;1.75;3.5;4.75;4.75;3.0;7.75;0.25;2.0;-0.241699;0.060547;0.956543;-2.1;0.91;-0.56;291.0;0.141861;-0.064054;0.5;0.75;0.5;1.0;0.25;1.0;0.0;1.25;0.75;2.0;4.0;4.0;4.0;4.75;0.0;2.5;-0.247559;0.015137;0.969238;-0.63;-1.26;1.33;222.0;0.156678;-0.14831
1.18;1.0;1.25;1.5;2.5;0.75;0.75;0.0;0.25;2.0;4.0;5.0;4.5;2.75;7.5;0.0;2.5;-0.245117;0.060547;0.963379;-2.03;0.91;-0.56;298.0;0.141396;-0.064521;0.25;0.75;0.5;1.0;0.25;0.75;0.0;1.25;0.75;1.75;4.25;3.75;4.0;4.75;0.25;2.5;-0.239258;0.01123;0.979004;-0.49;-1.19;1.19;218.0;0.167371;-0.149198
1.19;1.25;1.5;1.75;2.25;0.75;1.0;0.0;0.25;2.0;3.25;5.0;4.5;2.75;7.5;0.0;2.5;-0.243652;0.053223;0.966309;-2.03;0.91;-0.56;298.0;0.129527;-0.065882;0.0;0.75;0.5;0.75;0.0;0.75;0.0;1.75;0.75;1.75;4.0;4.0;4.25;4.75;0.25;2.25;-0.238281;0.015625;0.975586;-0.7;-1.19;1.19;218.0;0.174493;-0.163831
1.2;1.25;1.5;1.5;1.75;0.75;1.0;0.0;0.5;2.0;2.75;5.0;4.75;2.5;7.5;0.0;2.5;-0.248535;0.053711;0.962891;-1.82;0.91;-0.49;290.0;0.136425;-0.069379;0.0;0.25;0.75;0.75;0.25;0.75;0.0;1.75;1.0;1.75;4.0;3.5;4.25;4.75;0.25;2.0;-0.245605;0.013184;0.975586;-0.56;-1.19;1.33;216.0;0.176461;-0.149625
1.21;1.25;1.5;1.25;2.25;0.75;0.75;0.0;0.25;2.25;4.25;5.0;4.75;2.75;7.5;0.25;2.0;-0.253906;0.062012;0.956055;-1.96;0.98;-0.56;304.0;0.142869;-0.059865;0.0;0.5;0.5;1.0;0.25;0.75;0.0;2.0;0.75;2.25;4.25;4.5;4.25;4.25;0.25;2.0;-0.244629;0.015137;0.970215;-0.56;-1.12;1.26;230.0;0.166995;-0.167648
1.22;1.0;1.5;1.25;2.25;0.75;0.75;0.0;0.25;2.25;3.75;5.0;4.75;3.0;7.5;0.25;2.25;-0.242188;0.052246;0.958008;-1.96;0.84;-0.49;301.0;0.146374;-0.066286;0.25;0.25;0.25;1.0;0.5;0.5;0.0;1.75;0.5;2.25;4.25;4.5;4.0;4.0;0.25;2.25;-0.240723;0.015137;0.975098;-0.63;-1.19;1.26;220.0;0.171793;-0.167568
1.23;1.0;1.5;1.25;1.75;0.5;0.75;0.0;0.25;2.0;3.75;4.5;5.0;2.5;7.75;0.0;2.25;-0.240723;0.059082;0.963867;-1.96;0.84;-0.56;285.0;0.153083;-0.062302;0.25;0.25;0.25;1.0;0.25;0.5;0.0;1.0;0.75;1.75;4.5;2.75;4.0;4.75;0.25;2.25;-0.244629;0.016113;0.967773;-0.7;-1.26;1.33;198.0;0.188109;-0.138548
1.24;1.0;1.0;1.5;2.25;0.25;0.75;0.0;0.5;2.0;4.0;5.25;4.75;2.75;7.5;0.0;2.0;-0.242676;0.05127;0.960938;-2.03;0.77;-0.49;294.0;0.150312;-0.068281;0.0;0.5;0.5;1.0;0.25;0.75;0.0;2.0;0.5;1.75;4.25;3.75;4.0;4.75;0.5;2.25;-0.239746;0.010742;0.979004;-0.77;-1.33;1.26;222.0;0.170599;-0.165729
1.25;1.25;1.25;1.75;2.25;0.25;0.75;0.0;0.5;2.0;3.5;5.25;4.75;2.75;7.75;0.25;2.25;-0.245117;0.056152;0.958496;-2.1;0.91;-0.56;302.0;0.142445;-0.067894;0.0;0.5;0.25;0.5;0.25;1.0;0.0;1.75;0.5;2.25;4.0;4.5;4.0;4.75;0.75;2.25;-0.243164;0.01123;0.972656;-0.7;-1.33;1.26;225.0;0.188035;-0.164093
1.26;1.25;1.5;1.5;2.25;0.5;0.75;0.0;0.0;2.25;3.25;4.75;5.0;3.0;7.75;0.25;2.25;-0.251953;0.061523;0.959473;-2.03;0.84;-0.56;297.0;0.143022;-0.06307;0.0;0.25;0.25;0.5;0.25;0.5;0.0;1.25;0.5;2.0;4.75;5.0;3.75;4.75;0.5;2.0;-0.244141;0.01123;0.976562;-0.84;-1.4;1.26;216.0;0.204522;-0.156095
1.27;1.5;1.5;1.25;2.25;0.5;1.0;0.0;0.0;2.5;3.75;5.0;4.75;3.0;7.75;0.5;2.0;-0.241699;0.05957;0.959961;-1.96;0.84;-0.56;308.0;0.143714;-0.057679;0.0;0.25;0.5;0.75;0.25;0.5;0.0;1.75;0.5;2.5;4.75;4.5;4.25;4.75;0.5;2.25;-0.244141;0.018066;0.976074;-0.84;-1.4;1.26;231.0;0.189784;-0.15961
1.28;1.0;1.5;0.75;1.75;0.5;1.0;0.0;0.25;2.75;3.75;4.5;5.0;3.0;7.25;0.75;1.75;-0.246094;0.058105;0.963867;-1.82;0.77;-0.42;295.0;0.161411;-0.063327;0.0;0.25;0.5;0.75;0.25;0.5;0.0;1.25;0.75;2.25;4.25;4.5;4.25;4.75;0.5;2.25;-0.242188;0.013672;0.972656;-0.77;-1.19;1.19;221.0;0.195196;-0.150625
1.29;1.0;1.5;1.25;1.75;0.5;0.75;0.0;0.5;2.5;3.25;4.0;5.25;2.75;7.5;0.25;2.0;-0.245605;0.058594;0.960449;-1.89;0.77;-0.42;288.0;0.150835;-0.065603;0.25;0.5;0.75;1.0;0.25;0.25;0.0;1.75;0.75;2.25;4.25;4.5;4.25;4.75;0.75;2.5;-0.242188;0.012695;0.975586;-0.77;-1.19;1.12;237.0;0.176125;-0.152176
1.3;1.0;1.5;1.25;1.75;0.5;0.5;0.0;0.5;2.5;3.0;4.75;5.25;2.75;7.25;0.0;1.75;-0.244141;0.055664;0.960449;-1.82;0.91;-0.42;285.0;0.14982;-0.066498;0.0;0.5;0.75;1.0;0.25;0.25;0.0;2.25;0.75;2.25;4.5;4.5;4.5;4.75;0.5;2.25;-0.244629;0.014648;0.977051;-0.7;-1.19;1.19;242.0;0.173777;-0.162696
1.31;1.0;1.5;1.5;1.75;0.5;0.5;0.0;0.5;2.25;3.0;4.0;4.75;2.75;7.25;0.0;1.75;-0.242676;0.061523;0.961426;-1.96;0.77;-0.42;274.0;0.142456;-0.063695;0.0;0.5;0.75;1.0;0.25;0.75;0.0;1.75;0.5;2.0;4.5;4.5;4.25;4.75;0.5;2.5;-0.241699;0.01416;0.973145;-0.63;-1.19;1.33;235.0;0.171849;-0.164225
1.32;1.25;1.75;1.25;1.75;0.75;0.75;0.0;0.5;1.75;3.25;5.0;4.75;2.25;7.5;0.0;1.75;-0.241699;0.058594;0.959473;-1.89;0.63;-0.49;284.0;0.135821;-0.065486;0.0;0.5;0.5;1.0;0.25;0.75;0.0;1.75;0.75;2.0;4.5;3.75;3.75;4.75;0.25;2.25;-0.244629;0.016113;0.974609;-0.77;-1.19;1.19;221.0;0.173153;-0.152675
1.33;1.0;1.5;1.25;2.5;0.75;0.5;0.0;0.25;1.5;3.5;5.25;4.75;2.5;7.5;0.0;1.75;-0.245117;0.0625;0.957031;-1.96;0.84;-0.49;285.0;0.137929;-0.069909;0.0;0.75;0.5;1.0;0.25;0.75;0.0;1.75;0.75;2.0;4.5;4.5;4.0;5.0;0.0;2.25;-0.245605;0.015137;0.971191;-0.63;-1.26;1.26;231.0;0.168808;-0.157438
1.34;0.75;1.25;1.5;2.5;0.5;0.75;0.0;0.25;1.75;3.25;4.0;4.75;2.75;7.5;0.25;2.0;-0.247559;0.060059;0.962891;-1.96;0.77;-0.42;278.0;0.142561;-0.071579;0.0;0.5;0.5;1.0;0.25;0.75;0.0;1.25;0.75;2.5;4.5;3.5;4.25;4.75;0.25;2.25;-0.244141;0.013672;0.96875;-0.7;-1.26;1.19;221.0;0.17942;-0.145236
1.35;1.0;1.25;1.75;2.25;0.5;0.5;0.0;0.0;1.75;3.25;4.0;4.75;2.75;7.5;0.5;2.0;-0.241699;0.060547;0.964355;-1.96;0.7;-0.49;277.0;0.144738;-0.062284;0.0;0.5;0.75;1.0;0.25;0.75;0.0;1.25;0.5;2.75;4.5;4.5;4.0;4.75;0.5;2.0;-0.247559;0.013184;0.972656;-0.63;-1.26;1.26;231.0;0.177016;-0.147657
1.36;2.0;1.0;1.25;2.25;0.5;0.5;0.0;0.0;2.0;3.75;5.0;4.25;2.5;7.5;0.25;1.25;-0.247559;0.058105;0.959473;-2.03;0.77;-0.49;283.0;0.137809;-0.045834;0.0;0.75;0.75;1.0;0.0;1.0;0.0;1.75;0.0;2.25;5.0;4.5;4.0;5.0;0.5;2.25;-0.242676;0.012695;0.975098;-0.63;-1.26;1.33;237.0;0.167442;-0.169021
1.37;1.5;1.25;1.25;2.25;0.75;0.5;0.0;0.5;2.25;3.5;5.0;4.75;2.75;7.5;0.25;1.75;-0.243164;0.05957;0.960938;-1.96;0.7;-0.49;298.0;0.140137;-0.061601;0.0;0.75;0.5;1.0;0.25;1.0;0.0;1.75;0.25;2.75;5.0;4.5;4.0;5.0;0.5;2.0;-0.243164;0.016113;0.968262;-0.63;-1.33;1.33;242.0;0.170251;-0.159456
1.38;0.75;1.25;0.75;2.25;0.75;0.5;0.0;0.25;2.0;3.25;4.75;4.75;2.75;7.75;0.25;2.0;-0.245117;0.057617;0.962402;-1.96;0.63;-0.42;279.0;0.161342;-0.067677;0.25;0.5;0.5;1.0;0.0;1.0;0.0;2.0;0.5;2.25;5.0;4.5;4.5;4.75;0.5;2.5;-0.245117;0.016113;0.972168;-0.63;-1.26;1.19;246.0;0.169898;-0.16962
1.39;1.0;1.25;0.75;1.75;0.5;0.5;0.0;0.25;2.25;3.5;5.0;5.0;2.75;7.75;0.0;2.0;-0.243652;0.058105;0.959473;-1.82;0.77;-0.56;282.0;0.16711;-0.06252;0.25;0.5;0.75;1.0;0.0;1.0;0.0;1.75;0.5;2.0;5.0;4.5;4.5;4.75;0.5;2.5;-0.246582;0.012695;0.977539;-0.63;-1.26;1.26;243.0;0.167461;-0.166317
1.4;1.25;1.25;1.5;2.25;0.25;0.75;0.0;0.25;2.5;3.0;5.0;4.75;2.5;7.5;0.5;2.0;-0.245117;0.05957;0.956543;-2.03;0.91;-0.49;293.0;0.14676;-0.059002;0.5;0.75;0.75;1.0;0.0;1.0;0.0;1.75;0.5;2.25;4.75;4.5;4.25;4.75;0.75;2.5;-0.246582;0.01709;0.975098;-0.63;-1.33;1.33;248.0;0.160188;-0.159389
1.41;0.75;1.5;1.25;2.25;0.5;0.75;0.0;0.25;2.25;3.0;4.75;4.75;2.5;7.5;0.25;1.75;-0.245605;0.060059;0.958008;-1.96;0.84;-0.63;282.0;0.14797;-0.064142;0.5;0.25;0.5;1.0;0.0;1.0;0.0;1.75;0.5;2.25;4.5;3.5;4.25;4.75;0.75;2.5;-0.239258;0.013184;0.967773;-0.7;-1.4;1.26;230.0;0.171713;-0.157002
1.42;0.5;1.5;1.25;1.5;0.5;0.75;0.0;0.25;2.25;3.25;4.75;4.75;2.5;7.5;0.0;1.75;-0.25;0.058105;0.95752;-1.82;0.77;-0.42;273.0;0.161969;-0.060289;0.0;0.25;0.5;1.0;0.0;1.0;0.0;1.75;0.75;2.0;4.75;4.5;3.75;4.75;0.75;2.5;-0.241699;0.01709;0.96875;-0.84;-1.33;1.26;234.0;0.184583;-0.158983
1.43;0.5;1.25;1.0;1.25;0.5;0.75;0.0;0.5;2.25;3.75;4.0;4.75;2.75;7.5;0.0;2.0;-0.243164;0.058105;0.958008;-1.82;0.63;-0.42;270.0;0.172158;-0.063779;0.0;0.5;0.25;1.0;0.0;1.0;0.0;1.75;0.75;2.0;5.0;4.75;3.5;4.75;0.25;2.5;-0.243164;0.019531;0.969727;-0.7;-1.4;1.26;232.0;0.180586;-0.161507
1.44;0.75;1.25;1.75;1.5;0.5;0.75;0.0;0.5;2.5;3.25;4.0;5.0;3.0;7.5;0.0;2.0;-0.244629;0.054688;0.965332;-1.75;0.7;-0.49;284.0;0.153272;-0.063058;0.0;0.5;0.25;1.0;0.25;1.0;0.0;1.75;1.0;2.0;3.5;3.75;3.75;4.75;0.0;2.5;-0.247559;0.012695;0.973145;-0.84;-1.33;1.26;214.0;0.171953;-0.154223
1.45;0.5;1.5;1.5;1.5;0.5;0.5;0.0;0.25;2.5;4.0;4.5;4.75;2.75;7.5;0.25;2.0;-0.246094;0.061035;0.963379;-1.96;0.63;-0.56;285.0;0.165943;-0.054652;0.0;0.25;0.5;1.0;0.25;0.75;0.0;2.0;0.5;2.0;4.5;4.0;4.0;4.75;0.5;2.25;-0.248047;0.014648;0.96582;-0.91;-1.33;1.26;226.0;0.17716;-0.164298
1.46;0.25;1.25;1.25;1.5;0.75;0.5;0.0;0.25;1.75;3.0;4.5;5.0;2.75;7.5;0.0;1.75;-0.248535;0.057617;0.95459;-1.82;0.63;-0.49;263.0;0.168355;-0.070322;0.0;0.25;0.5;1.0;0.5;0.75;0.0;1.75;0.5;2.25;4.75;4.75;3.75;5.0;0.25;2.25;-0.241211;0.013184;0.96582;-1.05;-1.33;1.19;234.0;0.178339;-0.155956
1.47;0.5;1.25;1.0;1.75;0.25;0.5;0.0;0.25;2.5;3.5;4.75;5.0;2.75;7.5;0.0;2.25;-0.241699;0.060059;0.96875;-1.75;0.7;-0.42;277.0;0.174412;-0.063785;0.25;0.5;0.5;0.75;0.0;0.75;0.0;1.0;0.5;2.25;4.75;5.0;3.75;5.0;0.5;2.25;-0.251953;0.009277;0.969238;-0.98;-1.26;1.19;226.0;0.189164;-0.147919
1.48;0.75;1.25;1.25;1.75;0.25;0.75;0.0;0.25;2.5;3.5;4.5;5.25;3.0;7.75;0.25;2.0;-0.242676;0.0625;0.958496;-1.75;0.84;-0.42;289.0;0.166315;-0.064457;0.0;0.5;0.5;0.75;0.0;0.75;0.0;1.75;0.75;2.75;4.75;4.5;3.75;5.0;0.5;2.5;-0.244629;0.008301;0.977051;-0.91;-1.33;1.19;237.0;0.188684;-0.149361
1.49;1.0;1.25;1.5;1.75;0.5;0.75;0.0;0.25;2.5;3.25;4.75;5.25;3.0;7.75;0.25;2.0;-0.244141;0.055176;0.962891;-1.82;0.91;-0.49;296.0;0.156364;-0.062322;0.0;0.25;0.5;1.0;0.25;1.0;0.0;1.25;0.75;2.75;4.25;4.5;3.75;4.75;0.5;2.25;-0.248047;0.01416;0.972168;-0.98;-1.26;1.19;229.0;0.184708;-0.144729
1.5;0.75;1.25;1.5;1.5;0.5;1.0;0.0;0.25;2.25;3.75;5.0;5.0;3.0;7.5;0.25;1.75;-0.241699;0.057617;0.956055;-1.68;1.12;-0.42;292.0;0.159679;-0.064352;0.0;0.25;0.5;0.75;0.0;1.0;0.0;1.75;1.0;2.25;4.25;4.5;3.75;4.75;0.25;2.25;-0.244141;0.016602;0.969727;-0.91;-1.33;1.12;227.0;0.184717;-0.15249
1.51;0.25;1.0;1.0;1.5;0.5;0.5;0.0;0.25;2.25;3.75;4.75;4.75;2.75;7.75;0.25;1.75;-0.241699;0.061035;0.956055;-1.68;1.19;-0.42;272.0;0.185896;-0.058978;0.0;0.5;0.25;0.25;0.0;0.75;0.0;1.25;0.75;2.5;4.5;3.75;3.75;4.75;0.25;2.75;-0.243652;0.013672;0.970703;-0.98;-1.26;1.12;210.0;0.205406;-0.145376
1.52;0.25;1.0;1.0;1.25;0.5;0.5;0.0;0.5;2.75;3.25;4.5;4.5;2.5;7.5;0.25;2.25;-0.245605;0.055664;0.964355;-1.54;1.26;-0.49;269.0;0.187721;-0.055282;0.0;0.5;0.25;0.25;0.0;0.75;0.0;1.25;0.75;2.25;4.75;4.0;3.5;5.0;0.5;2.5;-0.243164;0.014648;0.968262;-0.91;-1.33;1.19;214.0;0.208596;-0.141772
1.53;0.5;1.25;1.25;1.25;0.5;0.25;0.0;0.5;1.75;3.0;4.5;5.0;2.75;7.5;0.5;2.25;-0.243164;0.062012;0.95752;-1.54;1.26;-0.42;268.0;0.17633;-0.073048;0.25;0.5;0.5;0.75;0.0;1.0;0.0;1.75;0.75;3.0;5.0;4.5;3.75;5.0;0.5;2.25;-0.243652;0.01416;0.976074;-1.05;-1.47;1.26;245.0;0.180284;-0.145266
1.54;0.25;1.0;0.75;1.25;0.5;0.25;0.0;0.25;1.5;3.25;4.75;5.0;2.5;7.75;0.5;2.0;-0.249023;0.05957;0.959473;-1.54;1.26;-0.35;257.0;0.19705;-0.070201;0.25;0.75;0.25;0.75;0.25;0.75;0.0;1.75;0.5;2.5;4.25;4.5;4.0;4.75;0.0;2.25;-0.24707;0.01416;0.972656;-1.19;-1.61;1.19;227.0;0.170281;-0.160771
1.55;0.25;0.75;0.75;1.5;0.5;0.25;0.0;0.25;2.5;3.5;4.0;5.0;2.75;7.5;0.5;2.0;-0.246094;0.053223;0.955566;-1.54;1.26;-0.35;264.0;0.197752;-0.058688;0.0;0.5;0.5;0.75;0.25;0.75;0.0;2.0;0.75;2.25;4.5;4.5;3.75;5.0;0.0;2.25;-0.239746;0.013184;0.976074;-1.05;-1.4;1.05;231.0;0.176402;-0.155416
1.56;0.5;1.25;0.75;1.25;0.5;0.25;0.0;0.25;1.75;3.5;5.0;5.0;3.0;7.5;0.5;2.0;-0.240723;0.055664;0.958984;-1.61;1.05;-0.42;270.0;0.187234;-0.072212;0.0;0.5;0.25;0.75;0.25;0.75;0.0;1.25;1.0;2.25;5.25;4.5;4.0;5.0;0.25;2.5;-0.249512;0.012695;0.969727;-0.98;-1.61;1.26;233.0;0.193912;-0.144541
1.57;0.5;1.0;0.5;1.5;0.25;0.5;0.0;0.25;1.5;3.5;4.75;4.75;2.5;7.5;0.5;2.0;-0.239746;0.05957;0.967773;-1.54;0.98;-0.42;257.0;0.190433;-0.073151;0.25;0.5;0.25;0.75;0.25;0.75;0.0;1.75;0.75;2.25;5.0;4.5;4.0;5.25;0.5;2.5;-0.244629;0.008789;0.970215;-1.05;-1.4;1.19;241.0;0.185703;-0.150841
1.58;0.5;1.0;0.5;1.25;0.25;0.5;0.0;0.5;1.75;3.75;5.0;5.0;2.75;7.5;0.5;1.75;-0.24707;0.061035;0.957031;-1.68;0.77;-0.35;268.0;0.192769;-0.074783;0.5;0.5;0.5;0.75;0.25;0.75;0.0;2.0;0.75;2.25;4.5;4.75;4.0;5.25;0.5;2.5;-0.244141;0.01416;0.972168;-0.91;-1.47;1.12;247.0;0.173175;-0.151306
1.59;0.75;1.0;0.75;1.5;0.25;0.5;0.0;0.5;1.75;4.0;5.0;4.75;3.0;7.75;0.0;2.0;-0.240234;0.060547;0.963379;-1.75;0.98;-0.49;275.0;0.178939;-0.072136;0.25;0.5;0.5;0.5;0.0;0.5;0.0;2.0;0.75;2.0;5.0;4.5;4.25;5.0;0.5;2.5;-0.240234;0.01416;0.974121;-0.98;-1.47;1.12;238.0;0.187092;-0.158717
1.6;1.0;1.75;0.75;1.0;0.5;0.75;0.0;0.25;2.25;2.75;5.0;4.75;3.25;7.75;0.0;2.0;-0.244141;0.058594;0.959473;-1.68;0.84;-0.42;276.0;0.165655;-0.068081;0.0;0.75;0.75;0.75;0.0;0.75;0.0;1.25;0.75;2.25;4.25;4.75;4.25;5.0;0.5;2.5;-0.243164;0.014648;0.974121;-0.91;-1.4;1.19;232.0;0.182803;-0.151411
1.61;0.5;1.25;0.75;0.75;0.5;0.75;0.0;0.25;2.25;2.75;5.25;5.0;3.0;7.75;0.25;1.75;-0.244629;0.056641;0.953613;-1.89;0.91;-0.42;269.0;0.188968;-0.066834;0.25;1.0;0.5;0.75;0.25;1.0;0.0;1.75;0.75;2.75;4.5;4.5;4.5;5.25;0.5;2.25;-0.244141;0.012695;0.971191;-0.91;-1.54;1.19;252.0;0.168491;-0.150638
1.62;0.25;1.0;1.0;1.0;0.5;0.5;0.0;0.25;2.0;2.5;5.0;5.25;3.0;7.75;0.0;1.75;-0.241211;0.05957;0.959961;-1.75;0.7;-0.49;260.0;0.189912;-0.071833;0.25;0.75;0.5;1.0;0.25;0.75;0.0;2.0;1.0;2.5;3.5;4.5;4.5;5.25;0.5;2.25;-0.243164;0.01416;0.976074;-0.91;-1.47;1.26;245.0;0.167732;-0.151602
1.63;0.5;0.75;1.0;1.0;0.5;0.5;0.0;0.25;2.0;2.75;5.0;5.0;3.25;7.75;0.0;1.75;-0.244629;0.062988;0.958984;-1.82;0.7;-0.49;262.0;0.1896;-0.069366;0.0;0.5;0.75;0.75;0.25;0.75;0.0;1.75;1.0;2.25;4.25;4.5;4.25;5.0;0.5;2.5;-0.244629;0.015625;0.972168;-0.84;-1.33;1.26;240.0;0.180106;-0.149439
1.64;0.75;0.75;1.0;1.0;0.5;0.5;0.0;0.25;2.0;3.25;4.75;5.0;3.0;7.75;0.0;2.25;-0.245605;0.058105;0.960938;-1.89;0.84;-0.42;267.0;0.18692;-0.064769;0.25;0.5;0.5;0.75;0.25;1.0;0.0;1.75;0.75;2.25;4.75;4.5;4.25;5.25;0.5;2.5;-0.248535;0.015137;0.971191;-0.7;-1.26;1.12;245.0;0.177788;-0.152324
1.65;0.5;1.0;1.0;1.0;0.5;0.5;0.0;0.25;2.25;3.5;4.75;5.25;3.0;7.75;0.25;2.0;-0.240234;0.054688;0.958496;-1.82;0.77;-0.42;275.0;0.189682;-0.063409;0.25;0.5;0.5;1.0;0.25;0.75;0.0;2.0;0.75;2.25;4.75;4.0;4.0;5.25;0.5;2.25;-0.246094;0.006836;0.969727;-0.7;-1.19;1.26;241.0;0.172627;-0.149294
1.66;0.5;0.75;1.0;1.0;0.5;0.5;0.0;0.5;2.25;3.5;5.0;5.25;3.0;7.75;0.25;1.75;-0.245605;0.057129;0.960938;-1.75;0.63;-0.42;277.0;0.191159;-0.065839;0.0;0.75;0.5;1.0;0.0;1.0;0.0;2.0;1.0;2.25;4.75;4.5;4.25;5.25;0.75;2.25;-0.245117;0.010254;0.975098;-0.63;-1.19;1.12;252.0;0.176419;-0.154319
1.67;0.75;0.75;1.0;1.0;0.5;0.5;0.0;0.5;2.5;3.75;5.0;5.25;3.0;7.75;0.0;2.0;-0.247559;0.059082;0.958496;-1.96;0.84;-0.56;283.0;0.186613;-0.061095;0.0;0.75;0.5;0.75;0.0;0.75;0.0;1.75;1.0;2.75;4.5;4.5;4.0;5.25;0.5;2.5;-0.247559;0.013672;0.970215;-0.63;-1.19;1.26;244.0;0.185833;-0.144978
1.68;0.75;0.75;1.0;1.25;0.25;0.25;0.0;0.25;2.5;4.0;5.25;5.0;3.0;7.75;0.25;1.75;-0.251953;0.062988;0.960449;-2.1;1.05;-0.56;281.0;0.191884;-0.054733;0.25;0.75;0.5;0.75;0.0;0.75;0.0;1.75;0.75;2.5;4.0;4.5;3.5;5.25;0.5;2.5;-0.246582;0.013672;0.976562;-0.63;-1.12;1.26;233.0;0.178507;-0.145056
1.69;0.25;0.75;1.0;1.25;0.25;0.0;0.0;0.25;2.5;3.0;4.0;5.0;3.0;8.0;0.5;2.0;-0.244141;0.055176;0.960938;-2.03;0.91;-0.56;260.0;0.205837;-0.056718;0.25;0.5;0.5;0.75;0.25;0.75;0.0;1.75;0.75;2.25;5.0;4.75;3.75;5.25;0.5;2.75;-0.248535;0.011719;0.971191;-0.56;-1.12;1.26;245.0;0.182522;-0.148283
1.7;0.25;0.75;0.5;1.0;0.5;0.25;0.0;0.25;2.5;3.0;5.25;5.0;2.75;8.0;0.25;2.25;-0.249512;0.056641;0.958984;-2.03;0.91;-0.49;266.0;0.21252;-0.059203;0.0;0.5;0.5;0.75;0.0;0.75;0.0;1.25;0.75;2.5;5.0;4.75;4.0;5.0;0.5;2.5;-0.244141;0.011719;0.976074;-0.56;-1.33;1.12;235.0;0.194009;-0.148276
1.71;0.25;1.0;0.5;1.0;0.25;0.25;0.0;0.5;2.25;3.5;5.25;5.25;2.75;8.0;0.0;2.25;-0.239258;0.056152;0.95752;-1.96;0.84;-0.56;270.0;0.206629;-0.068047;0.0;0.75;0.75;0.75;0.0;0.75;0.0;1.75;1.0;2.75;4.75;4.0;4.0;5.25;0.5;2.5;-0.244629;0.008301;0.973633;-0.56;-1.19;1.12;244.0;0.181478;-0.139744
1.72;0.25;1.0;0.75;1.0;0.25;0.5;0.0;0.5;2.0;3.75;5.0;5.25;2.5;7.75;0.0;2.0;-0.248535;0.057617;0.961914;-1.89;0.91;-0.49;267.0;0.197267;-0.068349;0.0;0.75;0.75;0.75;0.0;0.25;0.0;2.0;1.0;2.5;5.0;4.5;3.75;5.25;0.75;2.5;-0.242188;0.01416;0.969727;-0.77;-1.26;1.26;247.0;0.187584;-0.141991
1.73;0.25;0.75;0.75;1.0;0.25;0.5;0.0;0.5;2.25;3.75;5.25;5.0;2.75;7.75;0.0;2.0;-0.246094;0.059082;0.963867;-1.96;0.84;-0.56;270.0;0.202209;-0.065373;0.25;0.75;0.75;0.75;0.0;0.25;0.0;1.75;1.0;2.5;4.5;4.5;3.75;5.25;0.75;2.5;-0.244629;0.009766;0.97168;-0.7;-1.19;1.19;242.0;0.184221;-0.136929
1.74;0.5;0.75;0.5;1.0;0.5;0.25;0.0;0.5;2.25;3.75;5.0;5.25;3.0;8.0;0.25;2.5;-0.24707;0.057617;0.955078;-1.96;0.91;-0.49;278.0;0.205553;-0.067233;0.0;0.5;0.75;0.75;0.0;0.25;0.0;1.75;1.25;2.75;4.75;5.0;4.0;5.25;0.25;2.5;-0.239746;0.012207;0.972168;-0.7;-1.33;1.26;247.0;0.192024;-0.138571
1.75;0.5;1.0;0.75;1.25;0.5;0.25;0.0;0.5;3.0;4.0;5.0;5.25;3.25;8.0;0.5;2.25;-0.244629;0.056152;0.961426;-1.96;0.84;-0.49;298.0;0.196382;-0.059068;0.0;0.25;0.5;0.75;0.25;0.5;0.0;1.75;1.0;2.75;5.0;5.0;4.25;5.25;0.5;2.5;-0.241699;0.010742;0.974121;-0.63;-1.19;1.19;250.0;0.196274;-0.146061
1.76;0.75;1.0;1.0;1.25;0.25;0.25;0.0;0.5;2.75;3.75;4.75;5.0;3.25;8.0;0.25;2.25;-0.244629;0.05957;0.956543;-1.96;0.84;-0.42;288.0;0.187864;-0.059237;0.0;0.5;0.25;0.75;0.0;0.5;0.0;1.75;1.0;2.25;5.0;4.75;4.0;5.25;0.75;2.5;-0.243652;0.009277;0.974121;-0.63;-1.12;1.33;241.0;0.200163;-0.149908
1.77;0.5;0.75;0.75;1.0;0.5;0.75;0.0;0.5;2.5;3.75;5.25;5.0;3.0;8.0;0.25;2.25;-0.243652;0.052246;0.959473;-1.82;0.84;-0.49;286.0;0.196034;-0.063582;0.25;0.5;0.5;0.75;0.0;0.5;0.0;1.25;1.0;2.5;4.5;4.75;3.75;5.25;0.25;2.75;-0.242188;0.009766;0.969238;-0.49;-1.05;1.12;232.0;0.192621;-0.136739
1.78;0.75;0.75;0.75;1.0;0.5;0.25;0.0;0.25;2.75;4.0;5.0;5.0;3.25;8.0;0.0;1.75;-0.24707;0.053711;0.962891;-1.89;0.77;-0.49;281.0;0.196939;-0.050864;0.25;0.5;0.75;1.0;0.0;0.5;0.0;1.75;1.25;2.75;5.0;4.75;3.75;5.0;0.0;2.5;-0.248047;0.010742;0.972168;-0.56;-0.91;1.33;247.0;0.175998;-0.137238
1.79;0.75;1.0;0.75;1.5;0.5;0.0;0.0;0.25;2.0;4.0;5.25;5.0;3.25;8.0;0.0;1.75;-0.246094;0.056641;0.962891;-1.75;0.84;-0.35;279.0;0.186068;-0.062798;0.0;0.5;0.25;1.0;0.0;0.25;0.0;1.25;1.25;2.25;4.25;4.75;3.75;5.25;0.0;2.5;-0.240234;0.009766;0.973145;-0.49;-0.91;1.26;223.0;0.198782;-0.137758
1.8;0.75;0.5;0.25;1.25;0.5;0.25;0.0;0.5;2.5;3.75;5.25;5.0;3.25;8.0;0.25;1.75;-0.248047;0.056641;0.960938;-1.68;0.77;-0.35;279.0;0.203526;-0.062572;0.0;0.5;0.0;0.75;0.0;0.5;0.0;1.25;1.25;2.5;4.5;4.5;4.0;5.25;0.25;2.5;-0.23877;0.016602;0.96582;-0.49;-0.98;1.4;227.0;0.207362;-0.138971
1.81;0.75;0.5;0.5;1.0;0.25;0.5;0.0;0.25;2.75;3.5;5.0;5.25;3.0;8.25;0.25;2.0;-0.245117;0.058105;0.957031;-1.68;0.77;-0.42;278.0;0.208207;-0.054885;0.0;0.5;0.25;0.75;0.0;0.75;0.0;1.25;1.25;2.0;4.5;4.0;4.0;5.25;0.5;2.25;-0.239746;0.015137;0.978027;-0.56;-0.98;1.4;224.0;0.199323;-0.137352
1.82;1.0;0.75;0.25;0.75;0.25;0.25;0.0;0.25;2.5;4.25;5.5;5.5;3.0;8.0;0.0;2.0;-0.24707;0.058594;0.958984;-1.75;0.77;-0.56;281.0;0.207799;-0.056988;0.0;0.5;0.25;0.75;0.0;0.25;0.0;1.75;1.0;1.75;4.5;4.5;4.0;5.0;0.25;2.25;-0.244141;0.015137;0.971191;-0.7;-1.19;1.26;221.0;0.195697;-0.155239
1.83;1.0;0.75;0.25;0.75;0.25;0.0;0.0;0.25;2.5;4.0;5.25;5.5;3.25;8.0;0.25;2.5;-0.250488;0.057129;0.953613;-1.75;0.35;-0.49;281.0;0.212885;-0.060651;0.0;0.5;0.25;0.75;0.25;0.0;0.0;1.25;1.0;1.5;4.5;4.0;4.0;5.25;0.5;2.5;-0.24707;0.014648;0.971191;-0.84;-1.19;1.26;213.0;0.206376;-0.141216
1.84;0.75;0.75;0.5;1.0;0.25;0.25;0.0;0.25;2.5;3.75;5.25;5.25;3.25;8.0;0.5;2.5;-0.24707;0.058105;0.95752;-1.68;0.28;-0.49;284.0;0.208023;-0.063037;0.0;0.5;0.25;0.75;0.25;0.25;0.0;1.25;0.75;2.75;4.75;4.0;4.5;5.25;0.25;2.5;-0.244141;0.008301;0.967285;-0.98;-1.47;1.19;227.0;0.201455;-0.143232
1.85;0.5;0.5;0.5;1.0;0.5;0.5;0.0;0.5;2.25;4.25;5.25;5.25;3.0;7.75;0.25;2.25;-0.246582;0.063477;0.95752;-1.82;0.07;-0.49;282.0;0.205668;-0.067126;0.0;0.5;0.25;0.75;0.25;0.5;0.0;1.75;0.75;2.75;5.0;4.0;3.75;5.25;0.25;2.25;-0.243652;0.019043;0.975586;-1.19;-1.68;1.19;231.0;0.192304;-0.142657
1.86;0.25;0.75;0.5;1.0;0.5;0.75;0.0;0.5;2.25;4.25;5.25;5.5;3.25;8.0;0.0;2.25;-0.242188;0.066406;0.961426;-1.89;0.28;-0.42;287.0;0.202771;-0.073377;0.25;0.5;0.5;0.75;0.25;0.5;0.0;1.75;1.0;2.75;4.5;4.5;3.5;5.25;0.5;2.5;-0.243652;0.012207;0.969238;-1.33;-1.75;1.26;240.0;0.185821;-0.13449
1.87;0.25;0.5;0.75;1.0;0.25;0.25;0.0;0.25;2.5;4.0;5.75;5.25;3.25;8.25;0.25;2.0;-0.246582;0.060547;0.959961;-1.89;-0.07;-0.42;283.0;0.216735;-0.059854;0.25;0.5;0.25;0.75;0.25;0.5;0.0;1.25;1.0;2.75;4.75;4.5;3.75;5.25;0.25;2.5;-0.242188;0.017578;0.96875;-1.33;-1.75;1.19;233.0;0.193886;-0.132614
1.88;0.5;0.5;0.75;1.0;0.0;0.25;0.0;0.25;2.5;4.25;5.25;5.5;3.25;8.25;0.5;2.0;-0.241699;0.052734;0.961914;-1.96;-0.0;-0.42;286.0;0.216231;-0.059744;0.0;0.5;0.25;0.75;0.25;0.75;0.0;1.25;1.0;2.75;4.75;4.5;3.75;5.25;0.25;2.5;-0.243164;0.009277;0.972168;-1.4;-1.61;1.05;233.0;0.196051;-0.136224
1.89;0.25;0.5;1.0;1.25;0.0;0.5;0.0;0.5;2.25;4.25;5.25;5.5;3.25;8.0;0.5;1.75;-0.249023;0.061035;0.963379;-1.82;-0.0;-0.42;288.0;0.205349;-0.070119;0.0;0.5;0.25;0.75;0.5;0.75;0.0;2.0;1.0;2.75;4.25;4.5;4.0;5.25;0.25;2.25;-0.245117;0.012207;0.972168;-1.26;-1.82;0.98;241.0;0.18325;-0.146439
1.9;0.25;0.75;1.0;1.25;0.25;0.25;0.0;0.5;2.25;4.0;5.25;5.5;3.25;8.25;0.5;2.5;-0.244141;0.057129;0.961426;-1.82;-0.0;-0.35;293.0;0.204266;-0.070483;0.25;0.5;0.5;1.0;0.5;0.75;0.0;1.25;1.25;2.75;4.5;4.5;3.75;5.25;0.25;2.25;-0.243652;0.015137;0.977539;-1.33;-1.89;1.19;242.0;0.178219;-0.125509
1.91;0.5;1.0;0.75;1.25;0.5;0.25;0.0;0.5;2.0;4.0;5.5;5.5;3.25;8.0;0.25;2.75;-0.249023;0.05957;0.961426;-1.82;0.28;-0.35;293.0;0.194347;-0.075959;0.0;0.75;0.5;1.0;0.5;0.5;0.0;1.75;1.25;2.75;4.5;4.5;3.75;5.25;0.25;2.25;-0.244629;0.012695;0.972656;-1.33;-1.75;1.05;246.0;0.176819;-0.133419
1.92;0.75;1.25;0.75;0.75;0.75;0.5;0.0;0.5;2.25;4.0;5.25;5.25;3.5;8.0;0.0;2.5;-0.248535;0.058105;0.960449;-1.89;0.56;-0.35;294.0;0.186139;-0.069544;0.0;0.75;0.75;0.75;0.5;0.75;0.0;1.75;1.25;1.25;4.75;4.5;3.0;5.25;0.25;2.25;-0.244629;0.016602;0.967773;-1.33;-1.68;1.19;232.0;0.17076;-0.134791
1.93;0.5;1.25;0.75;0.75;0.5;0.75;0.0;0.75;2.5;4.0;5.0;5.0;3.5;8.0;0.25;2.25;-0.245117;0.060059;0.957031;-1.75;0.7;-0.35;295.0;0.189334;-0.070832;0.25;0.25;0.25;0.75;0.0;1.0;0.0;1.25;1.5;2.25;4.75;4.0;3.75;5.25;0.5;2.25;-0.241211;0.01123;0.969727;-1.05;-1.54;1.12;231.0;0.196896;-0.126596
1.94;0.5;0.75;1.0;1.25;0.25;0.5;0.0;0.5;2.5;3.5;5.25;5.25;3.5;8.0;0.5;2.25;-0.247559;0.06543;0.962402;-1.82;0.84;-0.28;292.0;0.194811;-0.070821;0.25;0.25;0.25;0.75;0.0;0.75;0.0;1.25;1.25;2.5;4.25;4.0;3.75;5.25;0.5;2.25;-0.241699;0.015625;0.97168;-1.05;-1.4;1.26;224.0;0.199571;-0.12837
1.95;0.25;0.75;0.5;1.25;0.5;0.75;0.0;0.5;2.5;3.5;5.5;5.0;3.5;8.0;0.5;2.25;-0.246094;0.058594;0.957031;-1.82;0.7;-0.42;290.0;0.20158;-0.07391;0.0;0.0;0.25;1.0;0.25;0.75;0.0;1.25;1.25;2.75;5.0;4.5;3.25;5.25;0.25;2.25;-0.242676;0.010254;0.973145;-0.91;-1.47;1.26;232.0;0.202033;-0.125536
1.96;0.75;1.0;0.5;1.25;0.5;0.5;0.0;0.75;2.5;3.5;5.25;5.0;3.5;8.25;0.5;2.25;-0.240723;0.060547;0.958984;-1.75;0.84;-0.28;297.0;0.190265;-0.07189;0.0;0.25;0.5;0.75;0.0;0.75;0.0;1.25;1.5;2.5;4.5;4.0;3.5;5.25;0.5;2.0;-0.242676;0.012207;0.975586;-0.84;-1.4;1.26;226.0;0.20091;-0.119754
1.97;0.25;1.0;1.0;1.25;0.25;0.25;0.0;0.75;2.5;3.75;5.25;5.25;3.5;8.25;0.25;2.5;-0.241211;0.05957;0.958984;-1.75;0.63;-0.42;296.0;0.196358;-0.073011;0.25;0.25;0.75;0.5;0.0;0.75;0.0;1.25;1.25;2.25;4.0;4.0;3.5;5.25;0.5;2.0;-0.246094;0.014648;0.972656;-0.91;-1.4;1.05;219.0;0.193492;-0.120991
1.98;0.25;1.0;1.0;1.5;0.5;0.5;0.0;0.75;2.75;3.75;5.25;5.5;3.25;8.0;0.25;2.5;-0.244629;0.061035;0.955566;-1.82;0.7;-0.49;304.0;0.187169;-0.072258;0.5;0.25;0.5;0.75;0.0;0.5;0.0;1.75;0.5;2.25;4.0;3.75;3.5;5.25;0.5;2.0;-0.246094;0.008789;0.971191;-0.91;-1.47;1.33;215.0;0.18237;-0.141798
1.99;0.75;1.25;0.75;1.25;0.5;0.5;0.0;0.5;2.5;3.75;5.5;5.5;3.25;8.0;0.25;2.25;-0.248047;0.055176;0.961426;-1.89;0.56;-0.63;301.0;0.18305;-0.069517;0.25;0.5;0.25;0.75;0.0;0.5;0.0;1.25;0.75;2.25;4.5;3.5;3.25;5.25;0.75;2.25;-0.243164;0.013672;0.975098;-0.84;-1.47;1.12;212.0;0.19868;-0.129676
2.0;0.75;1.25;0.75;1.25;0.25;0.5;0.0;0.5;2.25;4.25;5.25;5.5;3.5;8.0;0.25;2.25;-0.244629;0.057617;0.953613;-1.96;0.42;-0.49;300.0;0.185184;-0.073786;0.25;0.5;0.25;0.75;0.0;0.5;0.0;1.25;0.5;2.25;4.25;4.5;3.25;5.25;0.25;2.25;-0.239746;0.014648;0.970703;-0.84;-1.4;1.26;212.0;0.193629;-0.142941
2.01;0.5;1.0;1.0;1.25;0.25;0.5;0.0;0.5;2.5;4.25;5.25;5.5;3.5;8.0;0.0;2.25;-0.242188;0.054688;0.959961;-1.89;0.49;-0.56;299.0;0.188802;-0.069984;0.25;0.25;0.5;0.75;0.0;0.25;0.0;1.75;0.5;3.5;4.0;4.5;3.5;5.0;0.25;2.0;-0.243652;0.013184;0.974609;-0.84;-1.33;1.19;224.0;0.19092;-0.140581
2.02;0.25;1.0;1.0;1.25;0.5;0.25;0.0;0.5;3.0;4.25;5.75;5.5;3.5;8.0;0.0;2.5;-0.249023;0.058105;0.962402;-1.89;0.49;-0.63;307.0;0.19552;-0.064188;0.25;0.25;0.5;1.0;0.25;0.5;0.0;1.0;0.5;3.0;4.0;3.75;3.25;5.0;0.5;2.25;-0.25;0.016113;0.966797;-0.77;-1.26;1.33;212.0;0.189602;-0.12632
2.03;0.5;1.0;0.75;1.25;0.5;0.75;0.0;0.5;3.25;3.75;5.25;5.5;3.5;8.0;0.25;2.25;-0.248047;0.054688;0.960938;-1.89;0.49;-0.56;307.0;0.190035;-0.064486;0.25;0.25;0.5;0.75;0.25;0.5;0.0;0.75;0.25;2.25;4.0;3.75;3.0;5.0;0.5;2.0;-0.241699;0.006836;0.971191;-0.77;-1.33;1.12;194.0;0.195076;-0.128582
2.04;0.75;1.25;1.0;1.25;0.5;0.5;0.0;0.75;3.0;3.75;5.25;5.5;3.25;8.0;0.5;1.75;-0.243164;0.056152;0.957031;-1.82;0.28;-0.49;310.0;0.178951;-0.063497;0.25;0.25;0.75;0.5;0.25;0.25;0.0;0.75;0.5;2.0;4.0;3.5;2.75;5.0;0.5;2.0;-0.243652;0.009766;0.975098;-0.84;-1.4;1.19;188.0;0.199906;-0.114128
2.05;0.75;1.25;1.0;1.5;0.75;0.5;0.0;0.75;3.0;3.75;5.25;5.0;3.25;8.0;0.5;2.5;-0.243652;0.063965;0.959473;-1.75;0.42;-0.42;313.0;0.174886;-0.063236;0.25;0.5;0.5;0.75;0.25;0.25;0.0;1.0;0.75;2.0;4.25;3.75;3.0;5.0;0.5;2.0;-0.244629;0.013672;0.96875;-0.98;-1.4;1.12;202.0;0.191413;-0.122479
2.06;1.0;1.25;1.0;1.5;0.5;0.75;0.0;0.5;2.5;4.0;5.25;5.25;3.5;8.0;0.25;2.5;-0.245117;0.056152;0.958984;-1.82;0.49;-0.49;311.0;0.170157;-0.070065;0.25;0.5;0.25;0.0;0.0;0.25;0.0;1.0;0.75;1.75;4.0;4.0;3.5;5.0;0.5;2.25;-0.242188;0.012207;0.974609;-1.05;-1.68;1.19;194.0;0.21754;-0.135279
2.07;0.75;1.25;1.0;1.5;0.5;0.75;0.0;0.5;2.75;4.0;5.25;5.25;3.5;8.0;0.0;2.25;-0.25;0.060059;0.96582;-1.75;0.49;-0.42;308.0;0.172541;-0.067266;0.0;0.75;0.25;0.0;0.0;0.5;0.0;1.0;0.5;1.75;4.25;3.5;2.75;5.0;0.25;2.25;-0.241211;0.006836;0.971191;-1.05;-1.61;1.12;183.0;0.212526;-0.13306
2.08;0.75;1.0;1.0;1.5;0.5;0.75;0.0;0.25;2.5;4.25;5.25;5.25;3.75;8.0;0.25;2.0;-0.244629;0.062988;0.966797;-1.82;0.28;-0.49;305.0;0.178905;-0.066946;0.25;0.75;0.5;0.5;0.25;0.5;0.0;1.0;0.5;2.0;4.0;4.0;2.75;5.0;0.0;2.0;-0.242188;0.015625;0.975586;-1.12;-1.75;1.12;195.0;0.181223;-0.128777
2.09;1.0;1.0;1.0;1.5;0.75;0.75;0.0;0.25;2.5;4.0;5.25;5.5;3.25;8.0;0.25;2.0;-0.243164;0.057617;0.958984;-1.75;0.21;-0.42;306.0;0.172375;-0.062585;0.25;0.75;0.25;0.5;0.0;0.5;0.0;0.75;0.75;1.75;3.75;3.5;2.5;5.0;0.25;2.0;-0.241211;0.013184;0.974609;-1.19;-1.89;1.19;182.0;0.196341;-0.117799
2.1;0.75;1.25;0.75;1.5;0.75;0.25;0.0;0.5;2.5;3.25;5.25;5.25;3.25;8.0;0.25;2.5;-0.245117;0.05957;0.962891;-1.89;0.21;-0.56;295.0;0.17892;-0.069018;0.25;0.5;0.25;0.75;0.0;0.75;0.0;0.75;0.75;2.25;4.0;3.25;2.5;5.25;0.25;2.0;-0.241699;0.009277;0.974121;-1.12;-1.82;1.26;191.0;0.195804;-0.111448
2.11;0.75;1.25;0.75;1.5;0.5;0.25;0.0;0.5;2.5;3.75;5.25;5.25;3.0;8.0;0.25;2.5;-0.246094;0.062988;0.960938;-1.82;-0.0;-0.42;296.0;0.182247;-0.065638;0.0;0.5;0.5;0.75;0.25;0.75;0.0;0.5;1.0;1.75;4.25;3.5;2.75;5.25;0.25;2.25;-0.248535;0.007812;0.97168;-1.26;-1.68;1.19;196.0;0.197563;-0.110002
2.12;0.75;1.75;1.0;1.25;0.5;0.5;0.0;0.5;2.5;3.5;5.25;5.25;3.0;8.0;0.25;2.5;-0.244629;0.060547;0.954102;-1.89;0.21;-0.42;300.0;0.1717;-0.067016;0.0;0.5;0.75;0.75;0.25;0.5;0.0;0.75;1.25;2.25;4.0;3.5;2.75;5.0;0.25;2.25;-0.245605;0.008301;0.980469;-1.19;-1.75;1.12;202.0;0.192351;-0.103826
2.13;1.0;1.25;0.75;1.25;0.5;0.75;0.0;0.5;2.25;3.5;5.25;5.25;3.5;8.0;0.25;2.5;-0.24707;0.062012;0.960938;-1.82;0.07;-0.42;299.0;0.175263;-0.075228;0.5;0.5;0.75;0.75;0.25;0.5;0.0;0.75;1.0;2.5;3.75;3.5;2.75;5.0;0.5;1.5;-0.249023;0.009766;0.975098;-0.91;-1.68;1.26;202.0;0.178416;-0.098657
2.14;1.0;1.5;0.75;1.75;0.5;0.75;0.0;0.5;2.5;3.5;5.25;5.5;3.75;8.0;0.5;2.5;-0.243652;0.056152;0.958008;-1.89;0.14;-0.28;314.0;0.167422;-0.078777;0.25;0.5;0.75;0.75;0.25;0.5;0.0;0.75;1.0;2.5;3.75;3.5;3.0;5.0;0.25;2.0;-0.246582;0.008789;0.978027;-1.12;-1.82;1.26;202.0;0.184108;-0.106794
2.15;0.75;1.5;1.0;2.25;0.5;1.0;0.0;0.5;1.5;3.5;5.25;5.0;3.5;8.0;0.75;2.5;-0.248535;0.057617;0.963867;-1.82;0.21;-0.42;306.0;0.156938;-0.089682;0.25;0.75;0.5;0.5;0.25;0.75;0.0;0.75;1.25;2.0;3.75;3.25;3.0;5.0;0.0;1.75;-0.243164;0.005859;0.973145;-1.05;-1.68;1.26;195.0;0.181106;-0.105658
2.16;1.0;1.0;0.75;1.75;0.25;0.5;0.0;0.5;2.5;3.5;5.25;5.25;3.75;8.0;0.5;2.25;-0.242188;0.055176;0.961914;-1.96;0.56;-0.42;303.0;0.178455;-0.074798;0.25;0.75;0.5;0.5;0.25;0.5;0.0;0.75;1.0;1.75;4.0;3.25;2.75;5.0;0.5;1.75;-0.241699;0.014648;0.979004;-1.05;-1.82;1.26;192.0;0.189159;-0.107191
2.17;0.75;1.0;1.0;1.75;0.25;0.5;0.0;0.75;2.25;4.25;5.5;5.5;3.25;8.0;0.25;2.0;-0.24707;0.058594;0.956543;-1.82;0.21;-0.35;307.0;0.176151;-0.074605;0.25;0.5;0.75;0.5;0.25;0.5;0.0;1.0;1.0;1.75;3.5;3.5;2.75;5.0;0.0;1.75;-0.238281;0.010742;0.969727;-0.91;-1.82;1.4;189.0;0.18055;-0.111529
2.18;0.5;1.25;1.0;1.5;0.25;0.75;0.0;0.75;1.75;3.75;5.5;5.5;3.25;8.0;0.5;2.25;-0.242188;0.057617;0.958496;-1.82;0.21;-0.35;300.0;0.177598;-0.086204;0.25;0.5;0.75;0.75;0.25;0.75;0.0;1.0;0.75;2.0;3.5;3.75;2.75;5.0;0.25;2.0;-0.245117;0.010742;0.973145;-1.12;-1.89;1.26;199.0;0.174808;-0.120968
2.19;0.75;1.25;1.0;1.5;0.5;0.75;0.0;0.75;2.25;3.5;5.5;5.5;3.25;7.75;0.25;2.25;-0.245605;0.05957;0.959961;-1.82;0.14;-0.42;304.0;0.16908;-0.079865;0.25;0.75;0.75;1.0;0.25;0.5;0.0;1.0;0.75;1.75;3.0;3.25;2.0;4.75;0.25;1.75;-0.246582;0.003418;0.968262;-1.05;-1.82;1.26;181.0;0.160593;-0.110327
2.2;1.0;1.25;1.0;1.5;0.5;0.75;0.0;0.75;2.25;3.75;5.0;5.0;3.5;7.75;0.0;2.25;-0.242676;0.060547;0.958984;-1.89;0.14;-0.42;299.0;0.162301;-0.076066;0.25;0.75;0.5;0.75;0.0;0.25;0.0;1.25;0.75;1.75;3.5;3.25;2.25;5.0;0.0;1.75;-0.241699;0.004883;0.973145;-1.05;-1.96;1.33;181.0;0.177454;-0.117723
2.21;0.75;1.5;1.0;1.75;0.5;0.75;0.0;0.5;2.0;4.0;5.25;5.25;3.5;7.75;0.0;2.75;-0.249512;0.062988;0.956543;-1.96;0.07;-0.42;304.0;0.163081;-0.081599;0.25;1.0;0.5;1.0;0.0;0.25;0.0;0.75;0.75;2.0;3.75;3.0;2.0;5.0;0.0;1.75;-0.244141;0.012695;0.978516;-0.98;-1.96;1.19;179.0;0.172922;-0.101946
2.22;0.75;1.25;1.25;2.75;0.25;0.75;0.0;0.75;2.0;3.75;5.5;5.0;3.75;7.75;0.0;2.5;-0.248047;0.056641;0.960449;-1.96;-0.0;-0.35;313.0;0.149488;-0.089319;0.25;0.75;0.5;0.75;0.0;0.25;0.0;0.75;0.5;2.0;3.5;3.0;2.25;4.75;0.0;1.75;-0.241699;0.009277;0.969727;-1.05;-2.03;1.19;170.0;0.181218;-0.112269
2.23;1.0;1.25;1.5;1.75;0.25;0.75;0.0;0.5;2.25;3.75;5.25;5.0;3.75;7.75;0.25;2.25;-0.243164;0.055664;0.958984;-2.1;0.14;-0.42;307.0;0.158655;-0.075055;0.25;1.0;0.75;0.75;0.0;0.5;0.0;0.75;0.5;2.0;3.75;3.25;2.25;4.75;0.25;1.75;-0.243652;0.009766;0.972656;-1.05;-1.96;1.12;183.0;0.168687;-0.114148
2.24;1.25;1.25;1.5;2.25;0.75;0.75;0.0;0.5;2.5;3.25;5.25;4.75;3.75;7.75;0.25;2.25;-0.243164;0.057617;0.962402;-2.1;0.07;-0.42;315.0;0.143507;-0.071315;0.5;0.5;1.0;0.75;0.25;0.5;0.0;1.0;0.75;2.0;3.25;3.25;3.25;4.75;0.25;1.75;-0.241211;0.008301;0.976074;-1.12;-1.96;1.26;195.0;0.162254;-0.118252
2.25;1.0;1.5;1.5;2.5;0.5;1.0;0.0;0.75;2.0;3.0;5.25;5.0;3.5;7.75;0.5;2.0;-0.245117;0.063477;0.95752;-1.96;0.07;-0.35;314.0;0.137664;-0.085412;0.5;0.75;0.75;1.0;0.0;0.5;0.0;1.0;1.0;2.0;3.25;3.0;3.0;4.75;0.25;1.75;-0.246582;0.008789;0.972168;-1.05;-1.89;1.26;193.0;0.160488;-0.113791
2.26;1.0;1.5;1.5;2.5;0.5;1.0;0.0;0.75;2.0;3.25;5.25;5.5;3.25;7.75;0.25;2.25;-0.245605;0.057617;0.965332;-1.96;0.07;-0.42;317.0;0.138071;-0.085984;0.75;0.75;0.75;1.0;0.0;0.5;0.0;0.75;1.0;2.25;3.5;3.25;3.0;4.75;0.25;1.5;-0.243652;0.010742;0.973633;-1.05;-1.89;1.19;198.0;0.158067;-0.105821
2.27;2.0;1.75;1.25;2.5;0.25;1.0;0.0;0.75;2.0;3.0;5.25;5.25;3.25;7.75;0.0;2.0;-0.246582;0.064453;0.963379;-1.96;0.21;-0.35;315.0;0.120842;-0.08226;0.5;0.75;1.0;1.0;0.25;0.75;0.0;0.75;1.0;2.25;3.5;3.25;2.75;4.75;0.25;2.0;-0.251953;0.015137;0.98584;-0.98;-1.89;1.26;203.0;0.154661;-0.104975
2.28;1.75;1.75;1.25;2.25;0.25;0.5;0.0;0.75;2.5;3.0;5.25;5.25;3.25;7.75;0.0;2.0;-0.24707;0.054199;0.960449;-2.03;0.14;-0.42;312.0;0.133847;-0.073494;0.25;0.5;0.75;1.0;0.25;0.75;0.0;0.5;1.0;2.0;3.75;3.25;2.25;4.75;0.25;1.75;-0.242676;0.009766;0.969238;-0.98;-1.89;1.26;189.0;0.173219;-0.098243
2.29;0.75;2.0;1.5;2.5;0.5;0.5;0.0;0.75;2.0;3.75;5.0;5.25;3.0;7.75;0.25;2.0;-0.245117;0.057129;0.962402;-2.03;0.28;-0.42;311.0;0.138544;-0.078754;0.5;0.75;0.75;1.25;0.0;0.75;0.0;0.5;1.0;1.75;3.75;3.25;2.25;4.5;0.25;1.5;-0.246582;0.007812;0.973633;-0.91;-1.82;1.26;187.0;0.154315;-0.103255
2.3;0.5;1.75;1.5;2.5;0.5;0.75;0.0;0.75;1.75;3.75;5.0;4.5;3.5;7.75;0.25;2.0;-0.241699;0.058105;0.96582;-2.03;0.35;-0.28;304.0;0.141558;-0.084071;0.5;0.75;0.75;1.0;0.25;0.75;0.0;0.75;1.0;2.0;3.25;3.0;2.5;4.75;0.5;1.5;-0.244141;0.006836;0.974121;-0.84;-1.75;1.26;192.0;0.15771;-0.100777
2.31;1.0;1.5;1.5;2.75;0.75;1.0;0.0;0.5;1.5;3.5;5.0;5.0;3.5;7.75;0.25;2.25;-0.241211;0.059082;0.960938;-2.03;0.35;-0.42;311.0;0.131732;-0.087123;0.5;0.75;0.75;0.75;0.5;0.75;0.0;0.75;0.25;1.75;4.0;3.0;2.5;4.75;0.25;1.75;-0.246094;0.008789;0.971191;-0.91;-1.82;1.19;187.0;0.155082;-0.117698
2.32;1.25;1.75;1.5;2.75;0.5;0.75;0.0;0.5;1.5;3.5;4.75;5.25;3.25;7.5;0.5;2.25;-0.242676;0.05957;0.962402;-1.89;0.35;-0.35;309.0;0.128564;-0.086538;0.75;1.0;0.75;0.75;0.25;0.75;0.0;0.75;0.25;1.75;3.75;3.0;2.75;4.75;0.25;2.0;-0.243652;0.013184;0.974609;-0.91;-1.68;1.26;190.0;0.146867;-0.122301
2.33;1.0;1.25;1.25;2.75;0.5;0.75;0.0;0.5;1.75;3.25;5.25;5.25;3.5;7.5;0.25;2.25;-0.244141;0.060059;0.964844;-2.03;0.42;-0.35;305.0;0.142206;-0.088811;0.75;1.0;0.75;0.75;0.0;0.75;0.0;0.75;0.5;1.75;3.5;3.0;2.75;4.5;0.25;1.75;-0.243164;0.012207;0.977539;-0.84;-1.61;1.19;185.0;0.147034;-0.120505
2.34;1.0;1.25;1.5;2.75;0.75;1.0;0.0;0.75;1.5;3.0;5.25;5.0;3.25;7.75;0.25;2.25;-0.242188;0.063965;0.958984;-2.03;0.49;-0.42;308.0;0.132578;-0.089882;0.75;1.0;0.75;1.25;0.25;0.75;0.0;1.0;0.5;2.25;3.5;3.0;2.5;4.5;0.0;1.75;-0.241699;0.012695;0.978516;-0.84;-1.68;1.12;195.0;0.129955;-0.118356
2.35;1.25;1.5;1.5;2.5;0.5;1.0;0.0;0.75;1.75;3.0;5.0;5.25;3.25;7.5;0.25;2.25;-0.243652;0.061523;0.967773;-2.1;0.42;-0.35;308.0;0.129778;-0.088691;0.5;1.0;0.75;1.0;0.25;0.75;0.0;0.75;0.5;1.5;3.5;3.0;2.5;4.5;0.0;1.75;-0.245117;0.012207;0.973145;-0.77;-1.61;1.26;181.0;0.140117;-0.12149
2.36;1.75;1.75;1.75;2.5;0.5;1.0;0.0;0.75;1.75;3.0;5.0;5.0;3.25;7.5;0.25;2.5;-0.239258;0.053711;0.956055;-2.1;0.42;-0.35;316.0;0.116509;-0.084507;0.5;1.0;0.75;1.0;0.25;0.75;0.0;0.5;0.75;1.25;3.5;3.0;2.25;4.75;0.25;1.75;-0.238281;0.006836;0.976562;-0.77;-1.54;1.26;181.0;0.149024;-0.10608
2.37;1.5;1.75;1.5;2.5;0.75;1.25;0.0;0.5;1.75;3.25;5.0;5.0;3.75;7.5;0.0;1.75;-0.244629;0.059082;0.958496;-2.1;0.21;-0.42;313.0;0.11729;-0.085211;0.5;1.25;1.0;1.0;0.5;1.0;0.0;0.5;0.5;0.75;3.25;3.0;2.25;4.75;0.5;1.75;-0.241211;0.011719;0.969727;-0.7;-1.47;1.19;183.0;0.12898;-0.113534
2.38;1.0;1.75;1.5;2.5;0.5;1.0;0.0;0.5;1.75;3.25;5.0;5.25;2.75;7.5;0.0;1.25;-0.240234;0.058105;0.962891;-2.03;0.42;-0.35;297.0;0.126336;-0.078226;0.5;1.25;1.0;1.0;0.25;0.75;0.0;0.75;0.5;0.75;3.25;3.25;2.5;3.75;0.25;1.75;-0.238281;0.007324;0.970703;-0.77;-1.47;1.26;176.0;0.119721;-0.136954
2.39;1.0;2.0;1.75;2.75;0.5;1.0;0.0;0.5;1.75;3.5;5.0;5.0;2.75;7.5;0.25;1.75;-0.242188;0.057617;0.96582;-2.24;0.42;-0.42;308.0;0.120868;-0.077814;0.75;1.0;1.0;1.0;0.25;0.75;0.0;0.5;0.75;1.25;3.0;3.25;2.25;3.75;0.0;1.5;-0.240723;0.012207;0.974121;-0.63;-1.4;1.33;173.0;0.119612;-0.113614
2.4;1.5;1.75;1.75;2.75;0.75;1.0;0.0;0.5;2.5;3.0;5.0;4.75;3.0;7.5;0.25;2.0;-0.236328;0.055664;0.963867;-2.17;0.56;-0.49;317.0;0.117596;-0.068093;0.5;1.0;0.75;1.25;0.5;0.75;0.0;0.75;0.5;1.25;3.25;3.25;2.0;3.75;0.25;1.5;-0.244629;0.009766;0.966797;-0.63;-1.54;1.19;176.0;0.122579;-0.125293
2.41;1.25;1.5;1.25;2.75;0.75;1.0;0.0;0.75;2.0;3.0;4.5;5.25;3.0;7.75;0.25;1.75;-0.238281;0.057617;0.958984;-2.17;0.42;-0.42;307.0;0.127208;-0.080841;0.5;1.0;1.0;1.25;0.75;0.75;0.0;0.5;0.25;1.0;3.25;3.25;2.0;4.0;0.25;1.0;-0.239746;0.006836;0.975586;-0.63;-1.47;1.26;172.0;0.112717;-0.118046
2.42;1.25;1.5;1.75;2.5;0.75;1.0;0.0;0.5;1.75;3.5;4.75;5.0;3.25;7.5;0.25;2.0;-0.240723;0.057617;0.966797;-2.17;0.42;-0.49;309.0;0.125819;-0.078443;0.5;1.0;1.25;1.25;0.25;1.0;0.0;0.5;0.5;1.25;3.5;3.25;2.0;4.0;0.25;1.25;-0.246582;0.008789;0.976074;-0.7;-1.61;1.26;180.0;0.11721;-0.114942
2.43;1.75;1.5;1.75;2.75;0.75;1.0;0.0;0.75;1.5;3.5;5.25;4.75;3.0;7.25;0.25;2.0;-0.240234;0.056152;0.958984;-2.1;0.42;-0.42;314.0;0.111905;-0.081393;0.5;1.25;1.0;1.0;0.25;0.5;0.0;0.75;0.5;1.0;3.5;3.25;2.0;4.0;0.25;1.5;-0.237305;0.011719;0.975586;-0.56;-1.54;1.33;175.0;0.126473;-0.121236
2.44;1.75;1.75;2.0;2.75;0.75;1.0;0.0;0.75;1.5;3.0;4.0;5.0;2.75;7.5;0.0;2.0;-0.246582;0.056641;0.960449;-2.03;0.49;-0.42;303.0;0.099631;-0.079177;0.5;1.25;1.25;1.25;0.25;0.5;0.0;0.5;0.25;1.25;3.0;3.25;2.0;4.0;0.25;1.5;-0.244629;0.009277;0.979004;-0.63;-1.61;1.26;171.0;0.114992;-0.118844
2.45;2.0;2.0;1.5;2.5;0.75;1.0;0.0;0.5;1.75;2.75;4.0;5.0;2.75;7.75;0.25;1.25;-0.241699;0.057129;0.957031;-2.1;0.42;-0.35;298.0;0.104125;-0.070131;0.5;1.0;1.0;1.0;0.0;0.75;0.0;0.5;0.5;1.0;2.75;3.25;2.0;4.0;0.0;1.5;-0.242188;0.007324;0.969727;-0.56;-1.54;1.19;161.0;0.127418;-0.120861
2.46;1.25;1.5;1.5;2.5;0.25;1.0;0.0;0.5;2.0;3.0;4.75;4.75;3.0;7.5;0.0;1.5;-0.242676;0.056641;0.962891;-2.1;0.42;-0.49;291.0;0.127549;-0.074866;0.5;1.25;1.0;1.25;0.0;0.75;0.0;0.75;0.75;1.0;3.0;3.0;2.5;3.5;0.0;1.5;-0.240234;0.012695;0.974609;-0.56;-1.61;1.19;171.0;0.11038;-0.132706
2.47;1.0;1.5;1.5;2.5;0.25;1.25;0.0;0.5;2.0;3.0;5.0;5.25;2.75;7.75;0.0;1.75;-0.245117;0.057617;0.954102;-2.1;0.49;-0.42;299.0;0.133498;-0.078291;0.25;1.25;1.0;1.25;0.25;0.75;0.0;0.75;0.5;1.25;3.25;3.0;2.0;3.25;0.25;1.5;-0.242188;0.007324;0.974121;-0.56;-1.61;1.19;170.0;0.113956;-0.132494
2.48;1.25;2.0;1.5;2.75;0.5;1.0;0.0;0.25;1.75;3.5;4.5;5.0;2.75;7.25;0.0;2.0;-0.239746;0.057617;0.959961;-2.17;0.28;-0.35;297.0;0.116982;-0.076263;0.5;1.25;1.0;1.25;0.0;0.75;0.0;0.75;0.25;1.0;2.75;2.75;2.0;3.5;0.0;1.25;-0.241699;0.015137;0.978027;-0.56;-1.61;1.26;157.0;0.099069;-0.135852
2.49;1.5;1.75;1.5;2.75;0.5;1.0;0.0;0.5;1.75;3.75;4.5;5.0;2.75;7.25;0.25;1.75;-0.233887;0.053223;0.965332;-2.17;0.42;-0.35;304.0;0.117391;-0.075819;0.5;1.25;1.0;1.25;0.0;0.75;0.0;1.0;0.5;1.0;2.5;3.25;2.0;3.75;0.0;1.25;-0.24707;0.008789;0.967773;-0.56;-1.68;1.33;167.0;0.104113;-0.135113
2.5;1.5;1.75;1.75;2.75;0.5;1.0;0.0;0.5;1.75;3.75;4.5;5.0;3.0;7.5;0.25;1.75;-0.237793;0.058105;0.963867;-2.1;0.42;-0.42;310.0;0.116521;-0.075394;0.75;1.0;1.0;1.25;0.25;1.0;0.0;0.5;0.25;1.25;2.75;3.0;2.25;3.25;0.0;1.25;-0.242188;0.003906;0.968262;-0.56;-1.61;1.26;163.0;0.09468;-0.132986
2.51;1.25;2.0;1.75;2.5;0.75;1.0;0.0;0.5;1.5;3.0;4.75;4.75;2.75;7.5;0.25;2.0;-0.241211;0.055176;0.962891;-2.03;0.49;-0.35;299.0;0.114848;-0.078567;0.75;1.0;1.0;1.25;0.25;0.75;0.0;0.5;0.25;1.25;3.0;3.0;1.75;3.25;0.25;1.5;-0.243652;0.008789;0.97168;-0.63;-1.61;1.19;162.0;0.104367;-0.123938
2.52;1.25;1.5;1.75;2.5;0.75;0.75;0.0;0.5;2.0;3.5;4.75;4.75;2.75;7.5;0.0;2.0;-0.247559;0.059082;0.963867;-2.1;0.42;-0.35;301.0;0.125899;-0.067468;0.5;1.0;1.0;1.25;0.25;0.5;0.0;0.5;0.5;1.25;3.0;3.25;1.75;3.5;0.5;1.5;-0.23877;0.01123;0.977051;-0.77;-1.61;1.26;167.0;0.125666;-0.116865
2.53;1.5;1.75;1.75;2.75;0.75;0.75;0.0;0.5;2.75;4.0;4.5;4.75;3.0;7.25;0.0;2.25;-0.244629;0.056152;0.956543;-2.1;0.56;-0.42;319.0;0.119776;-0.061596;0.5;1.0;0.75;1.25;0.0;0.5;0.0;0.5;0.75;1.25;3.0;3.0;2.0;3.25;0.25;1.5;-0.245605;0.010742;0.968262;-0.77;-1.61;1.19;160.0;0.129462;-0.120992
2.54;1.75;1.75;1.75;2.75;0.75;1.0;0.0;0.5;2.5;3.5;4.0;4.25;3.0;7.25;0.25;2.0;-0.237305;0.051758;0.959961;-2.1;0.42;-0.35;308.0;0.109595;-0.061799;0.25;1.0;0.75;1.0;0.0;0.5;0.0;0.5;0.5;1.25;2.5;3.0;2.0;3.5;0.25;1.5;-0.241699;0.008789;0.976562;-0.63;-1.61;1.26;151.0;0.141724;-0.126497
2.55;1.5;1.75;1.5;2.75;0.25;1.0;0.0;0.25;1.5;3.5;4.5;4.75;3.0;7.25;0.0;2.0;-0.241211;0.057617;0.962402;-2.1;0.35;-0.42;292.0;0.116886;-0.079433;0.25;1.25;1.0;1.0;0.0;0.5;0.0;0.75;0.5;1.5;2.5;2.75;2.0;3.0;0.0;1.25;-0.244629;0.008301;0.969727;-0.77;-1.68;1.19;151.0;0.113567;-0.130475
2.56;2.0;1.75;1.75;2.75;0.25;1.0;0.0;0.25;2.25;2.75;4.0;5.0;2.75;7.25;0.25;2.0;-0.245605;0.058105;0.960449;-2.03;0.42;-0.42;298.0;0.108378;-0.067511;0.5;1.25;0.75;1.25;0.25;0.25;0.0;0.75;0.5;1.25;2.75;2.5;2.0;3.25;0.0;1.25;-0.243652;0.009766;0.97168;-0.84;-1.61;1.26;153.0;0.108343;-0.123424
2.57;1.5;2.0;1.75;2.75;0.75;1.0;0.0;0.5;2.25;2.75;3.75;4.75;2.75;7.25;0.0;1.75;-0.241699;0.053711;0.961914;-2.1;0.35;-0.42;296.0;0.102707;-0.069091;0.5;1.0;0.75;1.25;0.0;0.25;0.0;1.0;0.75;1.25;2.75;2.75;2.0;3.5;0.0;1.0;-0.237305;0.01123;0.968262;-0.91;-1.61;1.19;157.0;0.121332;-0.121702
2.58;1.5;1.75;2.0;2.5;0.75;1.25;0.0;0.5;2.0;3.25;4.5;4.25;2.75;7.25;0.0;1.75;-0.241699;0.055664;0.963379;-2.1;0.56;-0.49;300.0;0.105974;-0.066486;0.5;1.0;0.75;1.0;0.0;0.75;0.0;0.5;0.25;1.25;3.0;2.75;2.0;3.0;0.0;1.0;-0.239258;0.012695;0.969727;-0.91;-1.61;1.19;146.0;0.114421;-0.135106
2.59;1.5;2.0;1.5;3.0;0.75;1.0;0.0;0.25;2.25;2.75;5.0;5.0;2.75;7.25;0.0;1.75;-0.237793;0.055664;0.961426;-2.03;0.42;-0.42;306.0;0.108957;-0.071428;0.75;1.25;0.75;1.25;0.25;0.75;0.0;0.25;0.25;1.25;2.5;2.25;2.0;2.75;0.25;1.0;-0.240234;0.015137;0.974121;-0.77;-1.54;1.12;144.0;0.086574;-0.12319
2.6;2.25;1.75;2.0;3.0;0.75;1.0;0.0;0.25;2.0;2.75;3.75;5.25;2.75;7.25;0.25;1.75;-0.244141;0.056152;0.961426;-2.03;0.42;-0.42;306.0;0.093033;-0.067748;0.5;1.25;0.5;1.0;0.0;0.5;0.0;0.5;0.5;1.25;2.5;2.75;2.25;3.0;0.25;1.25;-0.246094;0.012695;0.972168;-0.77;-1.61;1.19;147.0;0.123959;-0.134561
2.61;2.25;1.75;2.5;3.25;0.75;1.0;0.0;0.5;2.0;3.0;3.5;4.25;2.75;7.25;0.25;2.0;-0.23877;0.057129;0.961914;-2.03;0.28;-0.42;308.0;0.081489;-0.062992;0.5;1.25;0.5;1.25;0.0;0.75;0.0;1.0;0.25;0.75;2.5;2.75;2.25;3.0;0.25;1.25;-0.232422;0.012207;0.974609;-0.84;-1.61;1.19;151.0;0.102069;-0.161958
2.62;1.75;2.0;2.0;2.75;0.5;1.0;0.0;0.5;1.5;3.25;3.75;4.25;3.0;7.25;0.0;1.75;-0.237793;0.057129;0.967773;-2.03;0.35;-0.42;292.0;0.094364;-0.074254;0.5;1.25;0.75;1.25;0.0;0.75;0.0;0.5;0.25;0.75;2.5;2.75;1.25;3.25;0.25;1.25;-0.240234;0.007812;0.969238;-0.84;-1.47;1.19;142.0;0.101559;-0.127656
2.63;2.25;2.25;2.0;2.75;0.5;1.25;0.0;0.5;1.5;2.75;3.75;4.5;2.75;7.25;0.25;1.5;-0.243164;0.057129;0.956055;-2.03;0.49;-0.42;297.0;0.081473;-0.074114;0.25;1.25;0.75;1.25;0.0;0.5;0.0;0.5;0.75;1.5;3.0;2.75;1.25;3.25;0.0;1.25;-0.242188;0.009766;0.96875;-0.7;-1.47;1.19;151.0;0.123319;-0.106366
2.64;2.25;2.0;2.0;2.75;0.25;1.25;0.0;0.5;1.0;3.5;3.75;4.5;2.75;7.25;0.25;2.0;-0.240723;0.052246;0.956055;-1.96;0.35;-0.35;297.0;0.088731;-0.079816;0.5;1.5;0.75;1.25;0.0;0.5;0.0;0.75;0.75;1.5;3.25;2.5;1.75;3.25;0.25;1.5;-0.242188;0.008301;0.970703;-0.77;-1.47;1.33;166.0;0.114266;-0.116315
2.65;2.0;2.0;2.0;2.75;0.25;1.25;0.0;0.5;1.0;3.25;4.0;4.5;2.75;7.25;0.25;1.25;-0.239258;0.058105;0.962402;-1.82;0.42;-0.49;291.0;0.089087;-0.079804;0.75;1.5;0.5;1.5;0.0;0.5;0.0;0.25;0.5;1.0;2.75;2.5;2.0;3.25;0.5;1.5;-0.241699;0.011719;0.970703;-0.77;-1.47;1.26;154.0;0.107592;-0.122193
2.66;2.0;2.25;2.0;2.75;0.5;1.25;0.0;0.5;1.5;2.75;4.75;4.5;2.75;7.25;0.0;1.0;-0.248047;0.067871;0.956055;-1.96;0.56;-0.42;299.0;0.084662;-0.074767;0.25;1.5;0.75;1.5;0.0;0.75;0.0;0.25;0.5;1.25;2.25;2.75;1.75;3.5;0.25;1.5;-0.240723;0.01123;0.972168;-0.77;-1.54;1.19;152.0;0.110935;-0.120767
2.67;1.5;2.25;2.0;2.25;0.5;1.0;0.0;0.5;1.25;2.75;4.0;5.0;2.75;7.25;0.25;1.25;-0.243652;0.061523;0.961914;-1.89;0.35;-0.35;287.0;0.100477;-0.080371;0.25;1.5;1.0;1.5;0.0;0.75;0.0;0.5;0.5;1.25;2.0;2.75;1.25;2.75;0.0;1.5;-0.243164;0.010742;0.970215;-0.91;-1.33;1.33;144.0;0.083034;-0.126451
2.68;1.75;2.25;1.75;2.75;0.25;1.25;0.0;0.5;1.25;2.75;3.75;4.0;2.75;7.25;0.25;1.5;-0.243652;0.057129;0.959961;-1.96;0.49;-0.49;281.0;0.089823;-0.07931;0.5;1.5;0.75;1.5;0.0;0.75;0.0;0.5;0.25;1.25;2.25;2.5;1.75;2.75;0.25;1.5;-0.239258;0.006836;0.969727;-0.91;-1.26;1.26;147.0;0.0855;-0.13889
2.69;1.75;2.0;1.5;2.75;0.5;1.0;0.0;0.5;1.75;3.0;3.75;4.0;3.0;7.0;0.0;1.25;-0.243164;0.056641;0.95752;-1.82;0.49;-0.49;281.0;0.095709;-0.072561;0.75;1.5;0.5;1.5;0.0;0.75;0.0;0.75;0.25;1.25;2.5;2.5;1.75;3.0;0.25;1.5;-0.241699;0.010742;0.97168;-0.91;-1.26;1.12;154.0;0.087743;-0.140081
2.7;2.0;2.0;2.0;2.75;0.5;1.0;0.0;0.75;1.75;3.0;3.75;4.25;3.0;7.0;0.25;1.75;-0.243164;0.057129;0.958496;-1.68;0.49;-0.49;298.0;0.090448;-0.075688;0.75;1.5;0.75;1.5;0.0;0.5;0.0;0.25;0.75;1.25;2.75;2.75;1.25;3.0;0.25;1.75;-0.241699;0.007324;0.975586;-0.98;-1.33;1.19;155.0;0.099727;-0.105251
2.71;1.5;2.0;2.0;2.75;0.75;1.0;0.0;0.5;1.5;3.0;4.5;4.25;2.75;7.0;0.0;2.25;-0.240234;0.049805;0.960449;-1.96;0.49;-0.42;295.0;0.097821;-0.07747;0.5;1.75;0.75;1.5;0.0;0.5;0.0;0.25;0.5;1.25;3.0;3.0;1.75;2.75;0.0;1.5;-0.241211;0.006348;0.973145;-0.98;-1.33;1.12;155.0;0.092613;-0.129066
2.72;1.5;2.0;2.0;2.75;0.75;1.0;0.0;0.5;1.75;3.0;3.75;4.75;2.75;7.0;0.25;1.75;-0.236328;0.058105;0.960449;-1.89;0.35;-0.42;295.0;0.09837;-0.074819;0.5;1.25;0.75;1.5;0.25;0.75;0.0;0.5;0.25;1.25;2.75;2.25;1.75;3.0;0.0;1.25;-0.240234;0.004883;0.978027;-1.05;-1.26;1.05;148.0;0.088109;-0.128075
2.73;1.5;2.25;1.75;2.75;0.75;1.25;0.0;0.5;1.75;3.0;3.75;4.75;2.25;7.0;0.0;1.75;-0.243652;0.058594;0.959961;-2.03;0.49;-0.42;291.0;0.092682;-0.073357;0.5;1.25;0.75;1.25;0.25;0.75;0.0;0.5;0.0;1.25;1.75;2.5;1.75;3.25;0.25;1.25;-0.242188;0.013672;0.976074;-0.91;-1.33;1.19;140.0;0.093427;-0.133111
2.74;2.0;2.0;2.5;3.25;1.0;1.0;0.0;0.5;2.25;3.0;3.75;4.5;2.5;6.75;0.0;2.0;-0.237305;0.056152;0.961426;-1.89;0.42;-0.35;310.0;0.077033;-0.063247;0.75;1.25;0.75;1.25;0.0;0.5;0.0;0.5;0.25;1.25;2.5;2.5;1.75;3.25;0.0;1.25;-0.236816;0.007812;0.971191;-0.84;-1.47;1.26;145.0;0.097612;-0.122691
2.75;2.0;2.0;2.0;3.0;1.0;1.0;0.0;0.5;2.0;2.75;4.0;4.5;2.75;7.0;0.0;1.5;-0.245605;0.054688;0.962402;-1.96;0.42;-0.42;302.0;0.083798;-0.067835;0.75;1.25;0.75;1.25;0.0;0.75;0.0;0.75;0.5;1.0;2.0;2.25;1.25;3.0;0.0;1.5;-0.238281;0.005859;0.974121;-0.84;-1.4;1.05;140.0;0.082427;-0.120383
2.76;2.0;2.75;2.75;2.75;1.0;0.75;0.0;0.5;2.0;3.0;3.75;4.5;2.75;7.0;0.0;1.25;-0.242188;0.056152;0.961426;-1.96;0.42;-0.42;309.0;0.070078;-0.061243;0.5;1.5;1.0;1.5;0.25;0.75;0.0;0.75;0.5;1.0;2.5;2.5;1.25;3.75;0.0;1.5;-0.237793;0.009766;0.972656;-0.98;-1.47;1.19;159.0;0.086416;-0.11209
2.77;2.0;2.25;2.0;3.0;0.75;0.75;0.0;0.5;2.0;3.0;4.0;4.75;3.0;7.25;0.0;1.5;-0.244629;0.059082;0.962891;-2.17;0.56;-0.49;307.0;0.088412;-0.069525;0.5;1.5;1.0;1.25;0.25;0.75;0.0;0.5;0.5;1.25;2.75;2.75;1.25;3.75;0.0;1.0;-0.245117;0.016113;0.975098;-0.91;-1.54;1.19;158.0;0.095639;-0.102072
2.78;1.75;2.25;2.0;3.25;0.75;1.0;0.0;0.5;1.75;3.0;4.0;4.5;2.5;7.25;0.25;1.5;-0.23877;0.054199;0.961426;-1.96;0.42;-0.49;303.0;0.086234;-0.070307;1.0;1.5;1.0;1.75;0.5;0.5;0.0;0.5;0.5;1.5;2.5;2.75;1.75;3.25;0.0;1.0;-0.240234;0.008789;0.969727;-0.84;-1.47;1.26;167.0;0.067455;-0.106969
2.79;2.0;3.0;2.0;3.25;0.75;1.0;0.0;0.5;1.75;3.0;3.75;4.5;2.75;7.0;0.25;1.5;-0.252441;0.054199;0.960449;-2.03;0.42;-0.49;309.0;0.07101;-0.074283;0.75;1.75;1.0;1.5;0.25;0.5;0.0;0.25;0.75;1.5;2.5;2.75;1.75;3.25;0.0;1.0;-0.236816;0.008789;0.977539;-0.84;-1.61;1.12;161.0;0.080565;-0.099209
2.8;2.25;2.25;2.0;3.25;1.0;1.0;0.0;0.5;1.75;3.0;3.75;4.75;2.75;7.0;0.0;1.5;-0.239258;0.056641;0.95752;-2.03;0.35;-0.42;307.0;0.073914;-0.071788;0.5;1.75;1.0;1.5;0.25;0.5;0.0;0.25;0.75;1.5;2.5;2.5;1.75;3.0;0.0;1.0;-0.238281;0.012207;0.974121;-0.7;-1.61;1.19;155.0;0.081672;-0.102514
2.81;2.25;2.75;2.5;3.25;1.0;1.25;0.0;0.75;1.75;2.75;4.0;4.75;3.0;7.0;0.0;1.25;-0.237305;0.059082;0.963379;-2.17;0.28;-0.42;322.0;0.060118;-0.077735;0.75;1.75;1.0;1.75;0.25;0.25;0.0;0.75;0.5;1.0;2.5;2.25;1.75;2.75;0.0;1.25;-0.237305;0.008301;0.972656;-0.77;-1.54;1.33;154.0;0.057716;-0.124283
2.82;2.25;2.75;2.0;3.25;1.0;1.25;0.0;0.5;2.0;2.75;3.75;4.25;2.75;7.0;0.25;1.5;-0.242188;0.058105;0.968262;-2.17;0.49;-0.49;312.0;0.067127;-0.06923;0.75;1.5;0.75;1.5;0.25;0.25;0.0;0.75;0.5;1.0;2.25;2.5;1.75;3.25;0.25;1.25;-0.242676;0.01709;0.974121;-0.7;-1.54;1.26;153.0;0.086921;-0.120423
2.83;2.25;2.75;2.5;3.25;1.0;0.75;0.0;0.5;2.0;2.75;3.75;4.25;2.5;7.0;0.25;2.0;-0.244629;0.054199;0.95752;-2.17;0.35;-0.42;312.0;0.066893;-0.063382;0.75;1.5;0.75;1.25;0.25;0.5;0.0;0.75;0.75;1.25;2.75;2.5;1.75;3.25;0.25;1.5;-0.23877;0.005859;0.978516;-0.77;-1.54;1.12;163.0;0.099371;-0.113245
2.84;2.5;2.75;2.5;3.75;1.0;1.25;0.0;0.5;2.0;2.75;3.75;4.25;2.25;7.0;0.25;1.5;-0.239258;0.058105;0.958008;-2.03;0.42;-0.42;320.0;0.052808;-0.063436;0.75;1.5;0.75;1.75;0.0;0.5;0.0;0.75;0.5;1.5;2.5;1.75;1.75;3.25;0.25;1.25;-0.237305;0.007812;0.973145;-0.77;-1.54;1.26;155.0;0.082138;-0.114192
2.85;2.0;2.75;3.0;4.25;1.25;1.25;0.0;0.5;1.75;2.75;4.0;4.0;2.25;7.0;0.25;1.25;-0.242676;0.060059;0.960449;-2.03;0.35;-0.35;323.0;0.045514;-0.065688;0.75;1.5;1.0;1.75;0.0;0.5;0.0;0.5;0.5;1.5;2.25;2.25;1.25;3.25;0.25;1.0;-0.242676;0.009766;0.97168;-0.77;-1.54;1.19;152.0;0.076125;-0.100592
2.86;2.5;3.0;2.5;3.0;1.0;1.0;0.0;0.5;1.75;2.75;3.75;4.0;2.25;7.0;0.25;0.75;-0.241211;0.055664;0.97168;-2.17;0.35;-0.35;304.0;0.052646;-0.057387;0.5;1.5;1.0;1.5;0.25;0.5;0.0;0.75;0.25;1.25;2.5;2.5;1.25;2.75;0.25;1.0;-0.239258;0.006348;0.969727;-0.77;-1.61;1.19;149.0;0.074043;-0.124575
2.87;2.0;3.0;2.5;3.0;1.0;1.0;0.0;0.5;1.75;2.5;3.75;4.75;2.5;6.75;0.0;0.75;-0.245117;0.061035;0.959473;-2.03;0.42;-0.42;302.0;0.057204;-0.069544;0.5;1.75;1.0;1.5;0.25;0.75;0.0;0.75;0.25;1.25;2.5;2.5;1.75;2.5;0.25;1.0;-0.242676;0.024902;0.968262;-0.7;-1.54;1.26;155.0;0.062968;-0.138759
2.88;2.0;3.0;2.75;3.25;1.0;1.0;0.0;0.5;2.25;2.5;4.0;4.25;2.5;6.75;0.25;1.25;-0.243652;0.058105;0.955566;-2.1;0.56;-0.42;314.0;0.059496;-0.062521;0.75;1.5;1.0;1.75;0.25;0.75;0.0;0.5;0.25;1.75;2.25;1.75;1.75;2.5;0.0;1.0;-0.241699;0.013672;0.979004;-0.77;-1.47;1.12;147.0;0.049684;-0.118825
2.89;2.0;2.25;2.75;3.25;1.0;1.25;0.0;0.5;1.75;2.75;4.0;4.0;2.5;7.0;0.0;1.5;-0.242676;0.046875;0.959961;-2.1;0.56;-0.35;306.0;0.064268;-0.06497;0.75;1.25;1.0;1.5;0.25;0.75;0.0;0.5;0.25;1.5;2.25;1.75;1.0;3.0;0.0;1.25;-0.234863;0.013184;0.972656;-0.77;-1.54;1.05;140.0;0.06573;-0.099843
2.9;1.75;2.25;2.75;3.25;1.0;1.25;0.0;0.5;1.75;2.75;4.0;4.25;2.25;7.0;0.25;1.5;-0.240723;0.058105;0.966309;-2.17;0.56;-0.42;307.0;0.070455;-0.065611;1.0;1.5;1.0;1.5;0.0;0.75;0.0;0.75;0.5;1.25;2.25;2.25;1.25;2.25;0.0;1.5;-0.246582;0.010254;0.969238;-0.7;-1.54;1.12;148.0;0.050034;-0.12398
2.91;2.0;3.0;2.75;2.75;1.0;1.25;0.0;0.5;1.75;3.25;3.75;4.25;2.25;6.75;0.25;1.0;-0.241699;0.059082;0.960938;-2.03;0.56;-0.35;308.0;0.060482;-0.061274;1.25;1.5;0.75;1.75;0.25;1.0;0.0;0.5;0.5;1.25;2.5;1.75;1.25;2.25;0.0;1.0;-0.238281;0.004883;0.965332;-0.7;-1.47;1.19;147.0;0.031612;-0.110894
2.92;2.25;3.0;2.75;3.75;1.25;1.25;0.0;0.5;2.0;3.0;3.75;4.25;1.75;6.75;0.0;1.25;-0.243652;0.051758;0.961426;-2.03;0.63;-0.42;317.0;0.04376;-0.058056;1.0;1.75;0.75;1.75;0.25;1.0;0.0;0.5;0.75;1.25;1.5;2.5;1.0;2.0;0.0;1.0;-0.239746;0.010254;0.975586;-0.77;-1.68;1.19;144.0;0.026203;-0.114926
2.93;2.0;2.25;2.5;4.0;1.0;1.0;0.0;0.5;1.5;3.0;3.75;4.25;1.75;7.0;0.0;1.25;-0.241211;0.054199;0.958984;-2.03;0.56;-0.35;301.0;0.056772;-0.06353;1.0;1.5;1.0;1.75;0.25;0.75;0.0;0.5;0.5;1.25;1.25;2.5;1.0;2.25;0.0;1.0;-0.240723;0.013184;0.973145;-0.63;-1.75;1.26;139.0;0.027652;-0.112075
2.94;2.25;2.25;2.5;3.75;0.75;1.0;0.0;0.5;1.5;3.0;4.5;4.25;1.75;6.75;0.0;1.25;-0.241699;0.052734;0.959961;-2.1;0.49;-0.42;304.0;0.059034;-0.064582;1.0;1.5;1.0;1.75;0.25;0.75;0.0;0.75;0.5;1.5;1.75;1.75;1.25;2.25;0.25;1.25;-0.24707;0.005371;0.976074;-0.77;-1.68;1.26;147.0;0.037826;-0.112853
2.95;1.75;2.75;2.5;3.75;0.75;1.25;0.0;0.5;1.0;2.75;4.0;4.25;2.25;6.5;0.0;0.5;-0.246094;0.058594;0.962402;-2.17;0.42;-0.49;292.0;0.046082;-0.080221;1.0;1.75;1.25;2.0;0.0;0.75;0.0;0.75;0.5;1.5;2.25;1.25;1.25;2.0;0.25;0.75;-0.239258;0.016113;0.966797;-0.63;-1.68;1.12;147.0;0.015434;-0.109825
2.96;2.25;3.0;2.75;4.0;1.0;1.25;0.0;0.5;2.25;2.75;3.75;4.25;2.25;6.5;0.0;0.5;-0.238281;0.055664;0.958984;-2.1;0.56;-0.35;316.0;0.039005;-0.061333;1.0;1.75;1.25;1.75;0.0;0.75;0.0;0.5;0.75;1.25;2.25;1.75;1.75;2.5;0.25;0.75;-0.248047;0.01416;0.972656;-0.7;-1.61;1.26;154.0;0.040097;-0.10493
2.97;2.5;3.0;3.25;4.0;1.25;1.25;0.0;0.75;1.5;2.75;4.0;4.0;2.25;6.0;0.25;1.0;-0.237793;0.054688;0.961914;-2.17;0.42;-0.42;321.0;0.02514;-0.072336;1.0;2.0;1.25;1.75;0.25;1.0;0.0;0.25;0.75;1.25;2.25;1.75;1.75;2.5;0.25;1.0;-0.239258;0.009277;0.977539;-0.63;-1.68;1.19;158.0;0.032748;-0.101425
2.98;2.25;3.0;3.25;4.0;0.75;1.25;0.0;0.5;1.5;2.5;4.5;4.0;2.25;6.0;0.5;1.25;-0.245117;0.058594;0.95752;-2.1;0.42;-0.42;317.0;0.035801;-0.074788;1.0;2.0;1.25;2.0;0.25;0.75;0.0;0.25;0.75;1.25;2.25;1.75;1.75;2.5;0.25;1.0;-0.239746;0.009277;0.972656;-0.77;-1.75;1.4;158.0;0.030764;-0.10075
2.99;2.25;3.0;3.0;4.75;0.75;1.25;0.0;0.25;1.75;2.5;3.75;4.0;1.75;6.75;0.25;1.0;-0.241211;0.056152;0.966309;-2.17;0.14;-0.42;313.0;0.030445;-0.062376;1.25;2.0;1.25;2.0;0.0;0.75;0.0;0.5;0.75;1.5;2.0;1.75;1.75;2.5;0.25;1.0;-0.234375;0.005371;0.97168;-0.7;-1.61;1.26;161.0;0.02649;-0.103553
3.0;2.5;3.25;2.75;3.75;0.5;1.25;0.0;0.5;1.75;3.0;3.5;4.0;2.25;6.75;0.25;1.0;-0.237305;0.058594;0.959961;-2.17;0.56;-0.49;312.0;0.04015;-0.065006;1.0;2.0;1.5;2.25;0.0;1.0;0.0;0.5;0.75;1.5;2.0;2.25;1.75;2.0;0.25;1.25;-0.237793;0.005371;0.96875;-0.77;-1.75;1.26;168.0;0.020067;-0.120029
3.01;2.5;3.0;2.75;4.0;0.5;1.25;0.0;0.25;1.75;3.0;4.5;4.0;2.25;6.5;0.75;0.75;-0.236816;0.057617;0.958496;-2.17;0.56;-0.56;320.0;0.048023;-0.064397;0.75;1.75;1.5;2.0;0.0;0.5;0.0;0.5;0.75;1.25;1.75;2.25;1.25;2.5;0.25;1.0;-0.242676;0.007812;0.971191;-0.91;-1.68;1.26;152.0;0.038442;-0.10246
3.02;2.5;3.0;3.0;4.0;0.75;0.75;0.0;0.25;1.75;3.0;3.75;4.0;2.25;6.75;0.25;0.75;-0.239746;0.051758;0.963867;-2.17;0.42;-0.42;311.0;0.040522;-0.056514;1.0;2.0;1.5;1.75;0.25;0.25;0.0;0.5;0.75;1.25;2.25;2.25;1.25;3.0;0.25;0.75;-0.239746;0.009277;0.969727;-0.91;-1.68;1.26;160.0;0.04324;-0.086433
3.03;2.5;3.25;2.5;4.25;0.75;0.75;0.0;0.5;1.75;2.75;3.75;4.0;2.5;6.5;0.0;0.75;-0.242188;0.05957;0.956055;-2.17;0.42;-0.49;309.0;0.033891;-0.068533;1.0;2.25;1.5;2.0;0.25;0.75;0.0;0.5;0.75;1.5;2.0;2.25;1.0;2.25;0.0;1.0;-0.244141;0.009277;0.974121;-0.84;-1.61;1.26;161.0;0.011076;-0.098437
3.04;2.25;3.0;2.75;4.0;0.75;1.0;0.0;0.5;1.75;2.75;3.75;4.25;2.25;6.75;0.25;0.75;-0.241699;0.050781;0.956543;-2.03;0.56;-0.42;312.0;0.043745;-0.066297;1.0;2.0;1.25;1.75;0.25;0.25;0.0;0.75;0.5;1.5;2.25;1.75;1.0;2.25;0.25;1.25;-0.239258;0.01416;0.973633;-0.84;-1.54;1.12;151.0;0.031142;-0.102115
3.05;2.25;3.0;3.0;3.75;1.0;1.0;0.0;0.5;1.75;2.75;4.0;4.25;2.25;6.75;0.25;1.0;-0.244141;0.057617;0.961426;-2.1;0.49;-0.42;317.0;0.045041;-0.064315;1.25;1.75;1.0;1.75;0.25;0.25;0.0;0.5;0.5;1.5;2.25;1.75;1.0;2.5;0.25;1.25;-0.242676;0.018555;0.970703;-0.7;-1.4;1.33;148.0;0.040869;-0.091581
3.06;2.75;3.25;2.75;4.75;0.75;1.25;0.0;0.5;1.75;2.75;3.75;4.25;2.25;6.5;0.0;1.25;-0.237793;0.052734;0.963379;-2.03;0.7;-0.42;325.0;0.024402;-0.072337;0.75;1.75;1.25;2.0;0.25;0.25;0.0;0.5;0.75;1.5;2.5;1.75;1.0;2.25;0.25;1.0;-0.243652;0.006348;0.974609;-0.77;-1.54;1.12;150.0;0.043654;-0.091785
3.07;2.75;3.25;3.0;4.25;1.0;1.25;0.0;0.5;1.5;4.0;3.5;4.25;1.75;6.75;0.0;1.25;-0.237793;0.057129;0.95752;-2.1;0.63;-0.49;329.0;0.030014;-0.060525;0.75;1.75;1.5;1.75;0.25;0.25;0.0;0.5;0.5;1.75;1.75;2.25;0.75;2.25;0.25;0.75;-0.239258;0.015137;0.967773;-0.77;-1.47;1.19;144.0;0.03545;-0.09001
3.08;3.0;3.25;3.0;4.25;1.0;0.75;0.0;0.5;1.5;4.0;3.5;4.0;2.25;6.75;0.0;1.25;-0.237793;0.055664;0.963379;-1.96;0.63;-0.42;328.0;0.030048;-0.059365;1.0;1.75;1.25;1.75;0.5;0.5;0.0;0.75;0.75;1.25;1.75;2.25;1.0;2.25;0.25;1.0;-0.240723;0.015137;0.973633;-0.84;-1.47;1.12;153.0;0.02981;-0.100624
3.09;2.5;3.0;3.0;4.25;0.75;0.75;0.0;0.25;1.25;3.5;3.75;4.25;2.25;6.75;0.0;1.25;-0.241211;0.055176;0.95752;-1.89;0.56;-0.42;314.0;0.038052;-0.065226;1.25;1.75;1.0;1.75;0.25;0.75;0.0;0.5;0.25;1.25;1.75;2.25;0.75;1.75;0.25;1.0;-0.242188;0.017578;0.973145;-0.77;-1.4;1.26;139.0;0.007921;-0.116578
3.1;2.75;3.0;2.75;4.0;0.75;1.25;0.0;0.0;2.0;3.25;4.0;4.25;2.25;6.5;0.25;1.25;-0.239258;0.055664;0.961426;-1.96;0.56;-0.42;322.0;0.04336;-0.057761;1.0;1.75;1.25;1.75;0.25;0.5;0.0;0.5;0.25;1.25;2.0;2.25;0.75;2.0;0.25;1.0;-0.233887;0.010742;0.971191;-0.91;-1.54;1.33;141.0;0.020836;-0.110351
3.11;2.75;3.25;3.0;4.75;0.5;1.25;0.0;0.25;2.25;3.0;3.5;4.0;2.25;7.0;0.25;1.25;-0.243652;0.064453;0.960938;-1.89;0.63;-0.49;331.0;0.033211;-0.058011;1.0;2.0;1.25;1.75;0.25;0.5;0.0;0.25;0.5;1.5;2.0;2.5;1.0;2.0;0.25;1.0;-0.243164;0.007812;0.970703;-0.84;-1.47;1.05;149.0;0.02806;-0.102498
3.12;2.5;3.25;3.0;4.25;0.5;1.25;0.0;0.25;2.25;3.0;3.5;4.0;2.25;6.5;0.0;1.25;-0.241211;0.059082;0.963379;-1.96;0.77;-0.42;319.0;0.033927;-0.059223;1.0;2.5;1.25;2.0;0.25;0.75;0.0;0.25;0.75;1.5;2.0;2.25;1.25;2.5;0.25;1.25;-0.237305;0.00293;0.975098;-0.84;-1.54;1.19;164.0;0.024407;-0.098554
3.13;2.25;3.25;2.75;4.25;0.75;1.25;0.0;0.25;1.75;2.75;3.5;4.25;2.25;6.0;0.25;1.0;-0.241699;0.062012;0.959473;-1.75;0.63;-0.42;308.0;0.03099;-0.071087;1.25;2.25;1.5;1.75;0.25;0.75;0.0;0.5;0.75;1.25;2.25;2.25;1.0;2.5;0.25;1.25;-0.241699;0.003906;0.975586;-0.84;-1.47;1.19;166.0;0.021685;-0.094625
3.14;2.25;3.25;2.75;4.25;0.75;1.0;0.0;0.25;1.75;2.75;3.25;4.25;2.25;6.0;0.25;1.0;-0.242676;0.055664;0.956055;-1.96;0.63;-0.42;304.0;0.030956;-0.069253;1.25;2.0;1.25;2.0;0.25;0.5;0.0;0.5;0.75;1.25;2.25;2.25;0.75;2.5;0.25;1.0;-0.235352;0.01123;0.97168;-0.77;-1.33;1.05;158.0;0.025101;-0.08996
3.15;2.5;3.25;2.75;4.75;1.0;0.75;0.0;0.25;1.25;2.75;3.0;4.25;2.25;6.0;0.25;1.25;-0.234863;0.059082;0.968262;-1.96;0.7;-0.35;304.0;0.019028;-0.074594;1.0;2.0;1.25;2.5;0.5;0.5;0.0;0.5;0.75;1.5;2.25;2.25;1.0;2.75;0.0;1.0;-0.241699;0.009766;0.973145;-0.91;-1.54;1.12;167.0;0.023472;-0.093483
3.16;2.75;3.75;3.0;3.75;0.75;1.0;0.0;0.25;1.25;2.5;3.75;4.0;2.25;7.0;0.5;1.5;-0.239746;0.055664;0.960449;-1.96;0.63;-0.42;316.0;0.031792;-0.066761;1.0;2.0;1.5;2.0;0.25;0.5;0.0;0.5;0.75;1.25;2.75;2.5;1.25;2.5;0.0;1.0;-0.246094;0.018066;0.970215;-0.7;-1.54;1.19;167.0;0.032393;-0.101726
3.17;2.75;3.5;2.75;4.0;0.75;1.0;0.0;0.25;1.5;3.25;3.75;3.75;2.25;6.0;0.25;1.25;-0.235352;0.055176;0.964355;-1.96;0.56;-0.42;311.0;0.026882;-0.065723;1.5;1.75;1.5;2.0;0.0;0.75;0.0;0.5;0.75;1.25;3.0;2.5;1.0;2.5;0.0;1.0;-0.242676;0.014648;0.973633;-0.77;-1.54;1.19;169.0;0.02703;-0.096405
3.18;2.75;3.0;2.75;4.0;0.75;1.0;0.0;0.25;2.0;3.0;4.0;4.0;2.25;6.0;0.0;1.25;-0.242676;0.054688;0.962891;-1.89;0.42;-0.35;312.0;0.034858;-0.061285;1.25;2.25;1.5;1.75;0.0;0.5;0.0;0.75;0.25;1.25;2.0;2.25;1.0;2.75;0.0;1.0;-0.237305;0.022461;0.961914;-0.7;-1.4;1.33;155.0;0.011044;-0.108561
3.19;2.75;3.0;3.5;4.0;1.0;1.25;0.0;0.25;2.0;2.75;3.75;4.25;2.25;6.0;0.0;1.5;-0.241699;0.054688;0.95752;-1.96;0.42;-0.42;323.0;0.025532;-0.061609;1.25;2.0;1.5;2.0;0.25;0.5;0.0;0.5;0.25;1.5;2.0;1.75;1.0;3.0;0.0;1.0;-0.239258;0.007812;0.972168;-0.91;-1.47;1.19;154.0;0.012652;-0.090074
3.2;3.0;4.0;3.5;4.25;1.0;1.25;0.0;0.5;2.0;2.75;3.75;3.75;2.25;6.0;0.0;1.5;-0.241699;0.056641;0.960938;-1.96;0.49;-0.42;334.0;0.007628;-0.064082;1.0;1.75;1.5;2.25;0.25;0.5;0.0;0.75;0.25;1.25;2.25;1.75;0.75;3.0;0.0;0.75;-0.238281;0.018066;0.966797;-0.77;-1.33;1.26;152.0;0.01425;-0.096675
3.21;3.0;4.0;3.25;4.75;1.0;1.25;0.0;0.5;1.5;3.0;3.5;4.0;2.25;6.0;0.0;1.25;-0.241699;0.055176;0.963867;-2.03;0.63;-0.35;332.0;0.001561;-0.072477;1.0;1.75;1.5;2.0;0.25;0.75;0.0;0.5;0.5;1.25;2.0;1.75;1.0;2.25;0.25;0.75;-0.240723;0.004395;0.96582;-0.84;-1.47;1.33;148.0;0.011638;-0.098171
3.22;2.75;4.0;3.0;4.75;1.0;1.25;0.0;0.5;1.5;3.0;3.25;4.0;2.25;6.0;0.0;1.5;-0.240234;0.057129;0.958496;-1.96;0.42;-0.42;326.0;0.005917;-0.075397;1.0;2.0;1.75;2.0;0.25;1.0;0.0;0.5;0.5;1.0;2.5;2.25;0.75;2.5;0.25;1.0;-0.239258;0.008301;0.972656;-0.91;-1.47;1.33;163.0;0.01343;-0.10111
3.23;2.5;3.5;3.0;4.75;1.0;1.25;0.0;0.5;1.5;2.75;3.5;3.25;2.25;5.75;0.0;1.5;-0.242188;0.052734;0.959961;-1.82;0.56;-0.42;312.0;0.007251;-0.073586;1.0;2.25;1.25;2.0;0.25;0.75;0.0;0.5;0.25;1.25;2.25;2.25;0.75;2.25;0.0;1.0;-0.241699;0.008789;0.963379;-0.84;-1.47;1.33;151.0;0.004345;-0.113042
3.24;3.25;3.0;3.5;4.75;0.75;1.25;0.0;0.5;1.5;2.5;3.75;3.25;2.25;5.75;0.0;1.0;-0.237793;0.063477;0.963867;-2.03;0.63;-0.42;314.0;-0.001796;-0.066742;1.0;2.25;1.25;2.0;0.25;0.75;0.0;0.5;0.5;1.0;2.5;2.25;1.0;2.25;0.0;1.0;-0.239746;0.013184;0.973145;-0.91;-1.4;1.19;156.0;0.010547;-0.112851
3.25;2.75;3.25;3.25;4.75;1.0;1.25;0.0;0.25;1.25;3.0;3.75;4.0;2.25;6.0;0.0;1.25;-0.239258;0.056641;0.962402;-2.03;0.63;-0.49;320.0;0.01134;-0.072108;1.25;2.25;1.5;2.5;0.0;0.75;0.0;0.5;0.5;1.0;2.5;1.25;1.0;2.5;0.0;1.0;-0.237793;0.010742;0.976562;-0.84;-1.54;1.19;155.0;-0.012771;-0.098869
3.26;2.5;3.5;3.0;4.25;0.5;1.25;0.0;0.5;1.25;2.75;3.0;4.0;2.25;6.5;0.0;1.5;-0.242188;0.055176;0.958496;-1.89;0.63;-0.49;307.0;0.019715;-0.076236;0.75;2.25;1.5;2.25;0.0;0.75;0.0;0.25;0.75;1.25;1.75;1.25;1.0;2.0;0.0;1.0;-0.240234;0.009277;0.976562;-0.7;-1.54;1.26;140.0;-0.0091;-0.093033
3.27;2.5;3.5;3.0;4.75;0.5;0.75;0.0;0.5;1.5;2.75;3.75;3.75;2.25;6.0;0.5;1.75;-0.23877;0.056152;0.964355;-2.03;0.56;-0.35;316.0;0.024965;-0.075639;0.75;2.25;1.5;2.25;0.25;0.75;0.0;0.5;0.5;1.0;1.75;0.75;1.25;2.0;0.0;1.0;-0.239258;0.008301;0.974121;-0.84;-1.54;1.26;138.0;-0.024861;-0.105511
3.28;2.75;4.0;3.25;4.75;0.5;0.75;0.0;0.25;1.5;3.0;3.75;4.0;2.25;6.0;0.25;1.25;-0.245117;0.052246;0.963867;-1.96;0.63;-0.42;321.0;0.012742;-0.06998;1.5;2.25;1.5;2.0;0.25;0.75;0.0;0.25;0.5;0.75;2.0;0.75;1.0;2.25;0.0;1.0;-0.236328;0.020996;0.976074;-0.7;-1.4;1.33;139.0;-0.035612;-0.081474
3.29;2.75;3.5;3.25;4.75;0.75;1.25;0.0;0.25;1.5;2.75;3.5;4.0;2.25;6.0;0.0;1.25;-0.239746;0.056641;0.964844;-1.96;0.56;-0.42;318.0;0.008799;-0.071287;1.75;2.25;1.5;2.0;0.25;0.75;0.0;0.25;0.5;1.0;2.25;1.25;1.0;2.25;0.25;1.0;-0.237793;0.005371;0.975098;-0.77;-1.47;1.19;152.0;-0.019622;-0.083405
3.3;2.75;3.5;3.25;4.75;0.75;1.0;0.0;0.5;1.75;2.5;3.0;4.0;2.25;5.75;0.25;1.0;-0.241211;0.057129;0.964844;-2.1;0.63;-0.42;314.0;0.006504;-0.070982;1.25;2.25;1.5;1.75;0.25;0.75;0.0;0.25;0.75;1.25;2.0;1.75;1.0;2.0;0.25;0.75;-0.245117;0.006836;0.967285;-0.77;-1.47;1.19;150.0;-0.000577;-0.085256
3.31;2.5;3.5;3.25;4.75;1.0;1.0;0.0;0.25;1.5;2.5;3.0;4.0;1.75;5.75;0.25;1.0;-0.240723;0.053223;0.960938;-1.89;0.63;-0.56;305.0;0.004409;-0.066316;1.0;2.0;1.5;2.0;0.25;0.75;0.0;0.25;0.75;1.25;2.0;1.25;0.75;2.75;0.0;0.75;-0.241699;0.010742;0.971191;-0.77;-1.54;1.19;145.0;0.006983;-0.068434
3.32;2.5;3.25;3.25;4.25;0.75;1.25;0.0;0.25;1.75;2.5;3.25;4.0;1.75;6.0;0.0;0.5;-0.244141;0.055176;0.95752;-2.03;0.56;-0.42;300.0;0.012028;-0.059594;1.75;2.0;2.25;2.0;0.0;0.75;0.0;0.5;0.5;1.5;2.25;1.25;0.75;2.5;0.0;0.75;-0.244141;0.017578;0.968262;-0.7;-1.47;1.33;159.0;-0.022863;-0.070092
3.33;3.0;3.75;3.0;4.75;0.75;1.25;0.0;0.5;1.5;2.75;2.75;4.0;2.25;6.0;0.0;0.75;-0.239258;0.054199;0.958008;-1.96;0.56;-0.35;314.0;-0.001933;-0.072361;1.75;2.25;1.5;2.0;0.0;1.0;0.0;0.25;0.5;1.0;2.0;1.25;1.0;2.75;0.0;1.0;-0.243652;0.006836;0.977051;-0.77;-1.47;1.12;152.0;-0.019588;-0.081823
3.34;2.75;3.75;3.0;5.0;1.0;1.25;0.0;0.5;1.5;2.75;3.75;4.0;2.25;6.0;0.0;0.75;-0.246582;0.054199;0.969238;-2.1;0.56;-0.42;325.0;0.003996;-0.074874;1.25;2.5;1.5;2.25;0.25;1.0;0.0;0.25;0.5;1.0;1.75;1.25;1.0;3.0;0.0;1.0;-0.239746;0.007812;0.974121;-0.77;-1.47;1.26;153.0;-0.017784;-0.084746
3.35;2.25;3.75;3.0;4.75;1.0;1.25;0.0;0.5;1.75;3.0;3.5;4.0;2.25;6.0;0.5;1.0;-0.240723;0.060059;0.958984;-2.03;0.49;-0.56;327.0;0.020361;-0.073067;1.5;2.5;1.75;2.25;0.25;0.5;0.0;0.25;0.25;1.25;1.75;1.75;0.75;2.25;0.25;1.0;-0.240234;0.012207;0.971191;-0.7;-1.61;1.26;152.0;-0.029004;-0.08883
3.36;2.75;4.0;3.0;4.25;1.0;1.25;0.0;0.5;1.5;2.75;3.75;4.0;2.25;5.75;0.25;1.25;-0.242676;0.055664;0.967285;-1.96;0.42;-0.35;323.0;0.010735;-0.075365;1.25;2.25;1.75;2.25;0.25;0.75;0.0;0.5;0.5;1.25;1.75;1.75;0.75;2.25;0.25;0.75;-0.238281;0.007812;0.967285;-0.77;-1.54;1.26;155.0;-0.018275;-0.091468
3.37;3.0;3.5;3.5;4.75;1.0;1.25;0.0;0.5;1.5;2.75;3.75;4.0;2.25;6.0;0.0;0.75;-0.245117;0.055176;0.963867;-2.03;0.42;-0.42;328.0;0.001972;-0.069733;1.75;2.0;1.5;2.25;0.5;0.75;0.0;0.25;0.75;1.25;2.5;1.75;1.0;2.75;0.0;0.75;-0.239258;0.013184;0.972168;-0.77;-1.54;1.26;167.0;-0.002001;-0.073483
3.38;3.25;3.5;4.0;5.0;1.0;1.25;0.0;0.25;1.5;2.75;3.75;3.75;2.25;6.0;0.0;0.75;-0.241699;0.060059;0.958984;-2.03;0.56;-0.42;332.0;-0.007686;-0.062806;1.5;2.0;1.75;2.25;0.25;0.5;0.0;0.25;0.75;1.25;2.0;1.75;1.0;2.0;0.0;1.0;-0.242188;0.007324;0.976074;-0.91;-1.4;1.12;154.0;-0.014577;-0.081996
3.39;3.25;3.5;3.5;5.0;1.0;1.25;0.0;0.25;1.75;2.75;3.75;4.0;2.25;6.0;0.0;1.25;-0.239258;0.056152;0.961914;-1.96;0.49;-0.49;334.0;0.002035;-0.06543;1.25;2.5;1.5;2.0;0.25;0.5;0.0;0.0;0.5;1.25;1.75;1.25;1.0;2.0;0.25;0.75;-0.241211;0.013184;0.966797;-0.77;-1.47;1.19;139.0;-0.023521;-0.078535
3.4;3.25;3.5;3.25;4.75;1.0;1.0;0.0;0.25;1.75;3.0;3.5;4.0;2.25;6.0;0.5;1.25;-0.243652;0.053223;0.959473;-1.96;0.63;-0.49;332.0;0.012488;-0.063034;1.25;2.5;1.75;2.0;0.25;0.75;0.0;0.0;0.5;1.5;2.0;1.75;1.0;2.5;0.5;0.75;-0.230957;0.026855;0.97168;-0.63;-1.33;1.19;159.0;0.000465;-0.077725
3.41;2.75;3.5;3.5;5.0;1.0;1.0;0.0;0.5;1.75;2.75;3.0;3.75;2.25;6.0;0.5;1.25;-0.239746;0.057129;0.960938;-1.96;0.49;-0.42;326.0;0.007953;-0.067128;1.25;2.0;1.5;2.5;0.25;0.75;0.0;0.25;0.75;0.75;2.25;1.25;1.0;2.25;0.0;0.75;-0.239258;0.013184;0.975586;-0.77;-1.47;1.26;148.0;-0.019598;-0.086127
3.42;3.0;3.75;3.0;5.0;1.25;1.0;0.0;0.25;1.5;2.75;3.5;3.5;2.25;6.0;0.0;1.25;-0.243164;0.053223;0.963867;-2.03;0.63;-0.49;320.0;-0.000203;-0.066473;1.25;2.25;1.5;2.5;0.25;1.0;0.0;0.5;0.5;0.75;2.0;1.25;1.0;2.25;0.0;0.75;-0.244629;0.008301;0.973145;-0.84;-1.54;1.26;150.0;-0.035134;-0.10257
3.43;3.0;3.5;3.5;5.0;1.25;1.25;0.0;0.25;1.5;2.75;3.75;4.0;2.25;6.0;0.0;1.25;-0.238281;0.054199;0.963867;-1.82;0.56;-0.49;331.0;0.0017;-0.068497;1.25;2.25;1.75;2.0;0.5;0.75;0.0;0.25;0.5;1.0;1.5;1.75;1.25;2.25;0.0;1.0;-0.243652;0.010742;0.978516;-0.63;-1.47;1.12;150.0;-0.022039;-0.093508
3.44;3.0;3.5;3.25;4.75;1.25;1.25;0.0;0.25;1.5;2.75;3.5;4.0;2.25;6.0;0.0;1.25;-0.244141;0.055664;0.963379;-1.89;0.49;-0.49;325.0;0.004154;-0.068207;1.25;2.0;1.5;2.0;0.25;0.5;0.0;0.25;0.5;1.0;1.75;1.25;1.25;2.0;0.25;1.0;-0.241211;0.004883;0.970703;-0.63;-1.4;1.26;140.0;-0.01085;-0.092447
3.45;3.0;3.5;3.25;5.0;1.25;1.25;0.0;0.25;1.25;2.75;3.0;3.5;2.25;5.75;0.0;0.5;-0.241211;0.056152;0.959961;-2.03;0.63;-0.42;310.0;-0.012574;-0.067177;1.5;2.5;1.5;2.25;0.25;0.75;0.0;0.25;0.75;1.0;2.0;1.25;0.5;2.25;0.25;0.75;-0.231445;0.009766;0.975586;-0.63;-1.33;1.26;150.0;-0.029344;-0.071401
3.46;3.25;3.75;3.25;5.0;1.25;1.25;0.0;0.25;1.5;2.0;3.0;3.75;2.25;6.0;0.5;0.5;-0.235352;0.060547;0.958496;-1.96;0.49;-0.42;319.0;-0.010782;-0.066745;1.75;2.5;1.75;2.25;0.25;0.75;0.0;0.25;0.75;1.25;1.25;1.75;0.25;2.75;0.25;0.75;-0.241211;0.009277;0.969238;-0.7;-1.33;1.33;156.0;-0.030524;-0.058807
3.47;3.25;3.75;3.25;5.25;1.25;1.25;0.0;0.25;1.5;2.25;3.25;4.0;2.25;6.0;0.25;1.0;-0.241699;0.054199;0.966309;-1.82;0.42;-0.42;328.0;-0.008228;-0.070477;1.75;2.5;1.75;2.5;0.5;0.75;0.0;0.0;0.75;1.5;2.0;1.75;0.25;2.25;0.25;1.0;-0.240723;0.006348;0.97168;-0.7;-1.4;1.19;164.0;-0.028877;-0.060598
3.48;3.25;4.0;3.25;5.0;1.25;1.25;0.0;0.25;1.5;2.75;3.25;3.75;2.25;5.75;0.0;1.0;-0.240234;0.057129;0.960449;-1.89;0.56;-0.42;326.0;-0.01196;-0.067916;1.0;2.5;2.25;2.25;0.5;0.5;0.0;0.25;0.5;1.0;2.25;1.75;0.5;2.0;0.25;1.0;-0.241211;0.008789;0.970703;-0.7;-1.4;1.19;156.0;-0.026115;-0.081967
3.49;3.25;3.75;3.5;5.0;1.25;1.25;0.0;0.5;1.75;2.5;3.5;3.75;2.5;5.75;0.0;0.75;-0.241699;0.055664;0.957031;-1.89;0.56;-0.42;333.0;-0.00956;-0.069024;1.75;2.0;2.25;2.25;0.25;0.75;0.0;0.25;0.5;1.0;2.0;1.75;0.75;2.25;0.0;1.0;-0.242676;0.012695;0.976562;-0.7;-1.47;1.26;158.0;-0.034818;-0.077896
3.5;3.0;3.5;3.25;5.0;1.0;1.25;0.0;0.5;1.75;2.5;3.5;3.75;2.25;6.0;0.0;0.75;-0.245605;0.054688;0.958008;-1.96;0.56;-0.42;324.0;-0.000522;-0.068115;1.25;2.0;1.75;2.25;0.25;1.0;0.0;0.5;0.75;1.0;1.75;1.75;0.75;2.25;0.0;1.0;-0.241699;0.003906;0.971191;-0.77;-1.47;1.33;155.0;-0.017367;-0.090697
3.51;3.25;3.5;3.5;5.0;1.25;1.25;0.0;0.5;1.75;2.5;3.5;4.0;1.75;5.75;0.25;0.5;-0.246094;0.055176;0.962402;-1.89;0.63;-0.42;329.0;-0.007192;-0.062635;1.25;2.25;1.75;2.25;0.25;1.0;0.0;0.25;0.75;1.0;1.75;1.75;0.75;2.25;0.0;1.0;-0.240723;0.006836;0.972168;-0.63;-1.47;1.05;154.0;-0.02247;-0.085415
3.52;3.5;4.0;3.5;5.25;1.0;1.25;0.0;0.5;1.5;3.5;3.25;4.0;1.5;6.5;0.25;0.5;-0.244141;0.051758;0.962402;-1.82;0.49;-0.35;342.0;-0.007043;-0.057853;1.25;2.25;1.75;2.0;0.25;0.75;0.0;0.25;0.5;0.75;1.75;1.75;0.75;2.25;0.0;1.0;-0.237793;0.009277;0.973633;-0.7;-1.4;1.26;144.0;-0.025467;-0.089322
3.53;3.0;3.75;3.5;5.0;1.0;1.25;0.0;0.5;1.75;3.5;3.75;4.0;1.75;6.0;0.25;0.75;-0.241211;0.055664;0.963379;-1.96;0.56;-0.42;340.0;0.005114;-0.061835;1.75;1.75;2.25;2.25;0.25;1.0;0.0;0.5;0.75;0.75;2.0;1.75;0.5;2.25;0.0;1.0;-0.240234;0.013672;0.970703;-0.7;-1.33;1.19;160.0;-0.032559;-0.077343
3.54;2.75;3.75;3.25;5.0;1.0;1.25;0.0;0.5;1.75;2.75;2.75;4.0;2.25;6.0;0.25;0.75;-0.237793;0.057617;0.955078;-1.96;0.63;-0.49;324.0;0.000937;-0.069673;1.25;1.75;1.75;2.25;0.25;0.25;0.0;0.5;0.5;1.0;1.75;1.75;0.5;2.25;0.0;1.0;-0.240234;0.008301;0.976074;-0.7;-1.47;1.26;142.0;-0.013158;-0.083142
3.55;3.0;3.5;3.25;5.0;1.0;1.25;0.0;0.5;1.75;2.25;2.75;3.75;2.25;6.0;0.25;0.75;-0.244141;0.058105;0.957031;-1.82;0.56;-0.63;317.0;-0.004017;-0.068129;0.75;2.0;1.5;2.25;0.5;0.25;0.0;0.25;0.25;1.0;1.75;2.25;0.75;2.25;0.25;1.25;-0.237793;0.008789;0.976074;-0.77;-1.4;1.26;143.0;0.009075;-0.10382
3.56;3.25;3.5;3.25;5.0;1.0;1.25;0.0;0.5;1.75;2.25;3.25;4.0;2.25;6.0;0.25;1.0;-0.237793;0.055176;0.959961;-1.96;0.7;-0.49;327.0;-0.000873;-0.069993;0.75;2.25;1.5;2.5;0.5;0.5;0.0;0.25;0.25;1.0;2.0;1.75;0.75;2.25;0.0;1.0;-0.24707;0.009766;0.970215;-0.7;-1.47;1.12;144.0;-0.01565;-0.10222
3.57;3.25;3.0;3.25;5.0;1.0;1.25;0.0;0.25;2.0;2.5;3.5;4.25;2.25;6.0;0.0;1.25;-0.238281;0.054688;0.958984;-1.89;0.49;-0.42;328.0;0.009273;-0.064586;1.25;2.25;1.25;2.0;0.5;0.75;0.0;0.5;0.25;1.25;2.0;1.75;1.0;2.75;0.0;1.0;-0.237305;0.007812;0.967773;-0.7;-1.47;1.26;154.0;-0.000836;-0.099462
3.58;3.0;3.5;3.0;4.75;1.0;1.25;0.0;0.25;1.25;2.25;3.75;4.0;2.25;6.0;0.0;1.0;-0.239746;0.05957;0.958008;-1.89;0.56;-0.42;314.0;0.001879;-0.074583;1.25;2.5;1.25;2.0;0.25;0.75;0.0;0.25;0.5;1.25;1.75;1.75;1.0;2.5;0.25;1.0;-0.23877;0.012207;0.975098;-0.63;-1.4;1.19;152.0;-0.001538;-0.092651
3.59;2.75;3.75;3.25;5.25;1.25;1.25;0.0;0.25;1.25;2.25;3.75;3.75;2.25;6.0;0.0;1.0;-0.239258;0.056641;0.960938;-1.89;0.63;-0.42;321.0;-0.006315;-0.074833;1.0;2.5;1.5;2.25;0.0;0.5;0.0;0.25;0.5;0.75;2.0;1.75;0.75;2.75;0.0;1.0;-0.244629;0.008301;0.96875;-0.7;-1.4;1.19;145.0;-0.007117;-0.091635
3.6;2.75;3.5;3.25;5.25;1.0;1.25;0.0;0.25;1.5;1.75;3.75;3.75;2.25;6.0;0.25;1.0;-0.241699;0.060547;0.959473;-1.89;0.49;-0.42;317.0;-0.001193;-0.074205;1.0;2.25;1.75;2.5;0.0;0.75;0.0;0.0;0.25;1.0;2.25;1.75;0.75;2.75;0.0;0.75;-0.237305;0.00293;0.976562;-0.77;-1.47;1.19;147.0;-0.012992;-0.089335
3.61;3.25;4.0;3.25;5.25;1.0;1.25;0.0;0.5;1.5;2.25;3.75;3.75;2.25;6.0;0.0;1.25;-0.239746;0.057617;0.962891;-1.89;0.56;-0.49;332.0;-0.009676;-0.074886;1.75;2.5;1.75;2.5;0.0;0.25;0.0;0.0;0.5;1.25;2.0;2.25;0.75;2.0;0.0;0.75;-0.237793;0.010254;0.978027;-0.7;-1.4;1.12;153.0;-0.034048;-0.082687
3.62;2.75;3.5;3.25;5.25;0.75;1.25;0.0;0.5;1.5;2.5;3.5;3.75;2.25;6.0;0.0;1.5;-0.239746;0.059082;0.960449;-1.82;0.63;-0.49;322.0;0.002693;-0.07687;1.0;2.25;1.75;2.0;0.25;0.25;0.0;0.25;0.5;1.25;1.75;1.75;1.0;1.75;0.0;1.0;-0.238281;0.007324;0.974609;-0.77;-1.33;1.05;140.0;-0.015896;-0.093363
3.63;2.75;3.5;3.0;4.75;0.75;1.25;0.0;0.5;1.25;2.25;3.25;4.0;2.25;6.0;0.25;1.25;-0.245605;0.055176;0.962891;-1.89;0.63;-0.42;312.0;0.006538;-0.080447;1.0;1.75;1.75;2.0;0.25;0.0;0.0;0.25;0.75;1.25;1.75;2.25;1.0;1.75;0.25;1.0;-0.239258;0.006836;0.971191;-0.7;-1.33;1.12;143.0;0.015664;-0.087593
3.64;2.75;3.75;3.25;5.0;1.0;1.5;0.0;0.5;1.5;1.75;2.75;4.0;2.25;6.0;0.5;1.0;-0.236816;0.059082;0.961914;-1.89;0.63;-0.56;318.0;-0.004792;-0.078717;1.25;2.0;1.75;2.0;0.25;0.25;0.0;0.5;0.75;1.0;1.75;1.75;1.25;2.5;0.0;0.75;-0.23584;0.007324;0.973633;-0.77;-1.4;1.19;150.0;-0.000287;-0.084527
3.65;2.75;3.5;3.5;5.0;0.75;1.25;0.0;0.5;1.75;2.0;3.0;3.75;2.25;6.0;0.0;1.25;-0.246582;0.057617;0.966797;-1.89;0.63;-0.49;315.0;-0.002665;-0.072051;1.25;2.5;1.5;2.0;0.5;0.25;0.0;0.5;0.5;0.5;2.0;1.75;1.0;2.25;0.0;0.75;-0.240723;0.009277;0.975586;-0.77;-1.33;1.12;145.0;-0.024876;-0.097316
3.66;3.5;3.5;3.5;5.0;0.75;1.25;0.0;0.5;1.5;2.75;3.5;3.25;2.25;6.0;0.0;1.0;-0.236328;0.055664;0.958984;-1.89;0.7;-0.42;324.0;-0.009041;-0.06531;1.25;2.5;1.5;2.0;0.25;0.75;0.0;0.75;0.5;0.75;2.0;1.75;1.0;2.25;0.0;1.0;-0.233887;0.009277;0.975098;-0.77;-1.4;1.12;154.0;-0.020272;-0.110266
3.67;3.0;3.5;3.25;5.0;1.0;1.25;0.0;0.5;1.75;2.75;3.5;4.0;2.25;6.0;0.25;1.0;-0.245605;0.054199;0.962402;-2.03;0.77;-0.49;332.0;0.006422;-0.069707;1.0;2.25;1.5;2.25;0.25;0.75;0.0;0.5;0.75;1.0;2.25;1.25;1.0;2.0;0.0;1.0;-0.241699;0.009766;0.973633;-0.91;-1.4;1.19;150.0;-0.013388;-0.097027
3.68;3.25;3.5;3.25;5.0;1.0;1.25;0.0;0.5;1.5;2.75;3.0;4.25;2.25;5.75;0.25;1.25;-0.241211;0.057129;0.962402;-1.89;0.63;-0.42;328.0;-0.000923;-0.074504;1.0;2.25;1.5;2.5;0.5;0.75;0.0;0.5;0.75;0.5;2.25;1.75;1.0;2.0;0.0;1.0;-0.242676;0.004883;0.973145;-0.77;-1.33;1.19;155.0;-0.019932;-0.106762
3.69;3.5;3.75;3.25;4.75;1.0;1.25;0.0;0.5;1.5;2.25;3.25;4.0;2.25;5.75;0.0;1.25;-0.245117;0.057617;0.962891;-1.96;0.7;-0.49;323.0;-0.009992;-0.073335;1.75;2.25;1.5;2.5;0.5;0.75;0.0;0.5;0.5;0.5;1.5;1.75;1.0;2.25;0.0;0.25;-0.23584;0.008301;0.968262;-0.77;-1.33;1.19;150.0;-0.055828;-0.095866
3.7;2.5;3.5;3.5;4.75;0.75;1.25;0.0;0.5;1.5;2.0;3.5;4.0;2.25;5.75;0.0;1.0;-0.240234;0.054199;0.955078;-1.82;0.63;-0.42;312.0;0.000925;-0.077972;1.25;2.0;1.5;2.5;0.25;0.75;0.0;0.5;0.75;0.75;1.5;1.75;1.0;2.5;0.25;0.25;-0.239258;0.013672;0.974121;-0.84;-1.4;1.26;151.0;-0.017837;-0.090763
3.71;2.5;3.25;3.25;4.75;0.75;1.25;0.0;0.25;0.75;2.25;3.75;4.0;2.25;6.0;0.25;1.25;-0.240723;0.056152;0.960938;-1.96;0.63;-0.49;306.0;0.00889;-0.08358;1.75;2.25;1.75;2.5;0.0;0.75;0.0;0.25;0.75;1.0;1.75;1.75;1.25;2.5;0.25;0.75;-0.239258;0.006348;0.974121;-0.7;-1.4;1.19;162.0;-0.020791;-0.085601
3.72;3.0;3.25;3.0;4.75;1.0;1.25;0.0;0.25;1.0;2.5;3.5;3.75;2.25;6.0;0.0;1.25;-0.245117;0.056152;0.95752;-1.96;0.63;-0.49;308.0;0.002178;-0.075145;1.25;2.25;2.25;2.5;0.0;0.75;0.0;0.25;0.75;1.0;1.75;1.75;1.25;2.5;0.0;0.5;-0.245117;0.01123;0.974121;-0.84;-1.33;1.19;159.0;-0.026272;-0.084166
3.73;2.25;3.25;3.0;5.0;0.75;1.25;0.0;0.25;1.0;2.75;3.25;4.0;2.25;6.0;0.25;1.25;-0.241699;0.054688;0.960938;-1.89;0.63;-0.49;306.0;0.014077;-0.081559;1.5;2.75;1.5;2.5;0.25;0.75;0.0;0.5;0.5;1.25;1.75;1.75;1.25;2.5;0.0;0.5;-0.242676;0.007324;0.970215;-0.7;-1.4;1.12;163.0;-0.032507;-0.098973
3.74;2.5;3.5;3.0;5.0;0.75;1.25;0.0;0.25;1.25;2.25;3.5;4.0;2.25;5.75;0.25;1.25;-0.243652;0.058105;0.966309;-2.03;0.7;-0.49;309.0;0.00662;-0.081392;1.5;2.0;1.25;2.5;0.25;0.75;0.0;0.5;0.5;1.25;1.75;1.75;1.25;2.25;0.0;0.75;-0.23877;0.006348;0.974609;-0.7;-1.33;1.19;154.0;-0.016874;-0.10411
3.75;2.75;3.25;3.0;4.75;1.0;1.25;0.0;0.25;1.5;2.25;3.5;4.0;2.25;6.0;0.25;1.25;-0.242676;0.056152;0.960449;-1.89;0.7;-0.42;314.0;0.01207;-0.072881;1.75;1.75;1.75;2.5;0.5;0.75;0.0;0.5;0.75;1.25;2.25;1.75;1.25;2.5;0.0;0.75;-0.244629;0.006836;0.97168;-0.7;-1.33;1.33;171.0;-0.010405;-0.084446
3.76;3.25;3.75;3.0;4.75;1.0;1.25;0.0;0.5;1.5;2.25;3.5;3.25;2.25;5.5;0.0;1.25;-0.240234;0.058594;0.959473;-1.89;0.77;-0.42;313.0;-0.010748;-0.072837;1.25;2.0;1.75;2.25;0.5;0.5;0.0;0.75;0.75;1.5;2.25;2.25;1.0;2.0;0.25;0.75;-0.23877;0.01123;0.979492;-0.63;-1.33;1.19;170.0;0.004073;-0.096621
3.77;3.25;3.75;3.25;5.0;0.75;1.25;0.0;0.25;1.5;2.75;3.5;4.0;2.25;6.0;0.0;1.5;-0.244141;0.056152;0.958008;-1.89;0.7;-0.49;328.0;6e-06;-0.071386;1.5;2.0;1.75;2.5;0.25;0.75;0.0;0.5;0.75;1.0;2.0;2.25;1.25;2.25;0.25;0.25;-0.242188;0.007324;0.969238;-0.77;-1.4;1.26;166.0;-0.013096;-0.096699
3.78;3.25;3.75;3.25;5.0;0.75;1.25;0.0;0.25;1.5;3.0;3.5;4.25;2.25;6.0;0.25;1.25;-0.240723;0.055176;0.961426;-1.96;0.84;-0.49;333.0;0.004429;-0.071227;1.5;2.0;1.75;2.25;0.25;0.5;0.0;0.5;0.25;1.0;2.25;2.25;1.25;2.5;0.25;0.25;-0.242188;0.006836;0.974609;-0.7;-1.4;1.26;160.0;-0.008367;-0.102243
3.79;3.0;3.75;3.25;4.75;0.75;1.25;0.0;0.5;1.5;3.0;3.5;4.0;2.25;5.75;0.25;1.25;-0.239258;0.053223;0.961426;-1.89;0.77;-0.49;328.0;0.005402;-0.074297;1.0;2.0;1.75;2.25;0.25;0.5;0.0;0.5;0.25;1.25;2.25;1.75;1.75;2.5;0.25;0.75;-0.23877;0.000488;0.959473;-0.77;-1.33;1.19;160.0;0.009147;-0.111664
3.8;3.0;4.0;3.25;4.75;1.0;1.25;0.0;0.5;1.5;2.5;3.25;3.75;2.25;5.75;0.0;1.5;-0.240723;0.054688;0.958008;-1.89;0.7;-0.42;322.0;-0.00562;-0.074743;1.0;2.5;1.5;2.5;0.25;1.0;0.0;0.5;0.5;1.25;2.25;1.75;1.0;2.75;0.25;0.75;-0.235352;0.012695;0.976074;-0.7;-1.4;1.19;167.0;-0.00221;-0.100703
3.81;2.75;3.25;3.25;4.25;1.0;1.25;0.0;0.25;1.75;2.25;3.25;3.5;2.25;6.0;0.0;1.25;-0.240723;0.055176;0.965332;-1.89;0.56;-0.42;305.0;0.009402;-0.062646;1.5;2.5;1.5;2.25;0.25;0.25;0.0;0.5;0.25;1.5;2.25;1.75;0.75;2.5;0.25;0.5;-0.240234;0.015625;0.969727;-0.7;-1.33;1.26;157.0;-0.013127;-0.087262
3.82;3.0;3.25;3.25;4.75;1.0;1.25;0.0;0.25;1.5;2.75;3.5;4.0;2.25;6.0;0.25;1.25;-0.241699;0.053711;0.957031;-1.75;0.63;-0.35;323.0;0.010354;-0.068642;1.25;2.25;1.5;1.75;0.25;0.25;0.0;0.5;0.25;1.25;1.75;1.75;1.0;2.5;0.25;0.75;-0.239258;0.010254;0.973145;-0.7;-1.4;1.19;145.0;0.001017;-0.092736
3.83;3.0;3.25;3.0;4.75;0.75;1.25;0.0;0.5;1.5;3.0;3.5;3.75;2.25;6.0;0.25;1.25;-0.23877;0.055664;0.963867;-1.75;0.63;-0.42;321.0;0.013308;-0.07146;1.25;2.25;1.5;2.25;0.25;0.5;0.0;0.5;0.5;1.0;2.25;1.75;1.25;2.5;0.25;0.75;-0.239746;0.004883;0.976074;-0.77;-1.33;1.19;158.0;-0.000248;-0.099885
3.84;4.0;3.25;3.25;4.25;0.75;1.25;0.0;0.25;1.25;2.25;3.75;3.75;2.25;6.0;0.0;1.0;-0.237305;0.058105;0.967285;-1.82;0.63;-0.35;314.0;-0.005013;-0.064982;1.25;2.25;1.5;2.25;0.25;0.5;0.0;0.5;0.75;1.25;2.5;1.75;1.0;2.5;0.0;1.0;-0.239746;0.006348;0.969727;-0.77;-1.33;1.33;162.0;0.005418;-0.089255
3.85;3.0;3.25;3.25;4.75;0.5;1.25;0.0;0.5;1.5;2.75;3.75;3.5;2.25;5.75;0.0;1.0;-0.237793;0.056152;0.952637;-1.75;0.77;-0.35;314.0;0.004455;-0.071368;1.5;2.0;1.75;2.25;0.5;0.5;0.0;0.5;0.5;1.5;2.5;2.25;1.0;2.5;0.0;1.0;-0.241211;0.008301;0.974121;-0.7;-1.4;1.26;171.0;0.003742;-0.09062
3.86;2.25;3.5;3.25;4.75;0.5;1.25;0.0;0.25;1.25;2.75;3.75;3.75;2.25;5.75;0.0;1.0;-0.237305;0.054688;0.961914;-1.75;0.7;-0.42;306.0;0.00986;-0.077184;1.5;2.25;1.75;2.25;0.25;0.75;0.0;0.5;0.5;1.5;2.5;1.75;1.0;2.75;0.25;0.75;-0.242188;0.004395;0.969727;-0.77;-1.33;1.26;171.0;0.000529;-0.086242
3.87;2.75;3.0;2.75;4.25;0.75;1.25;0.0;0.0;1.5;3.0;3.75;4.0;2.5;6.0;0.25;1.25;-0.238281;0.054199;0.961914;-1.82;0.7;-0.42;310.0;0.02978;-0.068724;1.5;2.25;1.5;2.25;0.0;0.75;0.0;0.5;0.5;1.25;2.25;1.75;1.0;2.75;0.25;0.75;-0.238281;0.012695;0.967773;-0.7;-1.26;1.19;162.0;-0.000122;-0.092465
3.88;3.0;3.0;2.75;4.75;1.0;1.25;0.0;0.25;1.5;3.25;3.75;4.0;2.5;6.0;0.0;1.25;-0.236816;0.054199;0.964355;-1.82;0.7;-0.49;322.0;0.019656;-0.071026;1.25;2.0;1.75;2.0;0.25;0.5;0.0;0.5;0.5;1.25;2.25;1.75;1.0;2.5;0.25;0.75;-0.240234;0.012207;0.974609;-0.7;-1.33;1.12;157.0;0.006473;-0.087903
3.89;2.75;3.25;3.25;4.75;1.0;1.25;0.0;0.25;1.0;2.75;3.25;4.0;2.5;6.0;0.25;1.5;-0.241211;0.055176;0.963379;-1.89;0.63;-0.49;316.0;0.009623;-0.078653;1.5;2.5;1.75;2.25;0.25;0.75;0.0;0.5;0.75;1.5;2.0;1.75;1.0;2.5;0.25;0.75;-0.239258;0.01123;0.971191;-0.7;-1.4;1.26;170.0;-0.01023;-0.083352
3.9;1.5;3.25;3.5;4.25;0.5;1.25;0.0;0.25;1.25;2.5;3.5;4.0;2.25;6.0;0.25;1.0;-0.243164;0.05957;0.958496;-1.82;0.63;-0.42;297.0;0.027688;-0.077959;1.5;2.25;1.75;2.25;0.25;1.0;0.0;0.75;0.25;1.5;2.0;1.75;1.0;2.25;0.0;0.75;-0.23877;0.011719;0.975586;-0.63;-1.19;1.12;164.0;-0.026641;-0.105803
3.91;2.25;3.25;3.25;4.25;0.5;1.25;0.0;0.25;1.75;2.5;3.75;3.75;2.5;6.0;0.0;0.75;-0.243164;0.057129;0.960449;-1.82;0.7;-0.42;305.0;0.021823;-0.069017;1.25;2.0;1.25;2.25;0.25;0.75;0.0;0.5;0.25;1.0;2.25;2.5;1.0;2.25;0.0;1.0;-0.243164;0.009277;0.972656;-0.7;-1.33;1.19;155.0;0.001106;-0.120131
3.92;2.5;3.25;3.25;4.25;0.75;1.0;0.0;0.25;1.75;2.5;3.25;4.0;2.25;6.0;0.0;1.0;-0.239746;0.059082;0.961426;-1.82;0.7;-0.35;304.0;0.017782;-0.064764;1.25;2.25;1.5;2.25;0.25;0.5;0.0;0.5;0.5;0.75;2.25;1.75;1.25;2.5;0.25;1.0;-0.23877;0.010742;0.973145;-0.7;-1.33;1.26;157.0;-0.000954;-0.103711
3.93;2.5;2.75;3.25;4.25;0.5;1.0;0.0;0.25;1.5;1.75;3.5;4.0;2.25;6.0;0.0;1.25;-0.242676;0.055664;0.960449;-1.75;0.63;-0.42;292.0;0.020318;-0.071835;1.5;2.25;1.25;2.25;0.5;0.5;0.0;0.75;0.75;1.0;2.0;1.75;1.0;2.25;0.25;0.75;-0.245117;0.011719;0.971191;-0.7;-1.33;1.19;160.0;-0.009118;-0.095648
3.94;2.75;3.0;2.75;4.25;0.75;1.0;0.0;0.5;1.5;1.75;3.75;4.0;2.5;5.75;0.0;1.0;-0.241211;0.056641;0.954102;-1.82;0.84;-0.49;298.0;0.016199;-0.079335;1.5;2.25;1.25;2.0;0.5;0.5;0.0;0.5;0.75;1.25;2.0;1.75;1.25;2.5;0.0;0.75;-0.236328;0.003906;0.969238;-0.7;-1.19;1.19;159.0;-0.000584;-0.086985
3.95;2.75;3.5;3.0;3.75;0.75;1.25;0.0;0.5;1.75;2.25;3.5;4.0;2.25;6.0;0.0;1.0;-0.241699;0.058105;0.961426;-1.82;0.77;-0.49;307.0;0.017145;-0.069161;1.25;2.25;1.5;2.0;0.0;0.5;0.0;0.75;0.25;1.5;2.25;1.75;0.75;2.5;0.0;0.75;-0.241211;0.011719;0.969727;-0.77;-1.4;1.19;152.0;-0.002042;-0.100113
3.96;3.25;3.0;2.75;4.25;1.0;1.25;0.0;0.5;1.75;2.75;3.25;3.75;2.25;6.5;0.0;1.25;-0.23877;0.053711;0.959961;-1.82;0.84;-0.56;317.0;0.019317;-0.062384;1.25;2.0;1.5;2.5;0.25;0.75;0.0;0.75;0.5;1.25;2.25;2.5;0.5;2.25;0.25;0.75;-0.241699;0.009277;0.973633;-0.7;-1.26;1.12;166.0;-0.000328;-0.105479
3.97;2.75;3.25;2.75;4.75;1.0;1.25;0.0;0.5;2.0;2.75;3.75;3.75;2.25;5.75;0.0;1.25;-0.242676;0.054199;0.962402;-1.89;0.7;-0.42;320.0;0.016269;-0.069529;1.25;2.25;1.5;2.25;0.25;0.75;0.0;0.75;0.5;1.25;2.0;2.25;0.75;2.25;0.0;0.75;-0.241699;0.006348;0.975098;-0.7;-1.19;1.19;160.0;-0.010864;-0.106136
3.98;2.5;3.0;3.0;4.25;1.0;1.25;0.0;0.25;1.75;2.75;3.75;3.75;2.25;6.0;0.25;1.5;-0.236328;0.05127;0.968262;-1.96;0.7;-0.49;313.0;0.028657;-0.066014;1.5;2.0;1.25;2.0;0.0;0.75;0.0;0.5;0.5;1.5;2.5;2.25;1.25;2.5;0.0;1.0;-0.240234;0.009277;0.969238;-0.7;-1.12;1.12;164.0;0.018826;-0.104835
3.99;2.5;3.0;3.0;4.25;1.0;1.25;0.0;0.25;1.75;2.75;3.75;4.0;1.75;6.5;0.0;1.25;-0.240723;0.054688;0.962891;-1.75;0.7;-0.42;312.0;0.02877;-0.059166;1.25;2.0;1.5;2.25;0.25;0.75;0.0;0.25;0.75;1.5;2.0;2.5;1.25;2.75;0.25;1.0;-0.233887;0.01123;0.974609;-0.7;-1.26;1.26;170.0;0.02496;-0.091698
4.0;2.5;2.75;3.0;4.25;0.75;1.25;0.0;0.5;2.25;2.75;3.25;4.0;2.25;6.0;0.0;1.25;-0.240234;0.05127;0.958008;-1.75;0.7;-0.42;312.0;0.030703;-0.063581;1.5;2.0;1.5;2.5;0.0;0.75;0.0;0.5;1.0;1.5;2.25;2.25;1.0;2.5;0.25;1.0;-0.240234;0.006836;0.97168;-0.7;-1.26;1.19;174.0;0.015159;-0.089292
4.01;2.5;3.0;3.0;4.25;0.75;1.0;0.0;0.25;2.0;2.75;3.5;4.0;2.25;6.5;0.0;1.0;-0.246094;0.054199;0.959473;-1.89;0.7;-0.35;311.0;0.032292;-0.058968;1.5;2.0;1.75;2.5;0.0;0.75;0.0;0.75;1.0;1.5;2.5;1.75;0.75;2.5;0.25;1.25;-0.23877;0.009277;0.975098;-0.7;-1.19;1.12;177.0;0.009386;-0.085137
4.02;2.75;2.75;3.0;4.75;1.0;1.25;0.0;0.5;1.5;2.75;3.25;4.0;1.75;6.0;0.25;1.0;-0.241211;0.05957;0.958984;-1.75;0.7;-0.42;310.0;0.01568;-0.067285;1.25;2.0;1.5;2.0;0.0;0.75;0.0;0.75;0.75;1.5;2.5;1.75;1.0;2.75;0.25;0.75;-0.242676;0.003418;0.967773;-0.7;-1.19;1.12;166.0;0.024026;-0.090351
4.03;2.5;3.0;2.75;4.75;1.0;1.25;0.0;0.25;1.0;3.0;3.0;4.25;1.75;6.0;0.25;1.25;-0.243652;0.057129;0.960449;-1.82;0.56;-0.49;303.0;0.016841;-0.074462;1.0;2.0;1.75;2.0;0.0;1.0;0.0;0.5;0.75;1.0;2.5;2.25;1.25;2.25;0.25;0.75;-0.23877;0.013184;0.978516;-0.77;-1.19;1.33;164.0;0.016141;-0.106747
4.04;2.5;3.25;2.75;4.75;1.25;1.25;0.0;0.0;1.0;3.0;3.0;4.0;2.75;6.0;0.0;1.25;-0.245117;0.056152;0.965332;-1.75;0.7;-0.42;307.0;0.012815;-0.078352;1.0;2.0;1.25;1.75;0.25;1.0;0.0;0.5;0.75;1.25;2.25;2.75;1.0;2.5;0.25;0.5;-0.243164;0.008301;0.973145;-0.7;-1.19;1.19;163.0;0.032133;-0.102459
4.05;2.75;3.0;3.0;4.25;0.75;1.0;0.0;0.25;1.5;2.75;4.0;4.0;2.25;6.5;0.0;1.25;-0.240234;0.056152;0.959473;-1.82;0.63;-0.42;313.0;0.029269;-0.065372;1.25;1.75;1.0;2.25;0.5;1.0;0.0;0.5;0.75;1.25;2.75;2.5;1.0;2.5;0.25;0.5;-0.241211;0.010254;0.976562;-0.7;-1.12;1.26;169.0;0.0277;-0.100606
4.06;2.0;3.0;2.5;4.25;0.75;1.0;0.0;0.25;1.5;2.75;3.75;4.25;2.25;5.75;0.0;1.25;-0.240234;0.055664;0.955566;-1.75;0.7;-0.42;296.0;0.036323;-0.077382;1.0;1.5;1.25;2.0;0.25;0.75;0.0;0.5;0.75;1.25;2.5;1.75;1.25;2.75;0.25;0.75;-0.242676;0.008789;0.974609;-0.77;-1.12;1.26;157.0;0.042307;-0.092072
4.07;2.0;3.25;2.5;4.75;1.0;1.0;0.0;0.25;1.5;2.75;3.75;4.0;2.5;6.0;0.25;1.5;-0.244141;0.054688;0.958008;-1.75;0.84;-0.42;310.0;0.033112;-0.079244;1.0;1.75;1.0;1.5;0.0;0.75;0.0;0.75;1.0;0.75;2.25;2.25;1.0;3.0;0.25;0.75;-0.243652;0.012207;0.969238;-0.77;-1.19;1.19;153.0;0.055641;-0.096133
4.08;2.0;2.75;3.25;4.75;0.5;1.0;0.0;0.25;1.5;3.0;3.75;4.25;2.5;6.0;0.0;1.75;-0.242188;0.049316;0.962402;-1.68;0.63;-0.42;312.0;0.035507;-0.077829;1.0;2.25;1.0;1.75;0.25;0.75;0.0;0.75;1.0;0.75;2.5;2.25;1.0;3.0;0.25;1.0;-0.243652;0.009277;0.976562;-0.7;-1.19;0.98;165.0;0.041715;-0.099137
4.09;2.0;2.75;2.75;4.0;0.5;1.0;0.0;0.25;1.25;3.0;3.5;4.0;2.5;6.0;0.0;1.75;-0.237793;0.053223;0.960938;-1.82;0.77;-0.35;293.0;0.043109;-0.078404;1.0;2.0;1.25;2.0;0.0;0.75;0.0;0.5;1.0;1.25;2.5;2.75;0.75;3.0;0.25;1.0;-0.241699;0.009766;0.97168;-0.7;-1.12;1.33;169.0;0.049561;-0.091162
4.1;2.25;3.0;2.75;4.25;0.5;1.0;0.0;0.25;1.25;3.0;3.75;4.0;2.5;6.0;0.0;1.75;-0.242676;0.056641;0.962402;-1.75;0.84;-0.42;302.0;0.035786;-0.079006;1.0;2.0;1.5;1.75;0.0;0.75;0.0;0.75;1.0;1.25;2.75;2.5;0.75;2.5;0.0;1.0;-0.244629;0.012207;0.978027;-0.77;-1.12;1.26;167.0;0.036256;-0.096039
4.11;2.25;3.25;2.5;4.25;0.5;1.25;0.0;0.25;1.5;3.25;3.75;4.0;2.25;6.5;0.25;1.25;-0.242676;0.049805;0.962891;-1.82;0.91;-0.42;310.0;0.041078;-0.071173;1.0;1.75;1.5;1.5;0.5;0.5;0.0;0.75;1.0;1.25;2.75;2.5;1.0;2.25;0.25;1.0;-0.244629;0.012207;0.975098;-0.7;-1.19;1.19;167.0;0.046405;-0.093489
4.12;2.75;3.0;2.75;4.0;0.5;1.0;0.0;0.5;1.5;3.25;3.75;4.0;2.25;5.75;0.0;1.25;-0.241699;0.053223;0.952148;-1.82;0.7;-0.42;306.0;0.029486;-0.071769;1.0;1.5;1.5;1.75;0.25;0.5;0.0;0.75;0.75;1.25;2.75;2.75;1.25;3.25;0.25;1.0;-0.243164;0.008301;0.969727;-0.7;-1.12;1.12;174.0;0.06457;-0.097548
4.13;2.25;2.75;2.75;4.0;0.5;1.0;0.0;0.5;2.75;3.0;3.75;4.0;2.25;6.0;0.0;1.5;-0.240234;0.051758;0.958984;-1.82;0.7;-0.49;314.0;0.050006;-0.058992;1.0;2.0;1.25;2.0;0.0;0.75;0.0;0.75;0.75;1.5;2.25;1.75;1.25;3.5;0.25;1.0;-0.240723;0.010742;0.967773;-0.7;-1.26;1.26;168.0;0.047244;-0.092092
4.14;1.75;3.0;2.75;4.25;0.75;1.25;0.0;0.5;2.5;3.0;3.75;3.25;2.25;6.0;0.0;1.25;-0.243164;0.053711;0.958008;-1.75;0.77;-0.42;308.0;0.041766;-0.060865;1.25;1.5;1.25;1.75;0.0;0.75;0.0;0.75;1.0;1.75;2.25;1.75;1.25;3.25;0.25;1.0;-0.238281;0.011719;0.974121;-0.7;-1.05;1.12;167.0;0.058707;-0.080815
4.15;2.25;3.0;2.5;4.0;1.0;1.25;0.0;0.5;2.0;2.75;3.75;4.25;2.75;6.0;0.25;1.25;-0.243164;0.058105;0.956055;-1.68;0.7;-0.42;317.0;0.042719;-0.075557;1.25;1.25;1.5;1.75;0.25;0.75;0.0;0.75;0.75;1.25;2.5;2.25;1.25;3.0;0.25;1.0;-0.238281;0.013184;0.96875;-0.77;-1.33;1.12;168.0;0.051501;-0.093958
