Time;left pressure 1[N/cm²];left pressure 2[N/cm²];left pressure 3[N/cm²];left pressure 4[N/cm²];left pressure 5[N/cm²];left pressure 6[N/cm²];left pressure 7[N/cm²];left pressure 8[N/cm²];left pressure 9[N/cm²];left pressure 10[N/cm²];left pressure 11[N/cm²];left pressure 12[N/cm²];left pressure 13[N/cm²];left pressure 14[N/cm²];left pressure 15[N/cm²];left pressure 16[N/cm²];left acceleration X[g];left acceleration Y[g];left acceleration Z[g];left angular X[dps];left angular Y[dps];left angular Z[dps];left total force[N];left center of pressure X[-0.5...+0.5];left center of pressure Y[-0.5...+0.5];right pressure 1[N/cm²];right pressure 2[N/cm²];right pressure 3[N/cm²];right pressure 4[N/cm²];right pressure 5[N/cm²];right pressure 6[N/cm²];right pressure 7[N/cm²];right pressure 8[N/cm²];right pressure 9[N/cm²];right pressure 10[N/cm²];right pressure 11[N/cm²];right pressure 12[N/cm²];right pressure 13[N/cm²];right pressure 14[N/cm²];right pressure 15[N/cm²];right pressure 16[N/cm²];right acceleration X[g];right acceleration Y[g];right acceleration Z[g];right angular X[dps];right angular Y[dps];right angular Z[dps];right total force[N];right center of pressure X[-0.5...+0.5];right center of pressure Y[-0.5...+0.5]
0.0;9.0;7.25;6.25;4.25;1.0;0.75;0.25;0.25;2.25;0.75;1.0;0.5;0.25;1.25;0.25;0.5;-0.221191;0.019531;0.986816;-0.63;0.7;0.56;409.0;-0.213887;-0.004603;5.75;5.75;3.75;3.75;1.5;1.75;0.5;0.75;2.75;1.5;1.5;0.75;0.75;1.5;1.0;0.75;-0.255859;0.027344;0.970703;-0.7;-0.91;0.7;392.0;-0.120531;-0.030155
0.01;9.0;7.25;6.25;4.25;1.0;0.75;0.25;0.25;2.25;0.75;1.0;0.5;0.25;1.25;0.25;0.5;-0.221191;0.019531;0.986816;-0.63;0.7;0.56;409.0;-0.213887;-0.004603;4.75;5.5;3.5;3.75;1.5;1.75;0.5;0.75;2.75;1.5;1.5;0.5;0.75;1.25;1.25;0.75;-0.255859;0.033691;0.976562;-0.7;-0.91;0.63;373.0;-0.110572;-0.034071
0.02;9.0;7.25;6.0;4.25;1.0;0.75;0.25;0.25;2.25;1.0;1.0;0.5;0.25;1.25;0.5;0.5;-0.219727;0.023926;0.991211;-0.63;0.56;0.56;412.0;-0.206041;-0.005365;5.25;5.5;3.5;4.0;1.5;1.75;0.5;0.75;2.75;1.5;1.25;0.5;0.75;1.75;1.0;0.5;-0.253906;0.027344;0.973145;-0.84;-0.91;0.7;379.0;-0.118226;-0.028782
0.03;8.75;7.25;6.25;4.25;1.0;0.75;0.25;0.25;2.25;0.75;1.0;0.75;0.25;1.25;0.25;0.5;-0.222168;0.022949;0.988281;-0.63;0.7;0.56;409.0;-0.209599;-0.00744;5.75;5.5;3.5;4.0;1.25;1.75;0.5;1.0;2.75;1.5;1.25;0.75;0.5;1.5;1.0;0.5;-0.250488;0.025879;0.977051;-0.77;-0.91;0.7;384.0;-0.12374;-0.031989
0.04;8.75;7.0;6.25;4.0;1.0;0.5;0.25;0.25;2.25;0.75;1.0;0.75;0.25;1.25;0.25;0.25;-0.222656;0.024902;0.98584;-0.63;0.63;0.49;399.0;-0.210249;-0.001689;5.5;5.5;3.75;4.0;1.25;1.75;0.5;0.5;2.75;1.5;1.25;0.75;0.5;1.5;1.0;0.5;-0.256836;0.032227;0.973633;-0.77;-0.98;0.7;376.0;-0.125255;-0.024101
0.05;9.0;7.0;6.0;4.0;1.0;0.5;0.25;0.25;2.5;0.5;1.0;0.75;0.25;1.25;0.25;0.5;-0.220215;0.019531;0.992188;-0.56;0.63;0.42;401.0;-0.208116;-0.000756;5.0;5.5;3.75;4.0;1.5;1.75;0.5;0.75;2.5;1.5;1.25;0.75;0.5;1.5;1.0;0.5;-0.258301;0.03125;0.976074;-0.77;-0.91;0.7;374.0;-0.123441;-0.032372
0.06;9.0;7.0;6.0;4.0;1.0;0.75;0.25;0.25;2.5;0.5;1.0;0.5;0.25;1.25;0.25;0.5;-0.227051;0.021484;0.980957;-0.56;0.56;0.63;401.0;-0.210697;-0.000654;5.25;5.5;3.5;4.0;1.5;1.75;0.5;0.75;2.5;1.5;1.25;0.75;0.5;1.5;1.0;0.5;-0.25293;0.032715;0.975098;-0.77;-0.91;0.7;374.0;-0.1244;-0.032295
0.07;8.75;7.0;6.0;4.0;1.0;0.5;0.25;0.25;2.5;1.0;0.75;0.5;0.25;1.0;0.25;0.5;-0.219727;0.021484;0.98584;-0.63;0.56;0.56;396.0;-0.210091;0.001322;4.75;5.25;3.5;4.0;1.5;1.75;0.5;0.75;2.75;1.5;1.25;0.75;0.5;1.5;1.0;0.25;-0.259766;0.030273;0.970703;-0.84;-0.91;0.7;368.0;-0.116356;-0.029436
0.08;8.75;7.25;6.0;4.0;1.0;0.5;0.25;0.25;2.25;1.0;1.0;0.5;0.0;1.0;0.25;0.25;-0.223145;0.020508;0.983887;-0.63;0.63;0.49;394.0;-0.216898;0.000873;5.0;5.25;3.5;3.75;1.25;1.5;0.5;1.0;2.75;1.25;1.25;0.75;0.5;1.5;1.0;0.25;-0.253906;0.035156;0.976074;-0.7;-0.91;0.63;363.0;-0.118412;-0.030386
0.09;8.75;7.25;6.0;4.25;1.0;0.5;0.25;0.25;2.25;0.75;1.0;0.5;0.0;1.25;0.5;0.25;-0.222168;0.024902;0.986816;-0.7;0.56;0.56;399.0;-0.21254;-0.000839;4.75;5.25;3.5;3.75;1.25;1.5;0.5;0.75;2.75;1.5;1.25;0.75;0.5;1.5;1.0;0.5;-0.254883;0.029785;0.968262;-0.77;-0.91;0.7;360.0;-0.112603;-0.027723
0.1;8.75;7.25;5.75;4.25;1.0;0.75;0.25;0.25;2.25;1.0;1.0;0.5;0.0;0.75;0.5;0.25;-0.222168;0.022949;0.985352;-0.63;0.63;0.56;397.0;-0.215746;-0.005191;4.75;5.25;3.75;4.0;1.5;1.75;0.5;0.75;2.75;1.25;1.25;0.75;0.5;1.5;0.75;0.5;-0.257812;0.025391;0.972168;-0.77;-0.98;0.63;367.0;-0.122536;-0.029907
0.11;8.75;7.0;6.0;4.25;1.0;0.5;0.25;0.25;2.25;1.0;1.0;0.5;0.25;0.75;0.25;0.25;-0.220215;0.019043;0.987305;-0.63;0.63;0.56;394.0;-0.217557;-0.003579;4.75;5.25;3.75;3.75;1.5;1.75;0.5;0.75;2.5;1.5;1.25;0.75;0.5;1.25;0.75;0.5;-0.257812;0.03418;0.973633;-0.7;-0.98;0.63;361.0;-0.125506;-0.031901
0.12;8.75;7.0;6.25;4.25;1.0;0.5;0.25;0.25;2.0;1.0;0.75;0.5;0.25;1.0;0.0;0.25;-0.225098;0.022949;0.998535;-0.56;0.7;0.56;390.0;-0.226365;-0.002922;4.75;5.5;3.75;3.5;1.5;1.75;0.5;0.75;2.75;1.5;1.25;0.75;0.5;1.5;0.75;0.5;-0.259277;0.038086;0.975098;-0.77;-1.05;0.77;366.0;-0.119038;-0.026923
0.13;9.0;7.0;6.25;4.25;1.25;0.5;0.25;0.25;2.0;0.75;0.5;0.5;0.0;1.0;0.25;0.25;-0.214355;0.022461;0.987305;-0.56;0.49;0.56;391.0;-0.231306;0.000902;4.75;5.5;3.75;4.0;1.25;1.25;0.5;0.75;2.75;1.5;1.25;1.0;0.5;1.5;1.0;0.5;-0.258301;0.034668;0.974121;-0.84;-0.98;0.7;369.0;-0.114539;-0.029422
0.14;8.75;7.0;6.25;4.25;1.0;0.5;0.25;0.25;2.25;0.5;1.0;0.5;0.0;1.25;0.25;0.25;-0.222656;0.021484;0.992188;-0.63;0.77;0.56;394.0;-0.219423;0.00104;5.0;5.25;3.5;3.75;1.25;1.25;0.5;0.5;2.75;1.5;1.5;0.75;0.5;1.5;1.0;0.5;-0.255371;0.032715;0.973145;-0.77;-0.98;0.77;359.0;-0.113031;-0.021093
0.15;8.5;7.25;6.0;4.0;1.0;0.5;0.25;0.25;2.25;0.5;1.25;0.75;0.0;1.25;0.25;0.25;-0.226562;0.021973;0.986328;-0.56;0.7;0.49;393.0;-0.212112;-0.002794;5.0;5.25;3.75;3.75;1.25;1.25;0.5;0.75;2.75;1.5;1.25;1.0;0.5;1.5;0.75;0.5;-0.257812;0.029785;0.972656;-0.77;-0.91;0.7;363.0;-0.117384;-0.025366
0.16;8.5;7.0;6.25;4.25;1.0;0.5;0.25;0.25;2.25;0.5;1.25;0.5;0.25;1.25;0.25;0.25;-0.222656;0.024414;0.991699;-0.56;0.7;0.56;396.0;-0.212588;-0.003322;5.0;5.25;3.5;3.75;1.5;1.5;0.5;0.75;2.75;1.5;1.25;0.75;0.5;1.5;0.75;0.5;-0.254395;0.02832;0.977051;-0.77;-0.91;0.7;363.0;-0.119076;-0.025494
0.17;8.75;7.0;5.75;4.25;1.0;0.5;0.25;0.25;2.25;0.75;1.25;0.25;0.25;1.25;0.25;0.25;-0.220215;0.022461;0.988281;-0.63;0.7;0.56;393.0;-0.212954;-0.00132;4.75;5.25;3.5;3.5;1.5;1.75;0.5;0.75;2.5;1.5;1.25;0.75;0.5;1.25;1.0;0.5;-0.25293;0.023926;0.978027;-0.84;-0.98;0.7;357.0;-0.118675;-0.031719
0.18;9.0;7.0;6.0;4.25;1.0;0.5;0.25;0.25;1.75;0.5;0.75;0.5;0.25;1.25;0.25;0.5;-0.228027;0.029297;0.978516;-0.63;0.56;0.56;388.0;-0.227891;-0.007061;4.75;5.25;3.5;3.5;1.5;1.25;0.5;0.75;2.75;1.75;1.5;0.75;0.5;1.25;0.75;0.5;-0.257324;0.033203;0.974121;-0.84;-0.98;0.7;358.0;-0.112979;-0.02416
0.19;9.0;7.25;6.0;4.0;1.0;0.5;0.25;0.25;2.0;0.25;1.25;0.5;0.25;1.25;0.0;0.5;-0.223633;0.02002;0.987793;-0.56;0.7;0.63;391.0;-0.225643;-0.005398;4.75;5.25;3.5;3.75;1.25;1.5;0.5;0.75;2.75;1.0;1.25;0.75;0.5;1.25;0.75;0.5;-0.255371;0.027344;0.970703;-0.84;-0.98;0.7;349.0;-0.126104;-0.030132
0.2;8.75;7.0;6.0;4.0;1.0;0.5;0.25;0.25;2.25;0.5;1.25;0.5;0.25;1.25;0.25;0.5;-0.228027;0.020508;0.991211;-0.56;0.63;0.56;395.0;-0.210826;-0.002714;5.25;5.5;3.75;4.0;1.5;1.25;0.5;0.75;2.75;1.25;1.25;0.75;0.5;1.25;1.0;0.5;-0.258301;0.030762;0.975586;-0.77;-0.91;0.77;369.0;-0.127613;-0.026508
0.21;8.75;7.0;6.0;4.25;1.0;0.5;0.25;0.25;2.5;0.5;0.75;0.5;0.25;0.75;0.25;0.25;-0.220215;0.017578;0.987305;-0.56;0.7;0.49;389.0;-0.223148;-0.001187;5.75;5.5;3.5;3.75;1.25;1.25;0.5;0.75;2.75;1.5;1.5;0.75;0.5;1.25;1.0;0.5;-0.253906;0.027344;0.969727;-0.77;-0.98;0.7;372.0;-0.123871;-0.024502
0.22;8.75;6.75;6.0;4.25;1.0;0.5;0.25;0.25;2.25;0.5;0.75;0.5;0.25;0.5;0.5;0.25;-0.22168;0.022461;0.985352;-0.49;0.56;0.56;384.0;-0.225479;-0.004357;5.25;5.5;3.5;3.25;1.25;1.25;0.5;0.75;2.75;1.5;1.25;0.75;0.5;1.5;1.0;0.5;-0.253906;0.032715;0.975586;-0.84;-0.98;0.77;359.0;-0.116062;-0.021227
0.23;8.75;7.25;6.0;4.25;1.0;0.75;0.25;0.25;2.25;0.5;1.0;0.25;0.25;0.75;0.25;0.5;-0.225098;0.017578;0.985352;-0.56;0.63;0.63;393.0;-0.225918;-0.006663;4.75;5.25;3.5;3.5;1.25;1.5;0.5;0.75;2.75;1.5;1.5;1.0;0.5;1.5;0.75;0.5;-0.253906;0.025879;0.973145;-0.91;-0.98;0.77;360.0;-0.11003;-0.028494
0.24;8.75;6.75;6.0;4.0;1.0;0.5;0.25;0.25;2.25;0.25;1.25;0.25;0.25;1.0;0.25;0.5;-0.219727;0.019531;0.987793;-0.63;0.63;0.49;384.0;-0.219732;-0.001026;5.25;5.5;3.5;3.75;1.25;1.25;0.5;0.75;3.0;1.5;1.75;0.75;0.5;1.5;0.75;0.5;-0.253906;0.029785;0.975098;-0.77;-0.91;0.7;372.0;-0.114022;-0.022654
0.25;9.0;7.25;6.0;4.0;1.0;0.5;0.25;0.0;2.25;0.5;1.25;0.5;0.25;1.25;0.25;0.25;-0.220703;0.023438;0.993652;-0.49;0.56;0.56;394.0;-0.217763;0.002317;4.75;5.5;3.5;4.0;1.25;1.5;0.5;0.75;3.0;1.5;1.75;0.75;0.5;1.25;1.0;0.5;-0.253418;0.030762;0.980469;-0.77;-0.91;0.7;373.0;-0.110602;-0.029979
0.26;8.75;7.25;6.0;4.0;1.0;0.5;0.25;0.0;2.25;0.5;1.0;0.5;0.0;1.25;0.25;0.25;-0.226562;0.02832;0.989746;-0.63;0.7;0.56;386.0;-0.222049;0.005239;4.75;5.25;3.5;3.5;1.5;1.25;0.5;0.75;3.0;1.5;1.25;0.5;0.5;1.5;1.0;0.5;-0.251465;0.033691;0.970703;-0.84;-1.05;0.77;358.0;-0.109813;-0.018113
0.27;8.75;7.25;6.0;4.25;1.0;0.5;0.25;0.0;2.25;0.25;1.0;0.5;0.25;1.0;0.25;0.5;-0.223145;0.022949;0.984863;-0.56;0.7;0.56;388.0;-0.225141;-0.002051;4.75;5.0;3.5;3.25;1.25;1.25;0.5;0.5;3.0;1.5;1.25;0.5;0.5;1.5;1.0;0.5;-0.260742;0.030273;0.972168;-0.84;-0.98;0.7;345.0;-0.107073;-0.011423
0.28;8.75;7.0;6.0;4.25;1.0;0.5;0.25;0.25;2.5;0.25;0.75;0.5;0.25;1.25;0.25;0.25;-0.224121;0.019043;0.987793;-0.49;0.56;0.63;391.0;-0.218971;0.000464;4.5;5.0;3.25;3.5;1.25;1.25;0.5;0.5;3.0;1.5;1.5;0.75;0.75;1.25;1.0;0.5;-0.254883;0.030762;0.979004;-0.77;-0.91;0.7;348.0;-0.101081;-0.022637
0.29;8.75;7.0;6.0;4.0;1.0;0.5;0.25;0.25;2.5;0.75;0.75;0.5;0.0;1.25;0.25;0.25;-0.222168;0.018555;0.98584;-0.56;0.7;0.63;392.0;-0.214111;0.005889;4.75;5.25;3.5;3.5;1.25;1.5;0.5;0.5;3.0;1.5;1.5;0.5;0.5;1.75;1.0;0.75;-0.250488;0.027344;0.968262;-0.77;-0.91;0.77;360.0;-0.103201;-0.017291
0.3;8.75;7.0;5.75;4.25;1.25;1.0;0.25;0.25;3.0;1.0;1.25;0.5;0.0;1.25;0.25;0.25;-0.224121;0.024414;0.989258;-0.56;0.7;0.56;416.0;-0.195498;0.003367;4.75;5.5;3.5;3.75;1.25;1.5;0.5;0.75;3.0;1.75;1.25;0.5;0.5;1.5;1.0;0.75;-0.254883;0.029297;0.96875;-0.77;-0.98;0.77;368.0;-0.108982;-0.024078
0.31;8.75;7.0;6.0;4.25;1.25;0.75;0.25;0.25;2.25;0.5;1.0;0.5;0.25;1.25;0.25;0.25;-0.221191;0.021973;0.988281;-0.56;0.63;0.49;399.0;-0.21557;-0.00395;4.75;5.0;3.5;3.5;1.25;1.25;0.5;0.75;2.75;1.5;1.5;0.75;0.5;1.5;1.0;0.75;-0.257324;0.026855;0.968262;-0.84;-0.98;0.7;356.0;-0.103963;-0.024934
0.32;8.75;7.25;6.25;4.0;1.0;0.75;0.25;0.25;2.25;0.5;1.0;0.5;0.0;0.75;0.25;0.25;-0.222168;0.021484;0.984863;-0.56;0.7;0.49;392.0;-0.227148;-0.00248;5.0;4.75;3.5;3.5;1.25;1.25;0.5;1.0;2.75;1.5;1.75;0.75;0.75;1.5;1.0;0.5;-0.258301;0.022949;0.978027;-0.84;-1.05;0.77;364.0;-0.100606;-0.029472
0.33;8.5;6.75;6.0;4.0;1.25;0.75;0.25;0.25;2.25;0.5;1.0;0.5;0.0;0.5;0.25;0.25;-0.222168;0.021973;0.989258;-0.63;0.7;0.56;382.0;-0.226123;-0.002471;4.75;5.25;3.5;3.75;1.5;1.5;0.5;1.0;2.75;1.5;1.75;0.5;0.5;1.5;1.25;0.5;-0.255859;0.033691;0.969727;-0.77;-1.05;0.7;373.0;-0.104878;-0.030769
0.34;8.5;7.25;6.0;4.0;1.25;0.75;0.25;0.25;2.25;0.5;1.0;0.5;0.0;0.75;0.0;0.25;-0.224121;0.023438;0.979492;-0.63;0.77;0.49;386.0;-0.229475;-0.002933;4.75;5.25;3.5;3.5;1.5;1.75;0.5;0.75;2.75;1.5;1.25;0.5;0.5;1.25;1.0;0.5;-0.257324;0.026855;0.970215;-0.77;-0.91;0.7;358.0;-0.117563;-0.026537
0.35;8.5;7.25;6.0;4.0;1.0;0.75;0.25;0.25;2.25;0.5;1.0;0.5;0.0;1.0;0.25;0.25;-0.220215;0.021973;0.98291;-0.56;0.56;0.56;388.0;-0.221739;-0.002935;4.75;5.0;3.5;3.5;1.25;1.5;0.5;0.75;3.0;1.5;1.25;0.75;0.75;1.5;1.0;0.5;-0.257812;0.026855;0.977051;-0.77;-0.98;0.77;361.0;-0.103525;-0.024955
0.36;8.5;7.25;5.75;4.0;1.0;0.5;0.25;0.25;2.25;0.25;1.0;0.5;0.25;1.0;0.25;0.5;-0.225586;0.016602;0.993164;-0.63;0.63;0.56;383.0;-0.220705;-0.006087;4.75;5.0;3.5;3.75;1.25;1.5;0.5;0.75;3.0;1.25;1.25;0.75;0.5;1.5;1.0;0.75;-0.25;0.027832;0.976562;-0.84;-0.91;0.77;360.0;-0.107651;-0.025653
0.37;8.75;6.75;5.75;4.0;1.0;0.5;0.25;0.25;2.75;0.25;1.0;0.25;0.25;1.25;0.25;0.25;-0.217773;0.023438;0.986816;-0.63;0.7;0.49;386.0;-0.212277;0.006486;4.75;5.0;3.5;3.5;1.5;1.75;0.5;0.75;3.0;1.75;1.25;0.75;0.5;1.25;1.0;0.5;-0.254395;0.029297;0.976562;-0.84;-0.91;0.77;365.0;-0.106467;-0.024046
0.38;8.5;7.25;5.75;4.0;1.0;0.75;0.25;0.25;2.25;0.5;1.0;0.5;0.25;0.75;0.25;0.25;-0.219727;0.023438;0.986328;-0.7;0.77;0.49;385.0;-0.222824;-0.007556;4.5;4.75;3.5;3.5;1.5;1.25;0.5;0.75;2.75;1.5;1.5;0.75;0.5;1.5;1.0;0.5;-0.258301;0.031738;0.973145;-0.77;-0.91;0.7;352.0;-0.101455;-0.023049
0.39;8.75;7.0;6.0;4.25;1.25;0.75;0.25;0.25;2.75;0.75;1.0;0.25;0.25;0.75;0.5;0.5;-0.222656;0.019531;0.991211;-0.63;0.84;0.49;406.0;-0.20776;-0.00026;4.75;5.0;3.5;3.25;1.5;1.5;0.5;0.75;2.75;1.5;1.75;0.75;0.5;1.5;1.0;0.5;-0.259277;0.030273;0.976074;-0.84;-0.91;0.63;360.0;-0.102301;-0.024134
0.4;8.75;7.25;6.0;4.0;1.25;0.75;0.25;0.25;2.25;0.75;1.25;0.25;0.25;0.75;0.25;0.25;-0.223633;0.020508;0.991699;-0.56;0.63;0.42;397.0;-0.220286;-0.003637;4.5;4.75;3.5;3.25;1.25;1.5;0.5;0.75;2.75;1.5;1.5;0.75;0.5;1.5;1.0;0.5;-0.256836;0.03125;0.969238;-0.91;-1.12;0.77;349.0;-0.100086;-0.02417
0.41;8.75;7.25;6.25;4.0;1.0;0.5;0.25;0.25;2.25;0.5;1.25;0.5;0.25;1.0;0.25;0.25;-0.223633;0.022949;0.987793;-0.63;0.56;0.56;396.0;-0.21834;-0.002941;4.5;4.75;3.5;3.25;1.25;1.5;0.5;0.5;2.75;1.5;1.25;0.75;0.5;1.5;1.0;0.5;-0.254883;0.030762;0.973633;-0.84;-0.98;0.77;342.0;-0.103879;-0.018932
0.42;8.5;7.25;5.75;4.0;1.0;0.5;0.25;0.25;2.75;0.5;1.25;0.5;0.0;1.25;0.25;0.25;-0.219238;0.021973;0.988281;-0.7;0.7;0.49;395.0;-0.206282;0.003658;4.25;4.75;3.5;3.0;1.25;1.25;0.5;0.75;2.75;1.5;1.25;0.75;0.5;1.5;1.25;0.5;-0.25;0.031738;0.972168;-0.77;-0.98;0.7;340.0;-0.093926;-0.021053
0.43;8.5;7.25;5.75;4.0;1.0;0.5;0.25;0.25;2.25;1.0;1.25;0.5;0.0;1.0;0.25;0.25;-0.227539;0.020996;0.987305;-0.7;0.63;0.56;391.0;-0.211929;-0.001454;4.25;5.0;3.5;3.25;1.5;1.25;0.5;0.75;2.75;1.75;1.25;0.75;0.5;1.5;0.75;0.5;-0.251953;0.025391;0.973145;-0.84;-1.05;0.77;346.0;-0.103786;-0.021451
0.44;8.5;6.75;6.0;4.0;1.0;0.5;0.25;0.25;2.25;0.5;1.0;0.5;0.25;1.0;0.25;0.25;-0.224121;0.022461;0.991211;-0.56;0.63;0.56;383.0;-0.217305;-0.001508;4.75;4.75;3.5;3.5;1.25;1.25;0.5;0.75;2.75;1.5;1.25;0.75;0.5;1.5;0.75;0.5;-0.257324;0.030762;0.973145;-0.63;-0.98;0.63;346.0;-0.11063;-0.021448
0.45;8.5;6.75;6.0;4.0;1.0;0.75;0.25;0.25;2.75;0.25;1.0;0.5;0.0;1.25;0.25;0.5;-0.223633;0.021484;0.98877;-0.56;0.56;0.56;391.0;-0.207881;0.003644;4.5;5.0;3.5;3.0;1.0;1.25;0.5;0.75;2.75;1.75;1.25;0.75;0.5;1.5;0.75;0.5;-0.255859;0.030762;0.973633;-0.7;-0.98;0.7;340.0;-0.104279;-0.020034
0.46;8.75;7.25;6.25;4.0;1.0;0.5;0.25;0.25;2.25;0.5;1.0;0.5;0.0;1.0;0.0;0.5;-0.223633;0.026855;0.990234;-0.56;0.56;0.56;390.0;-0.226345;6e-05;4.5;5.25;3.5;3.25;1.5;1.25;0.5;0.75;3.0;1.5;1.25;0.75;0.5;1.5;0.75;0.5;-0.256348;0.027344;0.975586;-0.84;-0.98;0.77;352.0;-0.107551;-0.019125
0.47;8.5;7.25;5.75;3.5;1.0;0.5;0.25;0.25;2.5;0.5;1.0;0.25;0.0;0.75;0.25;0.25;-0.226562;0.022461;0.986328;-0.56;0.63;0.63;375.0;-0.223561;0.005791;4.5;5.0;3.5;3.5;1.25;1.25;0.5;0.5;3.0;1.5;1.25;0.75;0.75;1.75;0.75;0.5;-0.257812;0.031738;0.976562;-0.84;-1.12;0.77;350.0;-0.102537;-0.017757
0.48;8.5;7.25;5.75;4.0;1.0;0.5;0.5;0.0;2.25;0.5;1.0;0.25;0.0;0.75;0.25;0.25;-0.220703;0.021484;0.986328;-0.63;0.63;0.49;377.0;-0.228145;0.006552;4.75;4.75;3.5;3.5;1.5;1.5;0.5;0.75;3.0;1.75;1.25;0.75;0.75;1.75;1.0;0.5;-0.256836;0.023438;0.978027;-0.77;-0.98;0.77;366.0;-0.095609;-0.021303
0.49;8.5;6.75;6.0;4.0;1.0;0.5;0.5;0.0;2.0;0.75;1.25;0.5;0.25;0.75;0.25;0.5;-0.223633;0.019043;0.986328;-0.63;0.63;0.56;384.0;-0.215637;0.000117;4.5;4.75;3.5;3.75;1.5;1.5;0.5;0.75;3.0;1.75;1.25;1.0;0.5;1.5;1.0;0.5;-0.256348;0.029297;0.978027;-0.7;-0.98;0.7;365.0;-0.097345;-0.02458
0.5;8.25;6.5;5.75;4.25;1.0;0.5;0.5;0.25;2.75;0.75;1.0;0.5;0.0;0.75;0.25;0.5;-0.219727;0.018555;0.978027;-0.56;0.7;0.42;388.0;-0.203489;0.004996;4.5;4.75;3.5;3.5;1.25;1.5;0.5;1.0;3.0;1.5;1.75;0.75;0.5;1.5;0.75;0.5;-0.255859;0.026855;0.972168;-0.77;-1.05;0.77;360.0;-0.098544;-0.027394
0.51;8.5;6.5;5.75;4.25;1.0;0.5;0.25;0.25;3.0;0.75;1.25;0.5;0.0;1.0;0.5;0.25;-0.216797;0.023438;0.986816;-0.63;0.7;0.56;397.0;-0.19471;0.006397;4.5;5.0;3.5;3.5;1.25;1.25;0.5;0.5;3.0;1.5;1.75;0.75;0.5;1.5;0.5;0.5;-0.25293;0.02832;0.973145;-0.77;-0.98;0.7;348.0;-0.106614;-0.017142
0.52;8.5;7.25;6.0;4.0;1.0;0.75;0.5;0.25;2.75;0.75;1.25;0.25;0.0;1.25;0.25;0.25;-0.222168;0.012695;0.989258;-0.56;0.63;0.49;405.0;-0.203234;0.007258;4.75;5.0;3.5;3.75;1.5;1.25;0.5;0.5;3.0;1.5;1.25;0.75;0.5;1.5;1.25;0.5;-0.257812;0.030273;0.972168;-0.77;-0.98;0.7;360.0;-0.103606;-0.017211
0.53;8.75;7.0;6.0;4.0;1.25;0.75;0.5;0.25;2.75;0.75;1.25;0.25;0.0;1.25;0.25;0.5;-0.222656;0.022949;0.983398;-0.63;0.56;0.56;409.0;-0.200693;0.008263;4.5;5.25;3.25;3.25;1.5;1.25;0.5;0.75;3.0;1.5;1.5;0.75;0.5;1.5;1.5;0.5;-0.255371;0.030762;0.971191;-0.77;-1.05;0.7;361.0;-0.091283;-0.022312
0.54;8.75;7.25;6.25;4.25;1.0;0.75;0.25;0.0;2.5;1.0;1.0;0.5;0.0;1.25;0.25;0.5;-0.227051;0.024414;0.98584;-0.63;0.42;0.42;406.0;-0.209535;0.004162;4.5;5.25;3.5;3.75;1.25;1.25;0.5;0.75;3.0;1.5;1.5;0.75;0.5;1.5;1.25;0.5;-0.249512;0.027344;0.978027;-0.84;-1.05;0.77;364.0;-0.09963;-0.024934
0.55;8.5;6.75;6.25;4.0;1.25;0.75;0.25;0.25;2.25;1.0;1.0;0.75;0.25;0.75;0.0;0.5;-0.221191;0.021973;0.992188;-0.56;0.56;0.56;397.0;-0.212878;-0.005204;4.75;5.25;3.5;3.75;1.25;1.25;0.5;0.75;3.0;1.5;1.5;0.75;0.75;1.5;1.25;0.75;-0.255371;0.02832;0.977051;-0.84;-0.91;0.7;370.0;-0.0984;-0.027841
0.56;8.5;6.5;6.25;4.0;1.25;0.5;0.25;0.0;2.75;1.0;1.0;0.5;0.25;1.0;0.0;0.5;-0.218262;0.022461;0.985352;-0.63;0.56;0.49;393.0;-0.205022;0.01023;4.75;4.75;3.5;3.5;1.5;1.25;0.5;0.75;3.0;1.5;1.5;0.75;0.75;1.0;1.0;0.5;-0.259277;0.029785;0.975098;-0.7;-0.91;0.84;356.0;-0.105167;-0.02453
0.57;8.5;6.25;6.25;4.25;1.0;0.5;0.25;0.25;3.25;0.75;1.0;0.25;0.25;1.0;0.25;0.5;-0.222656;0.021973;0.986328;-0.7;0.7;0.49;399.0;-0.196393;0.010897;4.75;4.75;3.5;3.5;1.5;1.75;0.5;0.75;3.0;1.75;1.5;1.0;0.5;1.5;1.0;0.5;-0.253418;0.032715;0.978027;-0.84;-0.91;0.84;370.0;-0.096086;-0.024638
0.58;8.75;6.75;6.25;4.25;1.25;0.75;0.25;0.25;3.0;0.75;1.0;0.25;0.25;1.0;0.5;0.5;-0.223145;0.020996;0.988281;-0.7;0.56;0.49;413.0;-0.199396;0.004797;4.75;4.75;3.5;3.5;1.5;1.25;0.5;0.75;3.0;1.75;1.5;0.75;0.5;1.5;1.25;0.75;-0.261719;0.028809;0.973633;-0.77;-0.91;0.7;366.0;-0.091778;-0.020087
0.59;8.5;6.5;6.0;4.0;1.25;1.0;0.25;0.0;2.75;0.75;1.25;0.25;0.25;1.25;0.25;0.5;-0.225098;0.022461;0.986816;-0.49;0.42;0.56;399.0;-0.198847;0.006638;4.5;5.0;3.25;3.25;1.5;1.75;0.5;0.75;3.0;1.75;1.5;0.75;0.5;1.75;1.25;0.75;-0.258301;0.02832;0.976074;-0.77;-1.12;0.77;368.0;-0.086366;-0.024157
0.6;8.5;6.75;6.25;4.25;1.0;1.0;0.5;0.0;3.0;1.0;1.0;0.25;0.25;1.0;0.25;0.5;-0.225098;0.024902;0.983887;-0.77;0.63;0.56;410.0;-0.198473;0.009087;4.5;5.0;3.5;3.25;1.5;1.5;0.5;0.75;3.0;1.75;1.5;0.75;0.5;1.75;1.0;0.5;-0.254883;0.035645;0.974609;-0.84;-1.05;0.77;364.0;-0.093045;-0.019534
0.61;8.75;6.5;6.25;4.25;1.25;1.0;0.5;0.25;2.75;1.0;1.0;0.5;0.25;1.0;0.25;0.5;-0.223633;0.025391;0.990723;-0.7;0.42;0.35;416.0;-0.197243;0.002805;4.75;5.25;3.75;3.5;1.25;1.25;0.5;0.75;3.0;1.75;1.5;1.0;0.75;1.75;0.75;0.5;-0.253906;0.03125;0.974609;-0.84;-1.05;0.77;371.0;-0.099718;-0.023403
0.62;8.75;6.5;6.25;4.25;1.25;1.0;0.5;0.25;2.75;1.0;1.25;0.5;0.25;0.75;0.25;0.5;-0.226562;0.017578;0.986816;-0.7;0.42;0.56;417.0;-0.197736;0.001017;4.75;5.25;3.75;3.75;1.5;1.5;0.5;0.75;3.0;1.75;1.25;1.0;0.75;1.75;1.0;0.5;-0.250488;0.031738;0.977051;-0.84;-0.98;0.77;380.0;-0.100435;-0.026021
0.63;8.75;7.0;6.25;4.25;1.0;0.75;0.5;0.25;3.0;1.0;1.5;0.5;0.0;1.0;0.25;0.5;-0.226562;0.020508;0.98877;-0.77;0.56;0.49;422.0;-0.193162;0.005595;4.75;4.75;3.5;3.5;1.5;1.75;0.5;0.75;3.0;1.75;1.25;1.0;0.75;1.75;1.0;0.5;-0.253906;0.02832;0.96875;-0.84;-1.12;0.77;372.0;-0.093707;-0.025439
0.64;8.75;7.25;6.25;4.25;1.25;1.0;0.5;0.25;3.0;1.0;1.25;0.5;0.0;0.75;0.25;0.5;-0.219727;0.022461;0.983887;-0.63;0.56;0.56;426.0;-0.199839;0.002903;4.75;4.75;3.5;3.25;1.5;1.25;0.5;0.75;3.0;1.75;1.5;1.0;0.75;1.5;1.0;0.5;-0.255859;0.024902;0.977051;-0.77;-1.19;0.77;364.0;-0.091871;-0.021756
0.65;8.75;7.25;6.25;4.25;1.0;0.75;0.5;0.25;2.75;1.0;1.25;0.75;0.0;0.75;0.5;0.5;-0.220703;0.023926;0.987793;-0.63;0.7;0.56;422.0;-0.197654;-0.000487;4.75;5.0;3.5;3.5;1.25;1.25;0.5;0.75;3.0;1.75;1.5;1.25;0.75;1.5;0.75;0.5;-0.256348;0.025391;0.969727;-0.91;-1.19;0.77;366.0;-0.09698;-0.026776
0.66;8.75;6.75;6.25;4.25;1.0;0.75;0.5;0.25;3.0;1.0;1.25;0.5;0.0;1.0;0.5;0.5;-0.22168;0.023926;0.994629;-0.56;0.77;0.49;420.0;-0.190574;0.006855;4.75;5.25;3.5;3.75;1.25;1.75;0.5;1.0;3.0;1.75;1.25;1.25;0.75;1.5;1.0;0.75;-0.257812;0.031738;0.974609;-0.77;-1.19;0.63;383.0;-0.097379;-0.037879
0.67;8.5;6.75;6.25;4.25;1.25;0.75;0.5;0.25;2.75;1.0;1.25;0.5;0.0;1.25;0.5;0.5;-0.222168;0.020508;0.98291;-0.63;0.63;0.56;419.0;-0.189143;0.005219;4.75;5.25;3.5;3.75;1.5;1.75;0.5;0.75;3.25;1.5;1.75;1.0;0.75;1.25;1.0;0.5;-0.255371;0.030273;0.977539;-0.84;-1.05;0.7;382.0;-0.100066;-0.030542
0.68;8.5;7.25;6.25;4.25;1.0;1.0;0.5;0.25;2.75;0.75;1.25;0.5;0.25;1.25;0.25;0.5;-0.222168;0.025391;0.98291;-0.63;0.77;0.49;420.0;-0.197029;-0.001619;4.75;5.25;3.75;3.75;1.25;1.25;0.5;0.75;3.25;1.75;1.75;1.0;0.75;1.5;1.0;0.5;-0.255859;0.026855;0.974609;-0.84;-0.98;0.63;381.0;-0.094718;-0.024554
0.69;8.75;6.75;6.25;4.0;1.25;0.75;0.5;0.25;3.0;0.5;1.0;0.75;0.25;1.0;0.25;0.5;-0.222168;0.020996;0.986816;-0.63;0.56;0.56;414.0;-0.197513;0.004835;4.75;5.25;3.5;3.75;1.5;1.5;0.5;0.75;3.25;1.75;1.5;1.0;0.75;1.5;1.0;0.5;-0.256348;0.026367;0.972168;-0.77;-0.91;0.77;381.0;-0.096445;-0.02604
0.7;8.25;6.75;6.0;4.0;1.25;0.75;0.5;0.25;3.25;0.5;1.25;0.75;0.25;1.25;0.25;0.5;-0.22168;0.02002;0.989258;-0.63;0.56;0.63;414.0;-0.183925;0.005255;4.75;5.25;3.5;3.75;1.5;1.25;0.5;0.75;3.0;1.75;1.5;1.0;0.5;1.5;1.0;0.5;-0.249023;0.033691;0.974609;-0.7;-0.91;0.77;372.0;-0.101068;-0.0242
0.71;8.5;7.25;6.25;4.25;1.25;0.75;0.5;0.25;3.0;1.0;1.25;0.75;0.25;1.25;0.25;0.5;-0.22168;0.02002;0.990723;-0.7;0.7;0.49;430.0;-0.187451;0.001455;4.75;5.0;3.5;3.5;1.25;1.25;0.5;0.75;3.0;2.0;1.5;1.25;0.75;1.25;1.25;0.5;-0.252441;0.026855;0.971191;-0.63;-0.84;0.7;373.0;-0.089817;-0.02821
0.72;8.75;7.25;6.25;4.25;1.25;0.75;0.5;0.25;2.75;1.0;1.25;0.5;0.25;1.25;0.25;0.5;-0.225098;0.027344;0.991699;-0.7;0.63;0.63;426.0;-0.195288;0.001889;4.75;4.75;3.75;3.5;1.5;1.5;0.5;0.75;3.0;1.75;1.75;1.25;0.5;1.5;1.25;0.5;-0.256348;0.027344;0.974609;-0.7;-0.84;0.7;379.0;-0.088456;-0.024958
0.73;8.75;6.5;6.0;4.25;1.25;1.0;0.5;0.25;3.0;1.0;1.25;0.5;0.25;1.5;0.25;0.5;-0.223633;0.022949;0.994141;-0.63;0.7;0.63;424.0;-0.183407;0.005586;4.75;5.0;3.75;3.5;1.5;1.75;0.5;1.0;3.0;1.75;1.75;1.0;0.5;1.75;1.25;0.5;-0.253418;0.033691;0.974121;-0.7;-0.91;0.7;388.0;-0.089465;-0.028487
0.74;8.75;6.5;6.0;4.0;1.25;0.75;0.5;0.25;3.0;0.75;1.25;0.75;0.25;1.25;0.5;0.5;-0.225586;0.02002;0.98291;-0.56;0.98;0.49;419.0;-0.18232;0.005189;4.75;5.25;3.5;3.5;1.25;1.75;0.5;1.0;3.25;1.75;1.5;1.0;0.75;1.5;1.0;0.5;-0.258789;0.031738;0.978027;-0.7;-0.98;0.7;383.0;-0.094239;-0.031068
0.75;8.75;6.75;5.75;4.0;1.25;0.75;0.5;0.25;3.25;1.0;1.25;0.5;0.25;1.0;0.5;0.5;-0.223633;0.022461;0.982422;-0.56;1.05;0.49;420.0;-0.182497;0.007353;4.75;5.25;3.5;3.75;1.5;1.5;0.5;0.75;3.0;1.75;1.5;1.0;0.75;1.5;1.0;0.5;-0.257812;0.03418;0.974121;-0.7;-0.91;0.7;378.0;-0.099784;-0.028884
0.76;8.5;6.25;6.0;4.0;1.25;0.75;0.5;0.0;3.0;1.0;1.25;0.5;0.25;1.5;0.5;0.25;-0.224121;0.019531;0.988281;-0.63;0.91;0.56;410.0;-0.179494;0.014203;4.75;4.75;3.5;3.5;1.5;1.5;0.5;1.0;3.25;1.75;1.75;1.25;0.75;1.25;1.0;0.5;-0.255859;0.029297;0.976074;-0.77;-0.84;0.63;381.0;-0.088161;-0.030576
0.77;8.0;6.0;6.0;4.0;1.0;0.75;0.5;0.0;2.75;1.0;1.25;0.5;0.25;1.25;0.5;0.25;-0.217773;0.023926;0.986816;-0.63;0.98;0.63;393.0;-0.182627;0.010305;4.75;4.75;3.5;3.25;1.5;1.75;0.5;0.75;3.25;1.75;1.75;1.25;0.75;1.5;1.0;0.5;-0.251953;0.03418;0.976562;-0.63;-0.84;0.77;379.0;-0.084853;-0.025698
0.78;8.25;6.0;6.0;4.0;1.25;0.75;0.25;0.25;2.75;1.0;1.0;0.75;0.25;0.75;0.25;0.25;-0.223145;0.023438;0.989258;-0.77;1.12;0.56;392.0;-0.196216;0.002051;4.75;4.75;3.5;3.25;1.5;1.75;0.5;0.75;3.0;1.75;1.5;1.0;0.75;1.5;1.25;0.5;-0.25293;0.03125;0.974121;-0.56;-0.84;0.77;373.0;-0.088992;-0.026231
0.79;8.5;6.0;6.0;4.0;1.0;0.75;0.5;0.0;2.75;1.0;1.0;0.75;0.25;1.0;0.25;0.5;-0.21875;0.018066;0.984375;-0.7;1.05;0.56;395.0;-0.19163;0.008869;4.75;4.75;3.25;3.5;1.5;1.5;0.5;0.75;3.25;1.5;1.75;1.0;0.75;1.5;1.25;0.5;-0.254883;0.029785;0.974609;-0.49;-0.7;0.84;373.0;-0.085426;-0.025298
0.8;8.0;6.25;6.0;4.0;1.0;0.5;0.5;0.0;2.75;1.25;1.25;0.75;0.25;1.25;0.5;0.25;-0.222168;0.020996;0.987305;-0.7;0.98;0.49;399.0;-0.178486;0.009471;4.75;5.0;3.0;3.5;1.25;1.5;0.5;1.0;3.0;1.75;1.75;1.0;0.75;1.25;1.25;0.5;-0.254395;0.027344;0.974121;-0.49;-0.7;0.77;371.0;-0.08897;-0.035491
0.81;8.25;6.25;6.0;3.5;1.0;0.5;0.5;0.0;2.75;1.0;1.25;0.5;0.25;1.25;0.5;0.25;-0.22168;0.021973;0.986328;-0.7;0.91;0.63;390.0;-0.18436;0.015661;4.25;4.5;3.25;3.25;1.25;1.5;0.5;1.0;3.0;1.75;1.25;1.0;0.75;1.5;1.25;0.5;-0.255371;0.032715;0.976074;-0.42;-0.56;0.7;357.0;-0.080982;-0.0306
0.82;8.0;6.0;5.75;3.5;1.0;0.5;0.5;0.0;2.75;1.0;1.25;0.5;0.25;1.25;0.5;0.5;-0.225586;0.020996;0.983887;-0.56;0.91;0.49;383.0;-0.178457;0.014308;4.25;4.25;3.25;3.0;1.25;1.5;0.5;1.0;3.0;1.75;1.5;1.0;0.75;1.5;1.25;0.5;-0.251953;0.030762;0.977539;-0.49;-0.49;0.77;354.0;-0.074365;-0.028679
0.83;8.25;6.0;5.5;3.5;1.0;0.5;0.25;0.0;2.75;1.0;1.25;0.5;0.25;1.25;0.25;0.25;-0.225586;0.022949;0.989258;-0.7;0.84;0.56;374.0;-0.188923;0.013937;4.25;4.5;3.0;3.0;1.25;1.5;0.5;1.0;3.0;1.5;1.75;0.75;0.75;1.5;1.25;1.0;-0.255859;0.036621;0.970703;-0.49;-0.56;0.7;354.0;-0.073921;-0.032336
0.84;8.25;6.25;5.75;3.75;1.0;0.5;0.25;0.25;3.0;1.0;1.0;0.5;0.25;1.5;0.25;0.25;-0.225098;0.024414;0.991211;-0.63;0.91;0.42;390.0;-0.185243;0.011508;4.25;4.5;3.0;3.0;1.25;1.5;0.5;1.0;3.0;1.75;1.75;0.75;0.75;1.75;1.25;0.75;-0.256836;0.033691;0.970703;-0.49;-0.56;0.7;357.0;-0.070057;-0.02904
0.85;8.25;6.25;5.75;3.5;1.0;0.5;0.25;0.0;3.0;1.0;1.0;0.5;0.25;1.25;0.25;0.25;-0.223145;0.02002;0.98877;-0.7;0.84;0.56;380.0;-0.189978;0.016772;4.0;4.5;3.0;3.0;1.5;1.5;0.5;1.0;3.0;1.75;1.75;0.75;0.75;1.5;1.25;0.5;-0.257324;0.032227;0.973145;-0.63;-0.63;0.7;354.0;-0.07283;-0.029541
0.86;8.25;6.25;5.75;3.5;1.0;0.75;0.25;0.0;3.0;1.0;1.25;0.5;0.25;1.25;0.5;0.25;-0.22168;0.023926;0.989746;-0.7;0.84;0.49;389.0;-0.182228;0.012853;4.0;4.25;3.0;3.0;1.0;1.75;0.5;0.75;3.0;1.5;1.75;1.0;0.75;1.5;1.25;0.5;-0.258301;0.030762;0.976562;-0.63;-0.77;0.63;344.0;-0.071051;-0.030849
0.87;8.25;6.25;5.75;3.5;1.0;0.5;0.5;0.25;2.75;1.25;1.25;0.5;0.25;1.0;0.5;0.5;-0.224609;0.021973;0.983887;-0.63;0.91;0.49;393.0;-0.180306;0.008919;4.0;4.25;3.0;3.0;1.0;1.5;0.5;1.0;3.0;1.75;1.75;1.0;0.75;1.5;1.25;0.75;-0.255371;0.026855;0.96582;-0.63;-0.84;0.7;350.0;-0.0653;-0.033516
0.88;8.25;6.25;5.75;3.5;1.0;0.5;0.5;0.0;3.0;1.25;1.25;0.5;0.0;1.25;0.25;0.5;-0.225586;0.021973;0.989746;-0.49;0.91;0.56;389.0;-0.181;0.020167;4.0;4.25;3.0;3.0;1.0;1.25;0.5;0.75;3.0;1.5;1.75;1.0;0.75;1.25;1.25;0.75;-0.253906;0.028809;0.970215;-0.7;-0.91;0.63;337.0;-0.071056;-0.029256
0.89;8.0;6.25;5.75;3.5;1.0;0.75;0.25;0.0;3.0;1.25;1.0;0.5;0.0;1.25;0.25;0.5;-0.226074;0.021973;0.98877;-0.56;0.91;0.63;382.0;-0.184989;0.015853;4.0;4.25;3.0;3.0;1.25;1.5;0.5;0.75;3.0;1.75;1.75;1.25;0.75;1.25;1.25;0.5;-0.259766;0.03125;0.974121;-0.77;-0.91;0.7;347.0;-0.069191;-0.030796
0.9;8.25;6.25;5.75;3.5;1.0;0.75;0.5;0.25;3.0;1.0;1.25;0.75;0.0;1.5;0.25;0.5;-0.223633;0.021484;0.986816;-0.42;0.91;0.56;399.0;-0.175755;0.012001;4.0;4.25;3.0;3.0;1.25;1.5;0.5;0.75;3.0;1.5;1.5;0.75;0.75;1.5;1.25;0.5;-0.25293;0.026855;0.977051;-0.77;-0.91;0.63;338.0;-0.075708;-0.024927
0.91;8.25;6.25;5.75;3.75;1.0;0.5;0.25;0.0;2.75;1.0;1.0;0.75;0.25;1.25;0.25;0.5;-0.223145;0.026367;0.984863;-0.42;0.98;0.56;384.0;-0.189782;0.008867;4.0;4.25;3.0;2.75;1.0;1.25;0.5;0.75;3.0;1.5;1.25;0.75;0.75;1.25;1.25;0.5;-0.256836;0.03125;0.974609;-0.7;-0.77;0.7;324.0;-0.078748;-0.022249
0.92;8.0;6.0;5.75;3.75;1.0;0.5;0.25;0.0;3.0;1.0;1.0;0.5;0.25;1.25;0.25;0.5;-0.218262;0.022949;0.98877;-0.49;0.98;0.56;379.0;-0.185505;0.014101;4.0;4.0;3.0;2.75;1.0;1.5;0.5;0.75;3.0;1.75;1.75;0.75;0.75;1.25;1.25;0.5;-0.251953;0.032715;0.978027;-0.7;-0.77;0.63;333.0;-0.068893;-0.024271
0.93;8.25;6.25;5.75;3.75;1.0;0.5;0.5;0.25;3.0;1.0;1.0;0.5;0.25;1.25;0.25;0.5;-0.222168;0.022461;0.983398;-0.35;0.77;0.56;393.0;-0.183935;0.011722;3.75;4.0;3.0;3.0;1.25;1.5;0.5;0.75;3.0;1.5;1.75;1.0;0.75;1.5;1.5;0.75;-0.255859;0.030273;0.978027;-0.7;-0.84;0.77;343.0;-0.059681;-0.029751
0.94;8.0;6.0;5.75;3.5;1.0;0.5;0.25;0.0;3.0;1.0;1.25;0.75;0.25;1.25;0.25;0.5;-0.22168;0.019531;0.989746;-0.28;0.77;0.63;382.0;-0.178653;0.012665;4.0;4.25;3.0;2.75;0.75;1.5;0.5;1.0;3.0;1.75;1.75;1.0;0.5;1.5;1.25;0.75;-0.258301;0.03125;0.976074;-0.77;-0.77;0.7;341.0;-0.064441;-0.029714
0.95;7.75;6.25;5.5;3.5;1.0;0.5;0.25;0.0;2.75;1.0;1.5;1.0;0.25;1.5;0.25;0.5;-0.227539;0.018066;0.98584;-0.28;0.56;0.56;383.0;-0.172415;0.005449;4.0;4.25;3.0;3.0;1.25;1.25;0.5;0.75;3.0;1.75;1.75;1.0;0.5;1.5;1.5;0.75;-0.259766;0.035156;0.973145;-0.77;-0.91;0.77;346.0;-0.063389;-0.023811
0.96;8.25;6.0;5.75;4.0;1.0;0.5;0.25;0.0;2.75;1.0;1.25;0.75;0.25;1.25;0.25;0.5;-0.222168;0.024902;0.992676;-0.28;0.49;0.56;387.0;-0.185994;0.007276;4.0;4.25;2.75;3.0;1.25;1.25;0.5;0.75;3.0;1.75;1.75;1.25;0.75;1.5;1.25;0.75;-0.253418;0.026367;0.975098;-0.84;-0.98;0.63;345.0;-0.061659;-0.029582
0.97;8.25;5.25;6.0;4.0;1.0;0.5;0.25;0.25;2.75;1.0;1.25;0.75;0.25;1.25;0.25;0.5;-0.225098;0.023926;0.990234;-0.35;0.49;0.63;387.0;-0.180247;0.007017;3.75;4.25;3.0;2.75;1.25;1.25;0.5;0.5;3.0;2.0;1.75;1.25;0.5;1.5;1.0;0.75;-0.254883;0.029297;0.978516;-0.91;-0.98;0.77;336.0;-0.062299;-0.019169
0.98;8.25;5.5;5.5;3.75;1.0;0.5;0.25;0.25;2.75;1.25;1.25;0.75;0.25;1.25;0.25;0.5;-0.222656;0.025391;0.989746;-0.35;0.42;0.56;383.0;-0.176486;0.006805;3.5;4.25;3.0;2.75;1.25;1.5;0.5;0.5;3.0;1.5;1.75;1.25;0.5;1.5;1.0;1.0;-0.25293;0.032227;0.969727;-0.91;-1.05;0.7;332.0;-0.0635;-0.025272
0.99;8.0;6.0;5.75;3.75;1.0;0.5;0.25;0.25;2.75;1.0;1.25;0.75;0.25;1.25;0.25;0.5;-0.225098;0.025879;0.985352;-0.21;0.56;0.56;386.0;-0.181737;0.004028;4.25;4.25;3.0;3.0;1.25;1.5;0.5;0.5;3.25;1.5;1.5;1.0;0.5;1.5;1.0;1.0;-0.254883;0.02832;0.973145;-0.98;-1.19;0.84;341.0;-0.075288;-0.017504
1.0;8.25;6.25;6.0;3.75;1.0;0.5;0.25;0.25;2.5;0.75;1.0;0.75;0.0;1.5;0.25;0.5;-0.225586;0.027344;0.98291;-0.21;0.49;0.56;385.0;-0.194349;0.006193;4.25;4.0;3.0;3.0;1.25;1.5;0.5;0.5;3.25;1.75;1.25;1.0;0.5;1.5;1.0;0.75;-0.261719;0.03418;0.977539;-1.05;-1.26;0.84;337.0;-0.074543;-0.013571
1.01;8.25;6.25;5.75;3.75;1.0;0.5;0.25;0.25;2.25;0.75;1.0;0.75;0.25;1.25;0.25;0.5;-0.225098;0.027832;0.990234;-0.21;0.56;0.49;378.0;-0.199498;-0.000976;4.25;4.0;3.0;2.75;1.25;1.5;0.5;0.5;3.0;1.75;1.75;1.0;0.75;1.5;1.0;0.75;-0.258301;0.034668;0.975586;-0.91;-1.12;0.63;339.0;-0.069379;-0.019584
1.02;8.25;6.0;6.0;3.75;1.0;0.5;0.25;0.0;2.75;1.0;1.25;1.0;0.25;1.0;0.25;0.5;-0.223145;0.020508;0.988281;-0.42;0.56;0.56;388.0;-0.186483;0.006442;4.0;4.25;3.0;3.0;1.5;1.5;0.5;0.75;3.25;1.75;1.75;1.0;0.75;1.75;1.0;0.5;-0.257812;0.031738;0.975098;-0.91;-1.19;0.7;353.0;-0.066168;-0.021597
1.03;8.25;6.0;6.0;3.75;1.0;0.5;0.25;0.0;2.75;1.0;1.0;0.5;0.25;1.25;0.0;0.5;-0.224121;0.025879;0.986816;-0.35;0.56;0.56;379.0;-0.196434;0.013685;4.0;4.25;3.25;3.0;1.5;1.5;0.5;0.75;3.25;1.75;1.75;1.0;0.5;1.75;1.0;1.0;-0.256836;0.032715;0.974609;-0.98;-1.12;0.77;357.0;-0.065889;-0.020169
1.04;8.25;6.0;5.75;4.0;1.0;0.5;0.25;0.25;2.75;1.0;1.0;0.5;0.0;1.25;0.25;0.25;-0.226074;0.026367;0.990234;-0.35;0.56;0.63;382.0;-0.194473;0.01027;4.25;4.25;3.0;3.0;1.25;1.5;0.5;0.75;3.25;2.0;2.0;0.75;0.5;2.0;1.0;1.0;-0.257812;0.027832;0.972656;-0.91;-1.19;0.84;358.0;-0.060702;-0.017364
1.05;8.25;6.25;5.75;4.0;1.0;0.5;0.25;0.25;2.75;1.0;1.0;0.75;0.0;1.25;0.25;0.5;-0.229004;0.025391;0.98877;-0.35;0.63;0.63;389.0;-0.19081;0.005624;4.25;4.5;3.0;3.0;1.25;1.5;0.5;0.75;3.25;2.0;1.75;0.75;0.5;1.75;1.0;0.75;-0.257812;0.03125;0.975098;-0.84;-1.05;0.77;354.0;-0.070408;-0.017666
1.06;7.75;6.25;6.0;4.25;1.0;0.75;0.25;0.25;2.75;1.0;1.0;0.5;0.25;1.5;0.25;0.25;-0.222168;0.026367;0.987305;-0.35;0.56;0.56;393.0;-0.188059;0.002549;4.0;4.5;3.0;3.0;1.25;1.5;0.5;1.0;3.25;2.0;1.5;1.0;0.5;1.5;1.0;0.5;-0.259277;0.035156;0.969727;-0.84;-0.98;0.77;352.0;-0.07217;-0.024632
1.07;8.0;6.25;6.0;4.0;1.25;1.0;0.25;0.25;2.25;1.0;1.0;0.5;0.0;1.5;0.25;0.25;-0.224609;0.023926;0.987305;-0.49;0.56;0.56;389.0;-0.198439;0.001234;4.25;4.5;3.0;3.25;1.25;1.25;0.5;0.75;3.25;2.0;1.75;1.0;0.5;1.5;1.0;0.75;-0.252441;0.029785;0.976562;-0.84;-1.05;0.7;355.0;-0.072453;-0.020814
1.08;8.0;6.25;6.0;4.0;1.25;1.0;0.25;0.25;2.25;1.0;1.25;0.5;0.0;0.75;0.25;0.25;-0.22168;0.019043;0.981445;-0.56;0.49;0.49;385.0;-0.206344;-0.002831;4.0;4.5;3.0;3.0;1.5;1.25;0.5;0.75;3.25;1.75;1.75;1.0;0.5;1.5;1.25;1.0;-0.254395;0.028809;0.973633;-0.91;-0.98;0.84;354.0;-0.065243;-0.021829
1.09;8.25;6.25;6.0;3.75;1.0;0.75;0.25;0.25;2.25;0.5;1.0;0.5;0.25;0.75;0.25;0.25;-0.221191;0.025391;0.992188;-0.35;0.42;0.63;372.0;-0.216035;-0.001606;4.0;4.25;3.25;3.0;1.5;1.25;0.5;1.0;3.25;2.0;1.75;1.0;0.5;1.5;1.25;1.0;-0.251953;0.02832;0.970215;-0.91;-0.98;0.77;361.0;-0.061466;-0.023474
1.1;7.75;6.25;5.75;4.0;1.0;0.75;0.25;0.25;2.75;0.75;1.0;0.75;0.25;1.0;0.25;0.5;-0.228027;0.021973;0.986328;-0.56;0.56;0.56;383.0;-0.192013;-0.002404;4.0;4.25;3.0;3.0;1.25;1.5;0.5;1.0;3.25;1.75;1.5;1.0;0.5;1.25;1.25;0.5;-0.257812;0.030762;0.974609;-0.77;-0.98;0.77;347.0;-0.071509;-0.026158
1.11;8.0;6.5;6.0;4.0;1.25;1.0;0.25;0.0;2.25;1.0;1.25;0.75;0.25;1.25;0.25;0.5;-0.225098;0.02832;0.983398;-0.49;0.56;0.56;394.0;-0.195047;-0.00369;4.25;4.5;3.0;3.0;1.25;1.75;0.5;1.0;3.25;1.75;1.75;1.0;0.75;1.25;1.25;0.5;-0.257324;0.035156;0.976074;-0.7;-0.84;0.7;361.0;-0.073256;-0.031667
1.12;7.75;6.25;5.75;4.0;1.0;0.5;0.25;0.0;2.25;1.0;1.25;1.0;0.25;1.25;0.25;0.5;-0.221191;0.024414;0.993164;-0.49;0.49;0.49;380.0;-0.18962;-0.002712;4.0;4.5;3.0;3.0;1.25;1.5;0.5;1.0;3.25;1.75;1.75;1.25;0.5;1.5;1.5;0.75;-0.253418;0.029785;0.972168;-0.7;-0.91;0.77;362.0;-0.06067;-0.0303
1.13;8.25;6.25;5.75;4.0;1.0;0.5;0.25;0.25;2.5;1.0;1.25;0.5;0.25;1.25;0.25;0.5;-0.218262;0.022461;0.993164;-0.35;0.42;0.63;388.0;-0.192644;0.001653;4.0;4.5;3.0;3.0;1.25;1.5;0.5;0.75;3.0;1.75;1.75;1.25;0.75;1.5;1.5;0.5;-0.254395;0.030273;0.972168;-0.7;-0.91;0.7;355.0;-0.064657;-0.030808
1.14;8.25;6.25;5.75;4.0;1.25;0.5;0.25;0.0;2.75;1.0;1.25;0.5;0.25;1.25;0.5;0.5;-0.217285;0.028809;0.987305;-0.42;0.56;0.63;393.0;-0.185574;0.008148;4.0;4.25;3.0;3.0;1.25;1.5;0.5;0.75;3.25;1.75;1.75;1.25;0.75;1.5;1.25;0.5;-0.257812;0.029785;0.966309;-0.77;-0.98;0.7;353.0;-0.06273;-0.026338
1.15;8.25;6.0;5.75;4.0;1.25;0.75;0.25;0.25;2.75;1.0;1.25;0.5;0.25;1.0;0.25;0.5;-0.218262;0.022949;0.984375;-0.49;0.49;0.63;392.0;-0.189872;0.00255;4.0;4.25;3.0;3.25;1.25;1.5;0.5;1.0;3.0;1.75;1.75;1.0;0.5;1.5;1.25;0.5;-0.26416;0.033203;0.974609;-0.77;-1.05;0.7;352.0;-0.07107;-0.030292
1.16;8.25;6.25;5.75;4.0;1.0;1.0;0.5;0.25;2.75;1.0;1.5;0.5;0.25;1.25;0.0;0.5;-0.220215;0.023438;0.996582;-0.49;0.63;0.56;401.0;-0.186546;0.002246;4.0;4.5;3.0;3.0;1.5;1.5;0.5;0.75;3.0;1.75;1.75;1.0;0.5;1.5;1.25;0.5;-0.253906;0.031738;0.973633;-0.77;-0.98;0.7;350.0;-0.072867;-0.024518
1.17;8.25;6.25;5.75;4.0;1.25;0.75;0.25;0.25;3.0;1.0;1.25;0.75;0.25;1.5;0.25;0.5;-0.228027;0.020996;0.986328;-0.7;0.63;0.49;406.0;-0.177629;0.003781;4.0;4.5;2.75;3.0;1.25;1.75;0.5;0.75;3.25;1.75;1.75;1.25;0.5;1.5;1.25;0.5;-0.258301;0.037109;0.974609;-0.77;-1.05;0.63;353.0;-0.065804;-0.027507
1.18;8.5;6.5;6.0;4.0;1.25;0.75;0.5;0.25;2.75;1.0;1.25;1.0;0.25;1.5;0.25;0.5;-0.21875;0.018555;0.990723;-0.49;0.56;0.56;418.0;-0.179747;0.002063;4.0;4.5;3.0;3.0;1.25;1.25;0.5;1.0;3.25;1.75;1.75;1.0;0.5;1.5;1.5;0.5;-0.254395;0.029297;0.972656;-0.7;-0.98;0.7;355.0;-0.063844;-0.024925
1.19;8.0;6.0;6.0;4.0;1.25;1.0;0.25;0.25;2.75;1.0;1.25;1.0;0.25;1.25;0.0;0.5;-0.222168;0.018066;0.985352;-0.49;0.7;0.56;401.0;-0.183712;-0.002257;4.0;4.25;3.0;3.0;1.25;1.25;0.5;0.75;3.0;1.75;1.75;1.0;0.5;1.25;1.5;0.5;-0.253418;0.029297;0.976562;-0.7;-1.05;0.7;342.0;-0.068453;-0.023924
1.2;8.0;6.0;6.0;3.75;1.25;1.0;0.25;0.25;2.75;1.25;1.5;0.75;0.25;1.25;0.25;0.25;-0.217773;0.024414;0.990723;-0.49;0.63;0.56;402.0;-0.177626;0.001745;4.0;4.0;3.0;3.0;1.5;1.5;0.5;0.75;3.0;1.5;1.75;1.25;0.75;1.5;1.0;0.5;-0.254883;0.039062;0.971191;-0.7;-1.05;0.7;345.0;-0.070413;-0.027952
1.21;8.25;6.25;6.0;4.0;1.0;1.0;0.25;0.25;2.75;1.0;1.25;0.75;0.25;1.25;0.5;0.25;-0.222656;0.027344;0.98584;-0.63;0.63;0.56;404.0;-0.18354;-0.000873;4.0;4.25;2.75;3.0;1.25;1.25;0.5;1.0;3.25;1.75;1.25;1.0;0.75;1.5;1.0;0.75;-0.256348;0.033203;0.96875;-0.7;-1.12;0.77;342.0;-0.068761;-0.026682
1.22;8.25;6.25;6.0;4.0;1.25;1.0;0.25;0.25;3.0;0.75;1.25;0.75;0.25;1.5;0.5;0.5;-0.223145;0.022949;0.986328;-0.7;0.77;0.56;412.0;-0.176908;0.001404;4.0;4.5;2.75;3.0;1.25;1.25;0.5;1.0;3.25;2.0;1.5;1.0;0.75;1.5;1.0;0.75;-0.250977;0.035645;0.977051;-0.7;-1.05;0.77;350.0;-0.066344;-0.02768
1.23;7.75;6.0;6.0;4.0;1.0;1.0;0.25;0.25;2.75;0.75;1.0;0.75;0.0;1.5;0.25;0.5;-0.223633;0.022461;0.992676;-0.63;0.84;0.49;389.0;-0.185805;0.002234;4.0;4.5;3.0;3.0;1.25;1.5;0.5;1.0;3.0;1.75;1.5;1.0;0.75;1.5;1.25;0.75;-0.255371;0.028809;0.969238;-0.63;-0.84;0.77;352.0;-0.07069;-0.032987
1.24;7.75;6.25;6.0;4.0;1.0;1.0;0.25;0.25;2.75;1.25;1.0;0.75;0.25;1.5;0.25;0.5;-0.222656;0.017578;0.987305;-0.56;0.77;0.7;400.0;-0.179107;-0.000682;4.0;4.25;3.0;3.0;1.5;1.5;0.5;0.75;3.0;1.75;1.75;1.0;0.75;1.5;1.25;0.75;-0.256836;0.029785;0.975098;-0.7;-0.91;0.77;351.0;-0.066951;-0.02765
1.25;8.25;6.25;6.0;4.0;1.25;1.0;0.25;0.25;2.75;1.25;1.25;0.75;0.25;1.75;0.25;0.5;-0.223633;0.020996;0.980469;-0.56;0.77;0.49;414.0;-0.175661;0.001472;4.0;4.25;3.0;3.0;1.5;1.25;0.5;1.0;3.25;1.75;2.0;1.5;0.75;1.5;1.25;0.75;-0.252441;0.033691;0.976074;-0.7;-0.98;0.7;365.0;-0.055818;-0.031774
1.26;8.0;6.25;6.0;4.0;1.0;1.0;0.5;0.25;2.75;1.25;1.25;0.75;0.25;1.5;0.25;0.5;-0.226562;0.026367;0.982422;-0.7;0.77;0.56;410.0;-0.175218;0.001717;4.25;4.25;3.0;3.0;1.5;1.5;0.5;1.0;3.25;1.75;1.75;1.25;0.75;1.75;1.25;0.75;-0.257324;0.033691;0.977051;-0.77;-0.98;0.7;367.0;-0.06058;-0.028592
1.27;8.0;6.0;6.0;4.0;1.25;1.0;0.5;0.0;2.75;1.0;1.25;0.75;0.25;1.5;0.5;0.5;-0.224121;0.018555;0.987793;-0.7;0.7;0.49;406.0;-0.173816;0.006208;4.25;4.25;2.75;3.0;1.25;1.5;0.5;0.75;3.0;2.0;1.75;1.25;0.5;1.5;1.25;0.75;-0.254883;0.033203;0.973145;-0.84;-0.98;0.7;352.0;-0.064279;-0.026877
1.28;7.75;6.25;6.0;4.0;1.25;0.75;0.25;0.25;2.75;1.0;1.25;1.0;0.25;1.25;0.25;0.25;-0.22168;0.024902;0.98584;-0.56;0.7;0.56;399.0;-0.181632;-0.001481;4.0;4.25;2.75;2.75;1.25;1.5;0.5;1.0;3.0;1.75;1.75;1.25;0.75;1.5;1.25;0.75;-0.254395;0.032227;0.972168;-0.77;-0.91;0.77;349.0;-0.059903;-0.034294
1.29;8.0;6.0;6.0;3.75;1.25;0.75;0.25;0.25;2.75;1.0;1.25;0.5;0.25;1.0;0.25;0.25;-0.220703;0.023438;0.991211;-0.7;0.7;0.49;388.0;-0.190256;0.005419;4.0;4.25;3.0;2.75;1.25;1.25;0.5;0.75;3.0;1.75;1.75;1.25;0.75;1.75;1.25;0.75;-0.257812;0.028809;0.969238;-0.7;-0.84;0.77;348.0;-0.058332;-0.02547
1.3;8.0;6.25;6.0;3.75;1.0;0.75;0.25;0.25;3.0;1.0;1.75;0.5;0.25;0.75;0.25;0.25;-0.226074;0.024414;0.986816;-0.7;0.7;0.49;395.0;-0.185662;0.003563;4.0;4.5;3.0;3.0;1.25;1.5;0.5;0.75;3.0;1.75;1.25;1.25;0.75;1.75;1.25;0.75;-0.25293;0.035156;0.969727;-0.77;-0.91;0.77;350.0;-0.068308;-0.028813
1.31;7.75;6.0;6.0;4.0;1.25;0.75;0.25;0.25;2.75;1.0;1.5;0.75;0.25;1.0;0.25;0.25;-0.220703;0.020996;0.987793;-0.7;0.77;0.49;394.0;-0.183527;-0.00016;4.0;4.25;3.0;3.0;1.25;1.5;0.5;0.75;3.0;1.75;1.75;1.25;0.75;1.5;1.25;0.75;-0.256348;0.030273;0.972656;-0.84;-0.84;0.7;351.0;-0.064196;-0.03061
1.32;7.75;6.0;6.0;4.0;1.25;1.0;0.5;0.25;2.75;1.0;1.25;1.0;0.25;0.75;0.25;0.25;-0.225586;0.020508;0.990723;-0.63;0.84;0.49;399.0;-0.184141;-0.00203;4.0;4.0;2.75;3.0;1.5;1.25;0.5;1.0;3.0;1.75;2.0;1.0;0.75;1.5;1.0;0.5;-0.260742;0.028809;0.969238;-0.84;-1.05;0.77;345.0;-0.064599;-0.029001
1.33;8.25;6.0;6.0;4.0;1.25;1.0;0.5;0.25;2.75;1.25;1.25;1.0;0.25;1.0;0.25;0.25;-0.217773;0.02002;0.982422;-0.63;0.77;0.56;410.0;-0.18084;0.000978;4.0;4.25;3.0;3.0;1.25;1.25;0.5;0.75;3.0;1.75;1.75;1.0;0.75;1.5;1.25;0.5;-0.257812;0.033691;0.977051;-0.84;-0.91;0.7;344.0;-0.067545;-0.025074
1.34;8.5;6.0;5.75;4.0;1.25;1.0;0.5;0.25;3.0;1.25;1.25;0.75;0.25;1.25;0.25;0.5;-0.225586;0.020996;0.988281;-0.7;0.91;0.56;414.0;-0.175406;0.005359;4.0;4.5;3.0;3.0;1.25;1.25;0.5;0.75;3.0;1.75;1.75;1.25;0.75;1.5;1.25;0.5;-0.257324;0.033691;0.976074;-0.77;-0.91;0.7;349.0;-0.067788;-0.028325
1.35;8.25;6.0;5.75;4.0;1.25;1.0;0.5;0.25;2.75;1.0;1.25;0.5;0.25;1.25;0.5;0.5;-0.224121;0.026367;0.980957;-0.77;0.91;0.56;405.0;-0.179156;0.003373;4.0;4.5;2.75;3.0;1.25;1.25;0.5;0.75;3.0;1.75;1.75;1.25;0.75;1.75;1.25;0.5;-0.255371;0.02832;0.979004;-0.84;-0.98;0.77;349.0;-0.062858;-0.027982
1.36;8.25;6.25;5.5;4.0;1.25;0.75;0.25;0.25;2.75;1.0;1.25;0.5;0.25;1.25;0.5;0.5;-0.225098;0.023438;0.987793;-0.77;0.84;0.56;397.0;-0.182894;0.001226;4.0;4.5;2.75;2.75;1.25;1.25;0.5;0.75;3.0;1.75;1.75;1.25;0.75;1.5;1.25;0.5;-0.256348;0.029297;0.975098;-0.84;-0.98;0.77;343.0;-0.064111;-0.027653
1.37;8.25;6.25;5.5;3.75;1.25;0.75;0.25;0.25;2.75;1.0;1.25;0.5;0.0;1.5;0.25;0.5;-0.22168;0.023438;0.980957;-0.7;0.84;0.56;391.0;-0.185006;0.007403;4.0;4.5;3.0;3.0;1.5;1.25;0.5;0.75;3.0;1.75;1.75;1.25;0.5;1.5;1.25;1.0;-0.257324;0.032227;0.967285;-0.77;-0.98;0.7;353.0;-0.066268;-0.027066
1.38;8.25;6.5;5.75;3.75;1.0;0.5;0.25;0.0;2.75;0.75;1.25;0.75;0.25;1.75;0.25;0.5;-0.228516;0.022949;0.985352;-0.7;0.77;0.63;391.0;-0.184182;0.008432;4.0;4.25;3.0;2.75;1.25;1.25;0.5;1.0;3.0;1.5;1.75;1.25;0.5;1.5;1.25;0.5;-0.254883;0.030762;0.974609;-0.84;-1.05;0.7;343.0;-0.066814;-0.027796
1.39;8.25;6.25;5.75;4.0;1.0;0.5;0.25;0.0;2.75;0.75;1.25;0.75;0.0;1.5;0.5;0.5;-0.224121;0.020508;0.98584;-0.77;0.77;0.63;390.0;-0.184812;0.008931;4.0;4.25;3.0;2.5;1.5;1.5;0.5;1.0;3.25;1.75;1.75;1.25;0.75;1.5;1.5;0.5;-0.259277;0.028809;0.973633;-0.77;-1.05;0.7;357.0;-0.055122;-0.026975
1.4;8.25;6.0;5.75;4.0;1.0;0.75;0.25;0.25;2.75;1.0;1.25;0.75;0.0;1.5;0.25;0.5;-0.222168;0.022949;0.984375;-0.7;0.77;0.56;395.0;-0.182506;0.004753;4.25;4.25;3.0;2.75;1.25;1.25;0.5;1.0;3.0;1.75;1.5;1.25;0.5;1.75;1.0;0.5;-0.257812;0.033203;0.971191;-0.77;-1.12;0.77;345.0;-0.070183;-0.023355
1.41;8.25;6.25;5.75;3.75;1.0;1.0;0.25;0.25;2.75;1.0;1.0;0.75;0.25;1.25;0.5;0.5;-0.225586;0.019531;0.991699;-0.77;0.84;0.49;397.0;-0.183046;-0.000212;4.25;4.25;3.0;2.75;1.25;1.25;0.5;0.5;3.0;1.75;1.75;0.75;0.5;1.75;1.0;0.5;-0.256836;0.02832;0.971191;-0.77;-1.12;0.7;334.0;-0.073898;-0.010253
1.42;8.25;6.25;5.75;3.75;1.0;0.5;0.25;0.25;2.75;1.0;1.25;0.75;0.25;1.25;0.25;0.5;-0.217285;0.024414;0.981934;-0.56;0.63;0.56;391.0;-0.184853;0.00369;4.0;4.5;3.0;3.0;1.25;1.5;0.5;1.0;3.0;1.75;1.75;0.75;0.75;1.5;1.25;0.5;-0.25293;0.030762;0.975586;-0.77;-1.05;0.7;351.0;-0.072382;-0.030319
1.43;8.25;6.25;5.75;4.0;1.0;0.5;0.25;0.25;2.75;1.0;1.25;0.75;0.25;1.5;0.25;0.5;-0.220215;0.022461;0.985352;-0.77;0.7;0.56;396.0;-0.182131;0.002981;4.0;4.5;3.0;3.0;1.25;1.5;0.5;1.0;3.0;1.75;2.0;1.0;0.75;1.5;1.0;0.25;-0.252441;0.032715;0.972168;-0.7;-1.12;0.7;352.0;-0.073389;-0.031573
1.44;8.25;6.25;5.75;4.0;1.0;0.5;0.5;0.25;2.75;1.0;1.25;0.75;0.25;1.5;0.25;0.25;-0.226562;0.026855;0.98584;-0.7;0.7;0.56;399.0;-0.181436;0.006629;4.0;4.25;3.0;3.0;1.25;1.5;0.5;0.75;3.0;1.75;1.75;1.0;0.75;1.75;1.0;0.25;-0.253418;0.028809;0.977539;-0.84;-1.12;0.7;345.0;-0.070829;-0.024133
1.45;8.25;6.25;6.0;3.5;1.0;0.5;0.25;0.25;2.75;1.0;1.25;0.75;0.25;1.25;0.25;0.5;-0.223145;0.019531;0.984863;-0.7;0.77;0.49;391.0;-0.184694;0.006109;4.25;4.25;3.25;3.0;1.0;1.5;0.5;0.75;3.0;2.0;1.75;1.25;0.75;1.75;1.25;0.5;-0.254883;0.034668;0.976562;-0.77;-1.19;0.7;358.0;-0.064323;-0.025983
1.46;8.25;6.5;6.0;3.75;1.0;0.75;0.25;0.25;2.75;1.0;1.25;0.5;0.25;1.25;0.25;0.5;-0.225098;0.021973;0.989258;-0.63;0.56;0.56;397.0;-0.18956;0.003372;4.25;4.25;3.0;3.0;1.5;1.5;0.5;0.75;3.0;1.75;1.5;1.0;0.75;1.5;1.25;1.0;-0.255371;0.030273;0.976562;-0.77;-1.05;0.7;353.0;-0.070229;-0.027041
1.47;8.25;6.25;5.75;4.0;1.0;0.5;0.25;0.25;2.75;1.0;1.0;0.5;0.25;1.25;0.25;0.5;-0.216309;0.021973;0.982422;-0.63;0.77;0.56;388.0;-0.191592;0.005029;4.25;4.5;3.0;3.0;1.5;1.5;0.5;0.75;3.0;2.0;1.75;1.0;0.75;1.5;1.25;0.25;-0.256348;0.033691;0.971191;-0.7;-1.05;0.84;357.0;-0.073187;-0.024441
1.48;8.25;6.25;5.75;4.0;1.0;0.5;0.25;0.25;2.5;1.0;1.25;0.75;0.25;1.5;0.25;0.5;-0.225098;0.018066;0.989258;-0.7;0.63;0.63;393.0;-0.186123;0.000511;4.5;4.5;3.25;3.25;1.5;1.5;0.5;0.75;3.0;1.75;1.5;1.0;0.5;1.5;1.25;0.25;-0.256348;0.026855;0.972168;-0.7;-1.12;0.7;357.0;-0.085726;-0.021187
1.49;8.25;6.25;5.75;4.0;1.0;0.5;0.25;0.25;2.5;1.0;1.25;0.75;0.25;1.25;0.25;0.25;-0.221191;0.022949;0.984375;-0.63;0.77;0.49;389.0;-0.191776;0.000649;4.5;4.5;3.25;3.5;1.5;1.5;0.5;1.0;3.0;1.75;1.25;0.75;0.75;1.25;1.25;0.75;-0.258301;0.032227;0.975098;-0.7;-1.05;0.7;362.0;-0.089246;-0.03074
1.5;7.75;7.25;6.0;4.0;1.0;1.0;0.25;0.25;2.5;1.0;1.25;0.75;0.25;1.25;0.25;0.25;-0.226074;0.019043;0.986816;-0.63;0.7;0.56;402.0;-0.194409;-0.008422;4.0;4.5;3.25;3.0;1.5;1.5;0.5;0.75;3.0;1.75;1.75;0.75;0.75;1.5;1.25;0.5;-0.257324;0.027832;0.973145;-0.7;-1.19;0.77;353.0;-0.075213;-0.024236
1.51;7.75;6.25;6.0;4.0;1.0;0.75;0.25;0.25;2.75;0.75;1.0;0.75;0.25;1.25;0.25;0.25;-0.228027;0.016113;0.978027;-0.7;0.77;0.56;387.0;-0.191081;0.000588;4.0;4.5;3.25;2.75;1.5;1.25;0.5;0.75;3.0;2.0;2.0;0.75;0.75;1.5;1.25;0.5;-0.256836;0.028809;0.978516;-0.77;-1.12;0.7;352.0;-0.067763;-0.020462
1.52;8.0;6.25;5.75;4.0;1.25;0.5;0.25;0.25;2.5;1.0;1.0;1.0;0.25;1.5;0.5;0.5;-0.220703;0.01709;0.986328;-0.7;0.63;0.56;396.0;-0.179913;-0.001718;4.25;4.5;3.25;3.0;1.5;1.25;0.5;0.75;3.0;1.75;1.75;1.0;0.75;1.5;1.25;0.25;-0.251465;0.030762;0.968262;-0.77;-0.98;0.7;354.0;-0.076701;-0.022081
1.53;8.0;6.0;6.0;4.0;1.25;0.5;0.5;0.0;2.5;1.0;1.0;1.0;0.0;1.25;0.5;0.5;-0.223633;0.026855;0.989746;-0.63;0.7;0.56;392.0;-0.183713;0.008463;4.25;4.75;3.0;3.0;1.25;1.25;0.5;0.75;3.0;1.75;1.5;1.25;0.75;1.5;1.0;0.25;-0.255371;0.03125;0.970703;-0.77;-0.98;0.7;347.0;-0.081213;-0.025827
1.54;8.25;6.0;6.0;4.0;1.25;0.5;0.25;0.0;2.75;1.0;1.0;1.0;0.0;1.25;0.5;0.25;-0.222168;0.024414;0.987793;-0.56;0.56;0.56;393.0;-0.186109;0.010368;4.0;4.5;3.25;3.0;1.25;1.25;0.5;1.0;3.0;1.75;1.5;1.0;0.75;1.5;1.25;0.5;-0.257324;0.029785;0.973633;-0.84;-1.12;0.77;351.0;-0.073511;-0.028705
1.55;8.25;6.0;5.75;3.75;1.25;0.5;0.25;0.25;2.5;1.0;0.75;0.75;0.0;1.25;0.5;0.25;-0.225098;0.022949;0.98584;-0.63;0.56;0.56;381.0;-0.193004;0.007982;4.0;4.5;3.25;3.5;1.25;1.5;0.5;1.0;3.25;1.75;1.75;1.0;0.75;1.5;1.25;0.75;-0.253418;0.032227;0.975098;-0.7;-0.98;0.7;368.0;-0.070354;-0.032759
1.56;8.5;6.0;6.0;3.75;1.25;0.5;0.25;0.25;2.75;1.25;1.0;0.5;0.0;1.0;0.5;0.25;-0.224121;0.025391;0.98877;-0.63;0.63;0.63;391.0;-0.191324;0.012512;4.25;4.5;3.25;3.25;1.25;1.5;0.5;1.0;3.25;1.75;1.5;1.25;0.75;1.5;1.25;0.75;-0.259277;0.030762;0.977051;-0.84;-0.98;0.7;368.0;-0.071265;-0.031516
1.57;8.25;6.25;6.0;3.75;1.0;0.5;0.25;0.25;2.75;1.0;1.0;0.5;0.0;1.0;0.25;0.25;-0.223633;0.024414;0.98584;-0.63;0.63;0.56;382.0;-0.199461;0.010565;4.25;4.5;3.25;3.0;1.5;1.5;0.5;1.0;3.0;1.75;1.75;1.0;0.75;1.25;1.0;0.75;-0.250488;0.029785;0.97168;-0.77;-0.98;0.77;359.0;-0.08001;-0.031672
1.58;8.25;6.0;6.0;3.75;1.0;0.5;0.25;0.25;2.5;1.0;1.25;0.5;0.0;1.25;0.25;0.5;-0.21875;0.020996;0.986816;-0.7;0.7;0.56;383.0;-0.193234;0.008079;4.25;4.5;3.25;3.0;1.5;1.25;0.5;0.75;3.25;1.75;1.75;1.25;0.75;1.5;1.0;0.75;-0.256836;0.03125;0.980469;-0.91;-1.05;0.77;360.0;-0.071379;-0.023247
1.59;8.25;6.5;6.0;4.0;1.0;0.75;0.25;0.25;2.25;1.0;1.25;0.75;0.0;1.25;0.25;0.25;-0.223145;0.022461;0.981445;-0.63;0.56;0.56;392.0;-0.19976;-0.001531;4.25;4.5;3.0;3.0;1.25;1.5;0.5;0.75;3.0;1.75;1.75;1.25;0.75;1.5;1.0;0.5;-0.25293;0.029785;0.975586;-0.7;-0.98;0.77;352.0;-0.075064;-0.02885
1.6;8.5;6.5;5.75;4.0;1.25;0.75;0.25;0.25;2.25;1.0;1.25;0.5;0.25;1.25;0.25;0.5;-0.222168;0.023438;0.980957;-0.56;0.56;0.56;395.0;-0.198825;-0.002728;4.25;4.5;3.0;3.0;1.25;1.25;0.5;0.75;3.0;1.5;1.75;1.0;0.75;1.5;1.0;0.5;-0.258301;0.030273;0.976074;-0.7;-0.98;0.77;344.0;-0.079383;-0.025266
1.61;8.5;6.25;6.0;4.0;1.25;0.75;0.25;0.25;2.25;0.75;1.25;0.5;0.0;1.25;0.25;0.25;-0.223633;0.02002;0.987305;-0.56;0.63;0.56;389.0;-0.205501;0.002523;4.25;4.5;3.0;3.0;1.25;1.25;0.5;0.75;3.0;1.5;1.75;0.75;0.75;1.5;1.0;0.75;-0.254883;0.033691;0.973145;-0.77;-0.91;0.7;342.0;-0.079904;-0.024235
1.62;8.25;6.25;6.0;4.0;1.25;1.0;0.25;0.25;2.25;0.75;1.25;0.25;0.0;1.25;0.25;0.25;-0.228027;0.020996;0.990723;-0.63;0.63;0.56;386.0;-0.206732;0.00185;4.25;4.5;3.0;3.25;1.25;1.25;0.5;0.75;3.0;1.75;1.75;1.0;0.5;1.5;1.0;0.75;-0.258789;0.033691;0.975098;-0.77;-1.05;0.91;349.0;-0.078379;-0.024533
1.63;8.0;6.0;6.0;4.0;1.0;1.0;0.25;0.25;2.5;0.75;1.0;1.0;0.25;1.0;0.25;0.5;-0.224609;0.021973;0.985352;-0.63;0.84;0.56;389.0;-0.193519;-0.006601;4.25;4.5;3.5;3.25;1.5;1.25;0.5;0.75;3.0;1.75;1.75;1.25;0.75;1.5;1.0;0.5;-0.257812;0.03125;0.97998;-0.63;-1.05;0.77;361.0;-0.079823;-0.025725
1.64;8.5;6.25;6.0;3.75;1.0;0.5;0.5;0.25;2.5;0.75;1.25;0.75;0.0;0.75;0.25;0.25;-0.219238;0.021484;0.984863;-0.7;0.7;0.56;386.0;-0.202911;0.006696;4.25;4.25;3.0;3.0;1.25;1.5;0.5;0.75;2.75;1.75;1.75;1.0;0.75;1.25;1.25;0.5;-0.258789;0.033691;0.973633;-0.7;-0.91;0.7;344.0;-0.077651;-0.030599
1.65;8.5;6.25;6.25;4.0;1.0;0.5;0.25;0.25;2.75;1.0;1.25;0.5;0.0;0.75;0.25;0.25;-0.222656;0.023926;0.987305;-0.7;0.63;0.56;392.0;-0.202643;0.008172;4.0;4.5;3.0;3.0;1.25;1.75;0.5;1.0;3.0;1.75;1.75;1.0;0.75;1.25;1.0;0.75;-0.258301;0.032715;0.974609;-0.7;-1.05;0.84;353.0;-0.076039;-0.036669
1.66;8.25;6.25;6.0;4.0;1.0;0.5;0.25;0.25;2.25;0.75;1.0;0.75;0.0;1.0;0.25;0.5;-0.22168;0.022949;0.991211;-0.56;0.56;0.63;380.0;-0.206754;-0.000255;4.25;4.5;3.0;3.0;1.25;1.5;0.5;0.75;3.25;1.75;1.75;1.0;0.75;1.25;1.0;0.5;-0.257812;0.029297;0.970703;-0.77;-0.98;0.7;351.0;-0.077242;-0.024932
1.67;7.75;6.0;5.75;3.75;1.25;0.5;0.25;0.25;2.25;0.75;1.0;0.5;0.25;1.25;0.25;0.25;-0.219727;0.025879;0.986328;-0.56;0.49;0.63;369.0;-0.199723;0.002536;4.0;4.5;3.0;3.0;1.5;1.5;0.5;0.75;3.25;1.75;1.75;1.25;0.75;1.5;1.25;0.5;-0.256836;0.027832;0.97168;-0.84;-1.12;0.77;359.0;-0.065738;-0.026586
1.68;8.25;6.0;5.75;4.0;1.25;0.25;0.25;0.25;2.5;1.0;1.0;0.5;0.0;1.25;0.25;0.25;-0.222656;0.022461;0.985352;-0.7;0.7;0.56;378.0;-0.198516;0.010406;4.25;4.5;3.0;3.0;1.5;1.5;0.5;1.0;3.25;1.75;1.5;1.25;0.5;1.5;1.0;0.75;-0.255371;0.02832;0.972656;-0.77;-1.05;0.77;359.0;-0.073662;-0.02693
1.69;8.5;6.75;6.0;4.25;1.25;0.75;0.25;0.25;2.75;1.0;1.0;0.5;0.0;1.25;0.25;0.5;-0.226074;0.022949;0.984863;-0.63;0.7;0.56;406.0;-0.198442;0.003649;4.25;4.5;3.0;2.5;1.25;1.75;0.5;0.75;3.0;1.75;1.75;1.25;0.75;1.5;0.75;0.5;-0.259277;0.033203;0.973145;-0.77;-1.05;0.77;346.0;-0.076043;-0.027111
1.7;8.5;6.5;6.0;4.0;1.25;1.0;0.25;0.25;2.5;1.0;1.0;0.5;0.0;1.25;0.25;0.5;-0.225586;0.019043;0.989746;-0.7;0.63;0.56;400.0;-0.200123;0.001954;4.25;4.75;3.0;3.0;1.25;1.25;0.5;0.75;3.0;1.75;1.75;1.0;0.5;1.75;1.25;0.75;-0.257324;0.027832;0.972656;-0.7;-0.91;0.84;353.0;-0.071845;-0.022982
1.71;8.5;6.25;6.0;4.0;1.0;1.0;0.25;0.25;2.5;1.0;1.0;0.75;0.0;1.25;0.25;0.5;-0.225098;0.027832;0.989746;-0.63;0.7;0.63;397.0;-0.196346;0.000411;4.25;4.75;3.0;3.0;1.25;1.25;0.5;0.75;3.0;1.75;1.75;1.25;0.5;1.75;1.25;0.75;-0.261719;0.032227;0.976074;-0.7;-0.91;0.7;356.0;-0.069578;-0.025189
1.72;8.5;6.25;5.75;4.0;1.25;0.75;0.25;0.25;2.25;1.0;1.0;0.5;0.0;1.25;0.25;0.25;-0.219727;0.026855;0.984375;-0.7;0.63;0.56;386.0;-0.20494;0.003167;4.25;4.5;3.0;3.0;1.25;1.25;0.5;0.75;3.0;2.0;1.75;1.25;0.5;1.5;1.25;1.0;-0.254883;0.033203;0.975586;-0.7;-0.91;0.77;356.0;-0.065999;-0.026004
1.73;8.5;7.25;5.75;4.0;1.25;0.5;0.25;0.25;2.5;1.0;1.0;0.75;0.0;1.75;0.25;0.25;-0.225098;0.021484;0.991211;-0.63;0.63;0.49;404.0;-0.196487;0.003248;4.0;4.5;3.25;3.25;1.25;1.5;0.5;1.0;3.0;1.75;2.0;1.25;0.5;1.5;1.0;1.0;-0.256836;0.032227;0.974609;-0.7;-0.91;0.77;363.0;-0.070807;-0.034913
1.74;8.5;6.75;5.75;4.0;1.0;0.5;0.25;0.25;2.5;0.75;1.0;0.75;0.0;1.5;0.25;0.25;-0.219727;0.023926;0.98584;-0.7;0.77;0.49;391.0;-0.200985;0.003509;4.25;4.5;3.25;3.5;1.25;1.75;0.5;0.75;3.0;1.75;1.75;1.0;0.5;1.5;1.0;1.0;-0.259277;0.034668;0.973633;-0.84;-0.91;0.7;362.0;-0.081108;-0.030498
1.75;8.5;6.5;5.75;4.0;1.0;0.5;0.25;0.25;2.5;0.75;1.0;0.5;0.0;1.25;0.25;0.25;-0.225586;0.023926;0.987793;-0.56;0.77;0.56;383.0;-0.206362;0.005819;4.25;4.25;3.25;3.25;1.25;1.5;0.5;0.75;3.0;1.75;1.75;1.0;0.5;1.5;1.0;1.0;-0.255859;0.030273;0.976562;-0.77;-0.91;0.7;354.0;-0.076367;-0.025843
1.76;8.25;6.5;5.75;4.0;1.0;0.75;0.25;0.25;2.25;1.0;0.75;0.75;0.25;1.25;0.25;0.25;-0.22168;0.018066;0.983887;-0.56;0.63;0.63;385.0;-0.203304;-0.003364;4.25;4.25;3.0;3.0;1.5;1.5;0.5;0.75;3.0;2.0;1.25;1.0;0.75;1.5;1.25;0.75;-0.253906;0.033691;0.969727;-0.7;-0.84;0.77;351.0;-0.071941;-0.024373
1.77;8.5;6.25;5.75;4.0;1.25;1.0;0.25;0.0;2.25;1.0;1.0;0.75;0.25;1.25;0.25;0.25;-0.219238;0.020996;0.991211;-0.63;0.56;0.56;390.0;-0.201278;0.000264;4.25;4.5;3.25;3.0;1.25;1.5;0.5;0.75;3.25;1.75;1.25;1.0;0.75;1.5;1.25;0.75;-0.252441;0.029297;0.977051;-0.77;-1.05;0.7;355.0;-0.074798;-0.022824
1.78;8.5;6.25;5.75;4.0;1.25;1.0;0.25;0.0;2.75;1.0;1.0;0.5;0.0;1.25;0.25;0.25;-0.225098;0.020508;0.986328;-0.63;0.7;0.56;392.0;-0.19817;0.010212;4.0;4.5;2.75;3.0;1.25;1.5;0.5;0.75;3.0;1.75;1.5;1.0;0.75;1.5;1.25;0.5;-0.256836;0.030273;0.975098;-0.7;-0.91;0.7;343.0;-0.071525;-0.028514
1.79;8.25;6.25;6.0;4.0;1.0;0.75;0.25;0.0;2.75;1.0;1.25;0.5;0.0;1.25;0.25;0.0;-0.228516;0.023438;0.987793;-0.63;0.56;0.49;388.0;-0.197126;0.012197;4.0;4.25;2.75;3.0;1.25;1.5;0.5;1.0;3.0;1.75;1.5;1.25;0.75;1.5;1.5;0.5;-0.252441;0.028809;0.973633;-0.77;-0.98;0.7;351.0;-0.062131;-0.034469
1.8;8.25;6.25;6.0;3.75;1.25;0.5;0.25;0.25;2.25;1.0;1.25;0.5;0.25;1.25;0.25;0.25;-0.222168;0.027832;0.991211;-0.63;0.77;0.56;386.0;-0.198247;0.003254;4.25;4.25;3.25;3.25;1.5;1.5;0.5;1.0;3.0;1.75;1.75;1.25;0.5;1.5;1.25;0.75;-0.252441;0.027832;0.974121;-0.7;-1.05;0.77;365.0;-0.071759;-0.030707
1.81;8.5;6.5;6.0;4.0;1.0;0.5;0.25;0.25;2.25;1.0;1.25;0.75;0.25;1.5;0.25;0.25;-0.217285;0.017578;0.98877;-0.63;0.84;0.49;396.0;-0.195788;-0.000389;4.25;4.75;3.25;3.0;1.5;1.25;0.5;1.0;3.0;1.75;1.75;1.0;0.5;1.25;1.0;0.5;-0.255371;0.033203;0.970215;-0.77;-1.05;0.7;354.0;-0.085294;-0.026569
1.82;8.75;6.25;6.0;4.0;1.0;0.5;0.25;0.25;2.5;1.0;1.25;0.75;0.0;1.5;0.25;0.25;-0.223633;0.019531;0.987793;-0.56;0.63;0.56;398.0;-0.193961;0.006639;4.0;4.75;3.0;3.0;1.25;1.5;0.5;0.75;2.75;1.5;1.75;0.75;0.75;1.25;1.0;0.5;-0.258789;0.024902;0.977051;-0.7;-0.98;0.77;337.0;-0.08923;-0.031887
1.83;8.5;6.0;6.0;4.0;1.0;0.5;0.25;0.25;2.75;0.75;1.25;0.5;0.0;1.5;0.5;0.25;-0.223145;0.018066;0.986816;-0.63;0.77;0.49;393.0;-0.188637;0.010603;4.25;4.75;3.0;3.0;1.25;1.75;0.5;0.75;3.0;1.75;1.75;0.75;0.75;1.5;1.0;0.5;-0.25293;0.029297;0.97168;-0.7;-1.19;0.77;352.0;-0.082802;-0.027525
1.84;8.25;6.25;5.75;4.0;1.0;0.5;0.25;0.25;2.5;1.0;1.0;0.5;0.25;1.0;0.25;0.25;-0.223633;0.025391;0.976562;-0.63;0.84;0.56;381.0;-0.201624;0.002688;4.25;4.75;3.25;3.0;1.25;1.75;0.5;1.0;3.25;1.75;1.75;1.0;0.75;1.5;1.25;0.5;-0.257324;0.03125;0.974609;-0.77;-1.05;0.7;369.0;-0.074134;-0.030267
1.85;8.25;6.25;5.75;4.0;1.0;0.5;0.25;0.25;2.25;0.75;1.0;0.5;0.0;1.0;0.25;0.25;-0.220703;0.024414;0.982422;-0.56;0.84;0.63;372.0;-0.211748;0.002548;4.25;4.5;3.25;3.0;1.5;1.25;0.5;1.0;3.25;1.75;1.75;1.25;0.75;1.75;1.0;0.75;-0.256836;0.033203;0.971191;-0.77;-1.12;0.77;367.0;-0.067646;-0.026158
1.86;8.0;6.25;5.75;4.0;1.0;0.5;0.25;0.25;2.25;1.0;1.0;0.75;0.0;1.0;0.25;0.5;-0.225586;0.024414;0.987305;-0.49;0.77;0.56;377.0;-0.201427;-0.001316;4.25;4.75;3.25;3.0;1.5;1.5;0.5;1.0;3.0;1.75;1.75;1.25;0.75;1.5;1.0;0.75;-0.253906;0.029785;0.968262;-0.77;-1.12;0.77;366.0;-0.076936;-0.033347
1.87;8.25;6.5;6.0;3.75;1.0;0.5;0.25;0.0;2.5;0.75;0.75;0.75;0.0;1.25;0.25;0.25;-0.227539;0.019531;0.98584;-0.63;0.84;0.63;377.0;-0.206966;0.010568;4.25;4.5;3.0;3.25;1.5;1.5;0.5;1.0;3.0;2.0;1.5;0.75;0.75;1.5;1.0;0.5;-0.252441;0.038086;0.972168;-0.98;-1.26;0.84;357.0;-0.081018;-0.028225
1.88;8.5;6.25;6.0;4.0;1.0;0.75;0.25;0.0;2.5;0.75;1.0;0.75;0.0;1.25;0.25;0.5;-0.21875;0.02002;0.986816;-0.56;0.84;0.49;387.0;-0.201871;0.006262;4.5;4.5;3.0;3.25;1.5;1.5;0.5;1.0;3.0;1.75;1.25;0.75;0.75;1.25;1.0;0.5;-0.255859;0.029785;0.973633;-0.84;-1.19;0.7;351.0;-0.091971;-0.028513
1.89;8.5;6.75;6.0;4.0;1.0;0.75;0.25;0.25;2.5;0.5;1.0;0.75;0.0;1.0;0.25;0.5;-0.226562;0.022461;0.987305;-0.49;0.77;0.49;391.0;-0.20948;-0.001632;4.5;4.75;3.25;3.0;1.25;1.25;0.5;1.0;3.0;1.75;1.25;0.75;0.75;1.5;1.0;0.5;-0.256348;0.034668;0.975586;-0.7;-1.12;0.77;350.0;-0.090004;-0.024126
1.9;8.25;6.0;6.0;4.0;1.0;0.75;0.25;0.25;2.25;0.5;1.0;0.5;0.25;1.25;0.25;0.5;-0.224609;0.020508;0.981934;-0.56;0.77;0.63;379.0;-0.205314;-0.001301;4.5;5.0;3.25;3.0;1.5;1.25;0.5;0.75;3.0;1.75;1.75;1.0;0.75;1.75;1.25;0.75;-0.253906;0.028809;0.97998;-0.7;-1.19;0.7;367.0;-0.077265;-0.02414
1.91;8.5;6.5;6.0;4.0;1.0;0.75;0.25;0.25;2.25;1.0;1.0;0.5;0.25;1.25;0.25;0.5;-0.218262;0.022949;0.989258;-0.56;0.77;0.49;393.0;-0.203;-0.001679;4.5;5.0;3.0;3.25;1.5;1.75;0.5;0.75;3.0;1.75;1.75;1.25;0.5;1.25;1.0;0.5;-0.254883;0.029297;0.971191;-0.77;-1.12;0.63;364.0;-0.089813;-0.031062
1.92;8.25;6.25;5.75;4.0;1.0;0.25;0.25;0.25;2.25;0.5;1.0;0.5;0.0;1.25;0.25;0.5;-0.225586;0.019043;0.983887;-0.49;0.77;0.56;370.0;-0.209493;0.004123;4.25;4.5;3.5;3.5;1.5;1.75;0.5;0.75;3.0;1.75;1.75;1.25;0.5;1.5;1.25;0.5;-0.253906;0.036133;0.974121;-0.84;-0.98;0.63;371.0;-0.080479;-0.028969
1.93;8.25;6.25;5.75;3.5;1.0;0.25;0.25;0.0;2.25;0.5;1.0;0.5;0.0;1.0;0.25;0.5;-0.220215;0.023438;0.990234;-0.56;0.7;0.56;358.0;-0.214517;0.011443;4.25;4.5;3.5;3.25;1.25;1.75;0.5;0.75;2.75;1.5;1.75;1.0;0.75;1.5;1.0;0.75;-0.256836;0.028809;0.973633;-0.91;-0.98;0.7;357.0;-0.087076;-0.03332
1.94;8.25;6.0;5.75;3.75;1.0;0.5;0.25;0.25;2.5;0.75;1.25;0.5;0.25;1.0;0.0;0.5;-0.218262;0.024414;0.986816;-0.56;0.77;0.49;374.0;-0.20202;0.003675;4.25;5.0;3.5;3.0;1.5;1.75;0.5;1.0;3.0;1.5;1.5;1.0;0.75;1.5;1.0;0.5;-0.254883;0.024902;0.967773;-0.91;-0.98;0.7;365.0;-0.090344;-0.032093
1.95;8.5;6.25;5.75;4.0;1.0;0.75;0.25;0.25;2.5;0.75;1.25;0.75;0.0;1.25;0.25;0.25;-0.224609;0.018555;0.990234;-0.49;0.84;0.56;390.0;-0.198345;0.001679;4.5;5.25;3.5;3.5;1.5;1.75;0.5;1.0;3.0;1.5;1.5;1.0;0.75;1.5;1.0;0.5;-0.25293;0.028809;0.971191;-0.77;-0.98;0.84;376.0;-0.098024;-0.035003
1.96;8.5;6.25;5.75;4.0;1.0;0.25;0.25;0.0;2.5;0.75;1.0;0.75;0.0;1.0;0.25;0.25;-0.225098;0.024414;0.985352;-0.63;0.63;0.49;374.0;-0.208176;0.010224;4.5;5.0;3.25;3.5;1.5;1.75;0.5;0.75;3.0;1.5;1.5;1.0;0.5;1.5;1.0;0.75;-0.258789;0.034668;0.973145;-0.84;-0.98;0.7;366.0;-0.095274;-0.029455
1.97;8.5;6.5;5.75;4.0;1.0;0.25;0.25;0.0;2.25;0.75;1.0;0.75;0.25;1.25;0.25;0.25;-0.225586;0.020508;0.985352;-0.49;0.63;0.63;378.0;-0.207797;0.004639;4.5;4.75;3.0;3.5;1.5;1.25;0.5;0.75;3.0;1.75;1.75;1.25;0.75;1.25;1.25;0.5;-0.252441;0.03418;0.977051;-0.84;-0.91;0.7;364.0;-0.082567;-0.030958
1.98;8.5;6.25;5.75;4.0;1.0;0.5;0.25;0.25;2.25;0.5;1.0;1.0;0.25;1.0;0.25;0.5;-0.227051;0.018066;0.97998;-0.56;0.56;0.49;382.0;-0.205613;-0.005715;4.25;4.75;3.25;3.5;1.5;1.5;0.5;0.75;3.0;1.75;1.75;1.0;0.75;1.5;1.25;0.25;-0.252441;0.029297;0.972656;-0.98;-1.05;0.7;365.0;-0.083121;-0.028446
1.99;8.25;6.5;5.75;3.75;1.0;0.5;0.25;0.25;2.25;0.5;1.0;1.0;0.0;1.0;0.25;0.5;-0.219727;0.026855;0.98877;-0.63;0.77;0.49;376.0;-0.207235;-0.003051;4.5;4.75;3.25;3.25;1.25;1.5;0.5;0.75;3.0;1.75;1.75;0.75;0.5;1.5;1.0;0.5;-0.259766;0.031738;0.974609;-0.98;-0.98;0.7;356.0;-0.089736;-0.022174
2.0;8.5;6.25;5.75;4.0;1.0;0.5;0.25;0.0;2.25;0.75;1.0;0.75;0.25;1.25;0.25;0.25;-0.222168;0.027344;0.984375;-0.56;0.63;0.56;378.0;-0.205969;0.003595;4.25;4.75;3.0;3.25;1.25;1.5;0.5;1.0;3.0;1.75;1.75;0.75;0.5;1.5;0.5;0.5;-0.254395;0.025391;0.973145;-0.91;-1.12;0.7;348.0;-0.092914;-0.027649
2.01;8.5;6.75;6.0;3.5;1.25;0.25;0.25;0.25;2.75;0.75;0.75;0.5;0.0;1.25;0.5;0.25;-0.226562;0.018066;0.981934;-0.63;0.7;0.56;387.0;-0.201093;0.014241;4.5;4.75;3.0;3.25;1.25;1.75;0.5;0.75;3.0;1.75;1.75;0.75;0.5;1.25;0.5;0.5;-0.258301;0.025879;0.961914;-0.91;-0.91;0.7;347.0;-0.100294;-0.025645
2.02;8.25;6.25;5.75;3.75;1.0;0.25;0.25;0.0;2.25;1.0;1.0;0.5;0.25;0.75;0.25;0.5;-0.218262;0.026367;0.994629;-0.56;0.77;0.49;366.0;-0.209562;0.00623;4.25;4.75;3.25;3.75;1.25;1.5;0.5;0.75;3.0;1.75;1.75;1.0;0.75;1.25;1.0;0.5;-0.256836;0.030762;0.973633;-0.91;-0.91;0.63;362.0;-0.089725;-0.032886
2.03;8.5;6.0;5.75;4.0;1.0;0.5;0.25;0.25;2.25;0.25;1.0;0.5;0.25;0.75;0.25;0.5;-0.224121;0.016602;0.98584;-0.63;0.63;0.63;368.0;-0.217992;-0.001771;4.5;5.0;3.25;3.5;1.25;1.5;0.5;0.75;3.0;1.75;1.5;1.25;0.75;1.5;0.5;0.5;-0.258301;0.027344;0.970215;-0.84;-1.05;0.7;361.0;-0.09762;-0.030412
2.04;8.5;6.5;5.75;4.0;1.0;0.25;0.25;0.25;2.0;0.25;1.0;0.5;0.25;0.75;0.25;0.5;-0.221191;0.022461;0.983398;-0.63;0.63;0.63;367.0;-0.22588;-0.004522;4.75;4.75;3.25;3.25;1.25;1.5;0.5;0.75;3.0;1.75;1.5;1.0;0.75;1.5;0.5;0.75;-0.253906;0.030762;0.975586;-0.98;-1.05;0.77;356.0;-0.096764;-0.025743
2.05;8.5;6.75;5.75;4.0;1.0;0.25;0.25;0.25;2.25;0.5;1.0;0.25;0.0;1.0;0.5;0.5;-0.217285;0.020996;0.983398;-0.63;0.56;0.63;376.0;-0.216077;0.003199;4.25;4.75;3.0;3.25;1.5;1.75;0.5;0.75;3.25;1.75;1.75;1.0;0.75;1.25;0.75;0.75;-0.258301;0.031738;0.974121;-0.98;-1.05;0.77;361.0;-0.084435;-0.029637
2.06;8.25;6.75;5.75;4.0;1.0;0.5;0.25;0.25;2.25;0.5;1.0;0.25;0.0;1.25;0.25;0.5;-0.22168;0.016113;0.98877;-0.7;0.56;0.63;375.0;-0.215034;0.001945;4.25;4.75;3.25;3.25;1.25;1.75;0.5;0.75;3.0;1.5;1.75;0.75;0.75;1.5;1.0;0.5;-0.257324;0.032227;0.976074;-0.77;-1.05;0.77;355.0;-0.088686;-0.02892
2.07;8.5;6.5;6.0;4.0;1.0;0.5;0.25;0.25;2.25;0.5;1.0;0.25;0.0;1.25;0.25;0.5;-0.227051;0.026855;0.992188;-0.77;0.7;0.42;379.0;-0.215505;0.004566;4.5;4.75;3.5;3.25;1.5;1.75;0.5;0.75;3.25;1.75;1.75;1.0;0.75;1.75;1.0;0.5;-0.25293;0.030762;0.970215;-0.91;-0.91;0.7;376.0;-0.081631;-0.023383
2.08;8.5;6.75;6.0;4.0;1.0;0.5;0.25;0.25;2.25;0.5;1.25;0.5;0.0;1.25;0.25;0.5;-0.221191;0.023926;0.97998;-0.77;0.7;0.49;387.0;-0.210392;0.000326;4.75;5.25;3.5;3.25;1.5;1.5;0.5;0.75;3.0;1.5;1.75;1.0;0.75;1.75;1.25;0.75;-0.255859;0.024902;0.976074;-0.84;-1.05;0.7;379.0;-0.088118;-0.027383
2.09;8.5;7.0;5.75;4.0;1.0;0.5;0.25;0.25;2.25;0.5;1.0;0.5;0.25;1.0;0.25;0.25;-0.223145;0.019531;0.986816;-0.77;0.63;0.63;382.0;-0.218235;-0.003319;4.5;4.75;3.5;3.25;1.5;1.5;0.5;1.0;2.75;1.75;1.5;1.0;0.75;1.5;1.25;0.75;-0.254883;0.027344;0.979492;-0.84;-0.91;0.63;369.0;-0.086752;-0.033471
2.1;8.5;6.75;5.75;4.0;1.0;0.25;0.25;0.25;2.25;0.5;1.0;0.5;0.0;1.25;0.25;0.25;-0.220215;0.021484;0.98877;-0.63;0.63;0.63;377.0;-0.215964;0.003882;4.5;4.75;3.25;3.5;1.5;1.25;0.5;1.0;2.75;1.5;1.75;1.0;0.75;1.5;1.25;0.75;-0.257812;0.026855;0.976074;-0.84;-1.12;0.63;366.0;-0.086472;-0.035517
2.11;8.75;6.5;5.75;4.0;1.0;0.5;0.25;0.25;2.5;0.5;1.0;0.75;0.0;1.25;0.25;0.5;-0.21875;0.020996;0.981934;-0.7;0.42;0.56;388.0;-0.205823;0.002683;4.5;5.25;3.0;3.75;1.5;1.5;0.5;0.75;3.0;1.5;1.5;1.0;0.75;1.5;1.0;0.75;-0.256348;0.025879;0.974609;-0.84;-1.12;0.84;368.0;-0.095476;-0.03377
2.12;8.5;6.5;5.75;4.0;1.0;0.5;0.25;0.0;2.0;0.5;1.0;0.5;0.0;1.25;0.25;0.5;-0.223145;0.022461;0.98584;-0.56;0.49;0.7;371.0;-0.218628;0.003382;4.75;4.75;3.0;3.5;1.25;1.5;0.5;0.75;3.0;1.75;1.5;0.75;0.75;1.5;0.75;0.5;-0.257812;0.02832;0.966797;-0.84;-0.98;0.77;355.0;-0.097236;-0.025475
2.13;8.5;6.75;5.75;4.0;1.25;0.5;0.25;0.0;2.0;0.75;1.0;0.5;0.0;1.0;0.25;0.5;-0.22168;0.019043;0.98291;-0.7;0.63;0.63;377.0;-0.219635;0.002093;4.5;4.75;3.25;3.5;1.25;1.25;0.5;0.75;3.0;1.75;1.5;0.5;0.75;1.5;1.25;0.5;-0.258301;0.029297;0.974609;-0.7;-1.12;0.77;355.0;-0.09011;-0.022208
2.14;8.75;6.5;6.0;4.0;1.0;0.5;0.25;0.25;2.25;0.5;1.0;0.5;0.25;1.25;0.25;0.25;-0.220215;0.023926;0.984863;-0.63;0.63;0.56;385.0;-0.213572;0.001459;4.5;4.75;3.5;3.25;1.25;1.25;0.5;0.5;3.0;1.75;1.5;0.75;0.5;1.5;1.25;0.75;-0.257324;0.031738;0.969238;-0.84;-1.05;0.77;353.0;-0.088272;-0.015688
2.15;8.5;6.5;6.0;4.0;1.0;0.75;0.25;0.25;2.5;0.5;1.0;0.5;0.0;1.25;0.25;0.25;-0.220703;0.019043;0.981445;-0.7;0.7;0.49;387.0;-0.209697;0.003906;4.5;5.25;3.5;3.5;1.5;1.75;0.5;0.75;2.75;1.5;1.5;0.75;0.75;2.0;1.0;0.75;-0.255859;0.033203;0.976562;-0.84;-1.12;0.77;372.0;-0.096565;-0.030415
2.16;8.5;6.25;6.0;4.0;1.25;0.5;0.25;0.25;2.25;0.5;1.0;0.5;0.0;1.0;0.5;0.25;-0.223633;0.021973;0.983887;-0.7;0.7;0.63;381.0;-0.211633;0.0034;4.75;5.0;3.5;3.75;1.25;1.75;0.5;0.75;2.75;1.75;1.75;0.75;0.75;1.5;1.0;0.75;-0.260254;0.02832;0.978027;-0.7;-1.12;0.84;373.0;-0.099329;-0.033269
2.17;8.75;6.0;6.0;3.75;1.0;0.5;0.25;0.25;2.25;0.5;1.0;0.75;0.0;1.25;0.25;0.25;-0.226562;0.020508;0.991211;-0.63;0.63;0.56;378.0;-0.209439;0.006109;4.5;5.25;3.5;3.75;1.25;1.75;0.5;1.0;3.0;1.75;1.75;0.75;0.5;1.25;1.0;0.75;-0.256836;0.030762;0.971191;-0.84;-0.98;0.84;376.0;-0.099668;-0.034894
2.18;8.75;7.0;6.0;4.25;1.0;0.5;0.25;0.25;2.0;0.5;1.0;0.75;0.0;0.75;0.25;0.25;-0.217285;0.022461;0.987305;-0.84;0.63;0.56;386.0;-0.227879;-0.006539;4.5;5.0;3.5;3.25;1.5;1.5;0.5;1.0;3.0;1.75;1.5;1.25;0.5;1.5;1.0;0.75;-0.254395;0.033203;0.979492;-0.77;-1.05;0.77;373.0;-0.08883;-0.030363
2.19;8.5;7.0;6.0;4.25;1.0;0.5;0.25;0.25;2.25;0.5;1.0;0.75;0.0;0.25;0.25;0.25;-0.226562;0.02002;0.987305;-0.7;0.84;0.63;382.0;-0.229831;-0.007004;4.5;4.75;3.5;3.25;1.5;1.75;0.5;0.75;2.75;1.75;1.25;1.0;0.75;1.25;1.0;0.5;-0.252441;0.026367;0.975586;-0.77;-1.05;0.77;358.0;-0.0997;-0.030457
2.2;8.5;7.25;5.75;4.0;0.75;0.5;0.25;0.0;2.25;0.75;1.0;0.75;0.25;0.5;0.25;0.25;-0.223633;0.02002;0.988281;-0.7;0.7;0.56;379.0;-0.223598;-0.004586;4.75;5.0;3.25;3.5;1.5;1.75;0.5;1.0;2.75;1.75;1.25;0.75;0.5;1.25;1.0;0.75;-0.259277;0.029297;0.976562;-0.77;-1.05;0.77;364.0;-0.105723;-0.033315
2.21;8.5;6.25;5.75;3.5;0.75;0.5;0.25;0.0;2.25;0.75;1.0;0.5;0.25;1.0;0.25;0.5;-0.226562;0.022949;0.985352;-0.63;0.7;0.56;366.0;-0.210195;0.006837;4.75;5.0;3.5;4.0;1.5;1.75;0.5;1.0;2.75;1.5;1.25;0.75;0.5;1.25;0.25;0.75;-0.254395;0.033691;0.978516;-0.77;-1.05;0.84;361.0;-0.125023;-0.035061
2.22;8.5;6.5;5.75;3.75;0.75;0.5;0.25;0.0;2.25;0.75;1.0;0.25;0.25;0.5;0.25;0.5;-0.223145;0.025391;0.986816;-0.7;0.77;0.56;364.0;-0.223534;0.003946;4.75;5.5;3.5;4.0;1.5;1.75;0.5;0.75;2.75;1.75;1.75;0.75;0.75;1.5;0.25;0.75;-0.254395;0.025879;0.981445;-0.77;-1.05;0.77;376.0;-0.116905;-0.034707
2.23;8.75;6.75;6.0;3.75;1.0;0.5;0.25;0.25;2.25;1.0;1.25;0.5;0.25;0.5;0.25;0.5;-0.223633;0.018066;0.990723;-0.77;0.7;0.49;388.0;-0.213475;-0.002199;5.0;5.25;3.5;3.5;1.5;1.5;0.5;0.75;2.5;1.75;1.5;1.25;0.75;1.25;1.0;0.5;-0.258301;0.030762;0.973145;-0.7;-1.05;0.7;371.0;-0.108258;-0.035459
2.24;8.5;7.0;6.0;4.25;1.0;0.5;0.25;0.25;2.25;1.0;1.0;0.5;0.25;0.5;0.25;0.5;-0.219727;0.020508;0.991699;-0.7;0.63;0.63;391.0;-0.217765;-0.006646;5.0;5.0;3.5;3.75;1.25;1.5;0.5;1.0;3.0;1.75;1.5;0.75;0.75;1.25;1.0;0.75;-0.257324;0.028809;0.973145;-0.77;-0.98;0.77;376.0;-0.102489;-0.032021
2.25;8.75;7.25;5.75;4.25;1.0;1.0;0.25;0.25;2.25;0.5;1.0;0.75;0.0;0.5;0.25;0.5;-0.229004;0.026367;0.987793;-0.7;0.77;0.56;394.0;-0.224817;-0.012017;5.0;5.5;3.5;3.75;1.25;1.5;0.5;0.75;2.75;1.5;1.5;0.75;0.75;1.25;1.0;0.75;-0.257324;0.029297;0.973145;-0.77;-1.05;0.7;370.0;-0.113886;-0.033497
2.26;8.75;7.0;6.0;4.0;1.0;1.0;0.25;0.25;2.25;0.75;1.0;0.5;0.0;0.75;0.25;0.5;-0.223145;0.024414;0.986328;-0.7;0.7;0.49;394.0;-0.219483;-0.004878;4.5;5.5;3.5;3.75;1.5;1.75;0.5;0.75;2.5;1.75;1.5;1.0;0.75;1.0;0.75;0.5;-0.252441;0.029785;0.973145;-0.77;-1.19;0.77;366.0;-0.117491;-0.041011
2.27;8.75;7.25;6.0;4.0;1.0;0.5;0.25;0.25;2.0;0.75;0.75;0.5;0.25;0.75;0.25;0.5;-0.227539;0.022461;0.994141;-0.63;0.7;0.56;386.0;-0.227143;-0.00635;4.75;5.25;3.5;3.75;1.5;1.75;0.5;0.75;2.75;1.75;1.5;1.0;0.75;1.25;0.75;0.5;-0.254395;0.030762;0.97168;-0.84;-1.12;0.77;372.0;-0.110735;-0.034628
2.28;8.5;7.25;5.75;4.0;1.0;0.5;0.25;0.25;1.75;0.75;0.75;0.5;0.0;0.75;0.25;0.25;-0.220703;0.022461;0.98584;-0.7;0.7;0.56;373.0;-0.23497;-0.006603;4.75;5.25;3.25;3.75;1.5;1.75;0.5;0.75;2.75;1.5;1.5;0.75;0.5;1.25;1.0;0.75;-0.254883;0.030273;0.977051;-0.84;-0.98;0.77;365.0;-0.110522;-0.033121
2.29;8.75;7.25;6.0;4.0;1.0;0.5;0.25;0.0;2.0;0.75;1.0;0.5;0.0;0.75;0.25;0.25;-0.222168;0.021973;0.991699;-0.56;0.7;0.56;381.0;-0.230825;0.001049;5.0;5.5;3.5;3.75;1.5;1.75;0.5;0.75;2.75;1.75;1.25;0.75;0.5;1.25;1.0;0.5;-0.25;0.03125;0.973145;-0.77;-1.05;0.7;372.0;-0.11787;-0.029445
2.3;8.75;7.25;5.75;4.0;1.0;0.5;0.25;0.0;2.0;1.0;1.0;0.5;0.0;1.0;0.5;0.25;-0.219238;0.021484;0.984375;-0.63;0.77;0.56;386.0;-0.218468;0.001259;5.0;5.5;3.5;3.75;1.5;1.5;0.5;0.75;2.5;1.5;1.75;0.75;0.75;0.75;0.75;0.5;-0.260254;0.031738;0.972168;-0.77;-0.98;0.63;363.0;-0.127726;-0.037566
2.31;8.75;7.0;5.75;4.0;0.5;0.5;0.25;0.0;2.25;0.75;1.0;0.5;0.0;1.25;0.25;0.25;-0.220215;0.014648;0.98291;-0.63;0.84;0.49;378.0;-0.218456;0.005254;5.0;5.5;3.5;4.0;1.5;1.5;0.5;1.0;2.5;1.5;1.5;0.75;0.75;1.25;1.0;0.5;-0.251953;0.029297;0.972168;-0.84;-1.12;0.77;375.0;-0.119639;-0.040074
2.32;8.5;7.0;5.75;4.0;1.0;0.5;0.25;0.0;2.25;0.75;1.0;0.75;0.0;1.0;0.25;0.25;-0.217773;0.026855;0.984863;-0.63;0.7;0.49;381.0;-0.21623;0.002042;5.75;5.25;3.5;4.0;1.5;1.5;0.5;0.75;2.5;1.5;1.5;1.0;0.5;1.5;1.0;0.5;-0.256348;0.033691;0.981445;-0.98;-0.98;0.84;380.0;-0.121232;-0.030048
2.33;9.0;7.0;5.75;4.0;1.0;0.5;0.25;0.25;2.0;1.0;0.75;0.5;0.0;0.75;0.0;0.25;-0.222656;0.022949;0.992188;-0.49;0.63;0.56;379.0;-0.232936;-7.5e-05;4.75;5.5;3.5;4.0;1.5;1.75;0.5;0.75;2.5;1.5;1.5;1.0;0.5;1.5;1.0;0.5;-0.255371;0.029785;0.97168;-0.84;-1.05;0.77;374.0;-0.114936;-0.037101
2.34;8.75;7.25;5.75;4.0;1.0;0.25;0.25;0.25;2.0;0.75;1.0;0.5;0.0;1.0;0.25;0.5;-0.221191;0.020508;0.987305;-0.7;0.84;0.49;383.0;-0.222595;-0.001944;4.75;5.75;3.5;3.75;1.5;1.75;0.5;1.0;2.5;1.5;1.5;1.0;0.75;1.5;1.0;0.5;-0.254883;0.025879;0.972656;-0.77;-1.05;0.77;380.0;-0.112688;-0.042992
2.35;8.75;7.0;5.75;4.0;1.0;0.25;0.25;0.25;2.0;0.75;0.5;0.5;0.25;1.25;0.0;0.5;-0.222656;0.027344;0.991699;-0.56;0.77;0.42;376.0;-0.226541;-0.000269;5.25;5.25;3.5;3.75;1.5;1.5;0.5;1.0;2.5;1.5;1.75;0.75;0.5;1.25;1.0;0.75;-0.256348;0.026855;0.976074;-0.91;-1.05;0.77;374.0;-0.115719;-0.03563
2.36;8.75;7.25;6.0;4.0;1.0;0.5;0.25;0.25;2.0;0.5;0.5;0.5;0.25;1.0;0.0;0.25;-0.223145;0.021973;0.985352;-0.63;0.63;0.63;378.0;-0.237265;-0.003143;5.5;5.5;3.5;4.0;1.5;1.75;0.5;0.5;2.75;1.25;1.5;1.0;0.75;1.5;0.75;0.75;-0.255371;0.033691;0.975586;-0.84;-1.05;0.7;380.0;-0.121991;-0.031147
2.37;8.75;7.25;6.0;4.25;1.0;0.5;0.25;0.25;2.0;0.5;0.5;0.5;0.25;1.0;0.25;0.25;-0.223145;0.019531;0.988281;-0.7;0.84;0.56;384.0;-0.232846;-0.005463;4.75;5.5;3.5;3.75;1.5;1.5;0.5;0.75;2.75;1.0;1.5;0.75;0.75;1.5;0.75;0.5;-0.256836;0.028809;0.969238;-0.91;-1.05;0.7;362.0;-0.119969;-0.032469
2.38;8.75;7.0;5.75;3.75;1.0;0.5;0.25;0.25;2.0;0.5;1.0;0.5;0.0;1.25;0.25;0.25;-0.227051;0.017578;0.989258;-0.56;0.7;0.63;378.0;-0.222098;0.000615;5.25;5.5;3.5;4.0;1.25;1.75;0.5;0.75;2.75;1.25;1.5;0.75;0.5;1.25;1.0;0.5;-0.250488;0.032227;0.972656;-0.84;-1.05;0.7;372.0;-0.124178;-0.032791
2.39;8.5;7.25;5.75;4.0;1.0;0.5;0.25;0.0;1.75;0.5;1.0;0.5;0.0;0.75;0.25;0.25;-0.22168;0.020996;0.986816;-0.56;0.7;0.63;369.0;-0.237575;-0.003645;5.25;5.5;3.5;3.75;1.5;1.5;0.5;0.75;2.75;1.25;1.25;0.75;0.5;0.75;1.0;0.5;-0.256348;0.03418;0.97998;-0.91;-0.98;0.77;362.0;-0.132262;-0.030487
2.4;8.5;6.75;5.75;4.25;0.75;0.25;0.25;0.0;2.0;0.5;1.0;0.5;0.0;0.75;0.25;0.25;-0.227051;0.025391;0.986816;-0.77;0.91;0.56;364.0;-0.232279;0.001176;5.0;5.5;3.5;3.5;1.5;1.5;0.25;0.75;2.5;1.5;1.25;0.75;0.5;1.25;1.0;0.5;-0.255859;0.029785;0.971191;-0.91;-1.05;0.77;356.0;-0.125075;-0.032713
2.41;8.75;7.25;6.0;4.0;0.75;0.25;0.25;0.25;1.75;0.5;1.0;0.5;0.0;0.75;0.25;0.25;-0.225586;0.02002;0.980469;-0.63;0.84;0.7;373.0;-0.23813;-0.00474;5.25;5.75;3.5;3.75;1.25;1.75;0.5;0.75;2.25;1.5;1.25;0.75;0.5;1.5;1.0;0.5;-0.256348;0.024902;0.969727;-0.84;-0.98;0.77;367.0;-0.128779;-0.035397
2.42;8.75;7.25;6.0;4.0;1.0;0.25;0.25;0.25;1.75;0.5;1.0;0.5;0.0;0.75;0.25;0.25;-0.223633;0.021973;0.98291;-0.63;0.7;0.56;376.0;-0.237229;-0.004212;5.25;5.5;3.5;4.0;1.5;1.75;0.5;0.5;2.25;1.5;1.25;0.75;0.75;1.5;1.25;0.5;-0.251953;0.033203;0.965332;-0.84;-0.98;0.77;371.0;-0.123353;-0.034325
2.43;8.5;7.25;6.0;4.5;1.0;0.5;0.25;0.0;2.0;0.75;0.75;0.5;0.0;1.0;0.25;0.25;-0.223633;0.021973;0.983398;-0.63;0.77;0.56;384.0;-0.229952;-0.001338;5.0;5.5;3.5;4.0;1.25;1.5;0.5;0.5;2.25;1.5;1.25;0.75;0.5;1.5;1.25;0.5;-0.253906;0.028809;0.972168;-0.91;-1.05;0.84;360.0;-0.122815;-0.031483
2.44;8.75;7.25;6.0;4.25;0.75;0.5;0.25;0.0;2.0;1.0;0.5;0.5;0.0;1.0;0.25;0.25;-0.222168;0.02832;0.993652;-0.63;0.91;0.56;380.0;-0.231525;0.002099;5.75;5.5;3.75;4.0;1.25;1.5;0.5;0.75;2.25;1.25;1.25;0.75;0.5;1.5;1.0;0.5;-0.253906;0.029785;0.970215;-0.98;-1.33;0.77;370.0;-0.136074;-0.031663
2.45;8.75;6.25;5.75;4.0;0.75;0.5;0.25;0.0;2.0;0.75;0.75;0.25;0.0;0.75;0.25;0.25;-0.222168;0.02002;0.989258;-0.56;0.77;0.63;359.0;-0.233363;0.007804;5.5;5.75;3.75;4.0;1.5;1.75;0.5;0.75;2.25;1.25;1.0;0.75;1.0;1.25;1.0;0.5;-0.250977;0.030762;0.975098;-0.91;-1.12;0.77;375.0;-0.138304;-0.04084
2.46;8.75;6.5;5.5;4.25;0.75;0.5;0.25;0.0;2.0;0.75;0.5;0.25;0.0;0.75;0.25;0.25;-0.222656;0.019531;0.989746;-0.63;0.84;0.56;359.0;-0.238494;0.00493;5.25;5.75;3.75;4.0;1.25;1.75;0.5;0.75;2.25;1.25;1.25;0.75;0.75;1.25;0.75;0.5;-0.260742;0.02832;0.975586;-0.98;-1.19;0.84;367.0;-0.139768;-0.040392
2.47;8.75;7.25;5.75;3.75;1.0;0.5;0.25;0.0;2.0;1.0;0.5;0.25;0.0;0.75;0.5;0.0;-0.225586;0.021484;0.985352;-0.7;0.84;0.49;370.0;-0.234363;0.007363;6.0;6.0;3.75;4.25;1.5;2.0;0.5;0.75;2.25;1.0;1.25;0.75;0.5;1.25;1.0;0.5;-0.254395;0.029785;0.975586;-1.05;-1.12;0.84;385.0;-0.14915;-0.038869
2.48;8.5;6.75;6.0;3.75;0.75;0.5;0.25;0.0;2.0;0.25;0.25;0.25;0.0;1.0;0.5;0.25;-0.227051;0.027832;0.991699;-0.7;0.7;0.56;355.0;-0.240015;0.008673;6.0;5.75;3.75;4.25;1.25;1.75;0.5;0.75;2.0;1.25;1.25;0.75;0.5;1.0;1.0;0.5;-0.255371;0.03125;0.976074;-0.98;-1.05;0.84;373.0;-0.151924;-0.040516
2.49;8.75;6.0;6.0;3.75;1.0;0.5;0.25;0.25;2.0;0.25;0.25;0.5;0.25;0.75;0.25;0.25;-0.224609;0.021973;0.983398;-0.56;0.77;0.56;358.0;-0.237072;0.003021;6.0;6.25;3.75;4.0;1.25;1.75;0.5;0.5;2.25;1.5;1.25;0.75;0.5;1.0;1.0;0.25;-0.255371;0.027344;0.97168;-1.05;-1.05;0.84;376.0;-0.151105;-0.031982
2.5;8.75;6.5;5.75;3.75;1.0;0.5;0.25;0.25;2.0;0.5;0.5;0.25;0.25;0.75;0.0;0.0;-0.22168;0.024902;0.985352;-0.49;0.7;0.56;358.0;-0.243093;0.003836;6.0;6.5;3.75;4.0;1.25;1.25;0.5;0.75;2.5;1.5;1.25;0.75;0.5;0.75;0.75;0.5;-0.254883;0.03125;0.971191;-1.05;-1.12;0.91;377.0;-0.153176;-0.032161
2.51;8.5;7.25;5.5;3.75;1.0;0.5;0.25;0.0;2.25;0.5;0.5;0.25;0.25;1.0;0.25;0.25;-0.219727;0.025879;0.98584;-0.56;0.63;0.56;366.0;-0.231294;0.00509;6.0;6.25;3.75;4.0;1.5;1.5;0.5;1.0;2.5;1.5;1.25;0.75;0.25;0.75;0.75;0.25;-0.253418;0.026855;0.972656;-0.98;-1.12;0.84;380.0;-0.153658;-0.0326
2.52;8.75;7.25;5.75;4.25;1.0;0.5;0.25;0.0;2.0;0.5;0.5;0.5;0.0;0.75;0.25;0.25;-0.226562;0.018066;0.987793;-0.49;0.7;0.56;372.0;-0.241612;-0.000177;6.0;5.75;3.75;4.25;1.5;1.75;0.5;0.75;2.5;1.5;1.25;0.75;0.5;0.75;0.75;0.25;-0.252441;0.035156;0.97168;-1.05;-1.12;0.77;380.0;-0.150758;-0.03295
2.53;8.75;7.0;5.75;4.0;1.0;0.5;0.25;0.0;1.75;0.5;0.5;0.25;0.0;0.75;0.25;0.25;-0.21875;0.016113;0.986816;-0.63;0.63;0.56;360.0;-0.248553;0.002494;5.75;6.5;3.75;4.25;1.5;1.75;0.5;0.75;2.75;1.5;1.25;0.75;0.5;1.25;0.5;0.25;-0.258789;0.028809;0.980469;-0.84;-1.12;0.7;390.0;-0.147742;-0.030872
2.54;8.75;7.0;5.75;4.0;1.0;0.75;0.25;0.0;1.75;0.5;0.75;0.5;0.0;0.25;0.25;0.25;-0.226074;0.02002;0.984375;-0.56;0.63;0.63;364.0;-0.248846;-0.005275;6.0;6.75;3.75;4.25;1.5;1.25;0.5;0.5;2.5;1.5;0.75;0.75;0.75;1.25;0.5;0.5;-0.25293;0.030273;0.977539;-0.91;-1.19;0.77;379.0;-0.158339;-0.028346
2.55;8.75;7.25;5.75;4.0;1.0;0.5;0.25;0.25;2.0;0.75;1.0;0.25;0.0;0.25;0.25;0.0;-0.223633;0.023438;0.989258;-0.56;0.49;0.56;373.0;-0.241857;-0.002712;6.0;6.75;3.75;4.25;1.25;1.25;0.5;0.5;2.5;1.5;1.0;0.75;0.5;1.25;1.0;0.5;-0.258301;0.033691;0.974609;-0.98;-1.19;0.77;383.0;-0.149265;-0.027844
2.56;8.75;7.0;5.75;4.0;1.0;0.5;0.25;0.0;2.0;0.75;1.0;0.25;0.25;0.5;0.25;0.0;-0.222168;0.020996;0.983398;-0.56;0.63;0.56;371.0;-0.23654;0.000981;6.5;6.75;4.0;4.25;1.25;1.5;0.5;0.75;2.25;1.5;1.0;0.75;0.5;1.0;0.75;0.5;-0.251465;0.026855;0.970703;-0.91;-1.12;0.77;390.0;-0.163585;-0.034297
2.57;8.75;7.25;5.75;4.0;1.0;0.5;0.25;0.0;2.0;0.75;0.5;0.25;0.0;0.75;0.25;0.0;-0.225586;0.022949;0.990723;-0.63;0.63;0.49;368.0;-0.243469;0.00573;6.0;6.75;4.0;4.25;1.5;1.5;0.5;0.75;2.0;1.25;1.0;0.5;0.5;1.5;1.0;0.5;-0.254395;0.027344;0.973633;-0.91;-1.05;0.7;385.0;-0.158237;-0.03509
2.58;8.75;6.75;6.0;4.0;0.75;0.5;0.25;0.25;2.0;0.75;0.5;0.5;0.0;0.75;0.25;0.25;-0.22168;0.022461;0.981445;-0.63;0.7;0.56;371.0;-0.233741;0.000227;6.0;6.5;4.0;4.25;1.5;1.75;0.5;0.75;2.25;1.0;1.25;0.5;0.5;1.5;0.5;0.5;-0.255371;0.027832;0.976562;-0.84;-1.05;0.7;384.0;-0.161174;-0.033821
2.59;8.75;7.25;6.0;4.0;0.75;0.5;0.25;0.25;2.0;0.75;0.75;0.5;0.0;0.75;0.25;0.25;-0.217773;0.020996;0.986816;-0.77;0.63;0.56;379.0;-0.232706;-0.002859;6.0;6.75;3.75;4.25;1.5;1.75;0.5;0.75;2.25;1.25;1.25;0.5;0.5;1.5;0.5;0.25;-0.256836;0.031738;0.974121;-0.84;-0.98;0.84;384.0;-0.161061;-0.033865
2.6;8.5;7.25;5.75;4.0;1.0;0.5;0.25;0.25;2.0;0.75;0.75;0.5;0.0;1.0;0.25;0.25;-0.230469;0.025879;0.98877;-0.63;0.63;0.56;379.0;-0.22636;-0.00282;6.0;6.75;4.0;4.25;1.5;1.5;0.5;0.5;2.25;1.5;1.25;0.75;0.5;1.25;0.75;0.25;-0.254395;0.027344;0.973145;-0.84;-0.98;0.84;387.0;-0.157075;-0.030062
2.61;8.75;7.25;6.25;4.0;0.75;0.75;0.25;0.25;2.25;0.75;0.75;0.5;0.0;1.25;0.25;0.25;-0.227051;0.024414;0.981934;-0.56;0.49;0.56;393.0;-0.220292;0.000463;6.0;6.5;3.75;4.0;1.5;1.5;0.5;0.5;2.25;1.5;1.25;0.5;0.5;1.25;0.75;0.5;-0.258789;0.030762;0.977539;-0.84;-1.05;0.77;377.0;-0.154186;-0.027649
2.62;8.75;7.25;6.0;4.0;1.0;0.75;0.25;0.25;2.0;0.75;0.75;0.5;0.0;1.25;0.25;0.5;-0.222656;0.021484;0.990723;-0.56;0.63;0.63;391.0;-0.22137;-0.003453;6.0;6.0;3.75;4.25;1.5;1.5;0.5;0.75;2.25;1.25;1.25;0.5;0.25;1.25;1.0;0.25;-0.253906;0.034668;0.975098;-0.77;-1.05;0.84;375.0;-0.15291;-0.028664
2.63;8.75;7.0;5.75;4.25;1.0;0.75;0.25;0.25;1.75;1.0;1.0;0.5;0.0;0.75;0.25;0.25;-0.226562;0.024414;0.983887;-0.63;0.63;0.56;385.0;-0.227851;-0.00876;6.25;6.5;3.75;4.25;1.5;1.5;0.5;0.5;2.5;1.25;1.25;1.0;0.5;1.25;1.0;0.5;-0.254395;0.026367;0.973633;-0.77;-0.91;0.77;392.0;-0.146674;-0.030423
2.64;8.75;7.0;5.75;4.0;1.0;0.75;0.25;0.25;2.0;0.5;1.0;0.5;0.0;0.75;0.25;0.25;-0.226074;0.024902;0.992188;-0.63;0.7;0.56;380.0;-0.229829;-0.005475;6.0;6.5;3.75;4.0;1.25;1.5;0.5;0.75;2.25;1.25;1.25;0.75;0.5;1.25;0.75;0.5;-0.257812;0.030273;0.96582;-0.84;-0.91;0.7;378.0;-0.153054;-0.035101
2.65;8.75;7.0;5.75;4.0;1.0;0.5;0.25;0.25;2.0;0.5;0.75;0.25;0.0;0.75;0.25;0.25;-0.217773;0.026367;0.985352;-0.63;0.56;0.63;371.0;-0.237375;-0.000223;6.0;6.5;3.75;4.25;1.5;1.75;0.5;0.75;2.0;1.25;1.0;0.75;0.5;1.25;0.75;0.5;-0.255371;0.03125;0.972168;-0.84;-0.98;0.7;380.0;-0.160586;-0.039997
2.66;8.75;7.0;6.0;4.0;1.0;0.5;0.25;0.25;2.0;0.5;0.75;0.25;0.0;0.75;0.25;0.25;-0.226074;0.021973;0.990723;-0.63;0.63;0.7;374.0;-0.237604;0.000507;6.0;6.5;3.75;4.25;1.5;1.5;0.25;0.5;2.25;1.0;1.0;0.75;0.75;1.0;1.0;0.5;-0.253906;0.027832;0.970215;-0.84;-0.91;0.77;373.0;-0.161143;-0.03945
2.67;8.75;7.0;6.25;4.75;1.0;0.5;0.25;0.25;2.0;0.75;0.75;0.5;0.0;0.75;0.25;0.25;-0.219727;0.023438;0.990234;-0.63;0.56;0.56;392.0;-0.232214;-0.005697;6.0;6.25;3.75;4.25;1.5;1.5;0.5;0.5;2.25;1.25;1.25;0.25;0.5;1.25;0.75;0.5;-0.256836;0.032227;0.973633;-0.84;-1.05;0.77;371.0;-0.159317;-0.026922
2.68;8.5;7.25;5.75;4.0;1.0;0.5;0.25;0.25;2.0;0.5;1.0;0.5;0.0;0.75;0.0;0.25;-0.219727;0.017578;0.984863;-0.49;0.7;0.56;374.0;-0.235285;-0.004707;6.0;6.25;3.75;4.0;1.25;1.5;0.25;0.5;2.0;1.25;0.75;0.25;0.25;1.25;0.75;0.5;-0.253906;0.032227;0.976074;-0.84;-0.91;0.77;350.0;-0.1741;-0.027855
2.69;8.75;7.25;6.0;3.75;1.0;0.5;0.25;0.25;1.75;0.5;0.75;0.5;0.0;0.5;0.25;0.25;-0.22168;0.021973;0.984375;-0.56;0.63;0.56;371.0;-0.243786;-0.004862;6.0;6.5;3.75;4.0;1.5;1.5;0.5;0.5;2.25;1.5;0.75;0.5;0.25;1.25;1.0;0.5;-0.25293;0.030762;0.974609;-0.77;-0.98;0.84;371.0;-0.157755;-0.02396
2.7;8.75;7.5;6.25;4.0;1.25;0.5;0.25;0.25;1.75;0.75;1.0;0.5;0.0;0.75;0.25;0.25;-0.224609;0.016113;0.984863;-0.7;0.84;0.49;390.0;-0.23362;-0.005576;5.75;6.5;3.75;4.25;1.25;1.5;0.5;0.5;2.25;1.25;1.25;0.5;0.5;1.0;1.0;0.5;-0.255371;0.030273;0.976074;-0.84;-0.91;0.77;372.0;-0.155825;-0.033403
2.71;8.75;7.0;6.0;4.25;1.0;0.5;0.25;0.25;2.0;0.75;1.0;0.25;0.0;0.75;0.5;0.25;-0.225586;0.022461;0.98877;-0.56;0.7;0.49;386.0;-0.226233;-0.002256;5.75;6.5;3.75;4.25;1.25;1.5;0.25;0.75;2.25;1.0;1.25;0.5;0.5;1.25;1.0;0.5;-0.256348;0.026855;0.974121;-0.84;-0.98;0.7;371.0;-0.156315;-0.039911
2.72;8.75;7.0;5.75;4.0;1.0;0.5;0.25;0.25;2.0;0.75;1.0;0.5;0.0;0.75;0.25;0.25;-0.222168;0.024414;0.985352;-0.49;0.63;0.56;380.0;-0.226916;-0.002859;6.25;6.5;3.75;4.0;1.5;1.75;0.5;0.75;2.25;1.0;1.25;0.75;0.5;1.0;1.0;0.5;-0.259766;0.03418;0.96875;-0.91;-0.84;0.77;384.0;-0.156817;-0.037497
2.73;8.75;7.0;5.75;4.0;1.0;0.5;0.25;0.0;2.0;0.5;1.0;0.5;0.0;0.75;0.0;0.25;-0.222168;0.020508;0.987793;-0.56;0.7;0.63;370.0;-0.237846;0.001622;6.0;6.5;3.75;4.0;1.5;1.75;0.5;0.5;2.25;1.0;1.0;0.5;0.5;0.75;0.5;0.5;-0.256836;0.030273;0.975098;-0.91;-0.91;0.7;364.0;-0.174996;-0.032585
2.74;8.75;7.0;5.75;4.0;1.0;0.5;0.25;0.0;2.0;0.75;0.75;0.5;0.25;1.0;0.25;0.25;-0.220215;0.018555;0.97998;-0.42;0.63;0.49;377.0;-0.226308;0.000539;6.0;6.5;3.75;4.25;1.25;1.75;0.25;0.75;2.25;1.5;1.0;0.5;0.5;1.0;0.5;0.5;-0.251465;0.030273;0.973633;-0.84;-0.98;0.77;372.0;-0.167288;-0.039178
2.75;8.75;7.25;6.0;4.25;1.0;0.5;0.25;0.25;1.75;0.75;1.0;0.5;0.25;0.75;0.25;0.25;-0.220215;0.021973;0.986816;-0.56;0.7;0.49;387.0;-0.230981;-0.010272;6.0;6.25;3.75;4.5;1.5;1.5;0.5;0.5;2.0;1.0;1.0;0.5;0.5;1.0;0.5;0.5;-0.254395;0.028809;0.976562;-0.84;-0.91;0.77;363.0;-0.175857;-0.034545
2.76;8.75;7.25;5.75;3.75;1.0;0.75;0.25;0.25;2.0;0.75;1.0;0.5;0.0;0.75;0.25;0.25;-0.220703;0.020508;0.987793;-0.56;0.77;0.49;382.0;-0.22711;-0.004297;6.0;6.25;3.75;4.0;1.5;1.5;0.5;0.5;2.25;1.0;1.25;0.75;0.5;1.0;0.75;0.5;-0.257324;0.029297;0.966797;-0.84;-0.98;0.7;369.0;-0.159204;-0.031499
2.77;8.75;7.5;6.0;4.0;1.0;0.75;0.25;0.25;2.0;1.0;0.75;0.5;0.0;0.75;0.25;0.25;-0.221191;0.020996;0.990723;-0.63;0.7;0.42;391.0;-0.229012;-0.00499;6.0;6.5;3.75;4.0;1.5;1.5;0.5;0.5;2.25;1.25;1.25;0.75;0.25;1.0;0.75;0.25;-0.258789;0.02832;0.976074;-0.77;-0.91;0.63;371.0;-0.162055;-0.027823
2.78;9.0;7.0;6.0;4.25;1.0;0.75;0.25;0.25;2.0;0.75;0.75;0.5;0.0;0.75;0.25;0.25;-0.223145;0.015137;0.993164;-0.56;0.77;0.56;389.0;-0.231732;-0.004271;6.0;6.75;3.75;4.25;1.5;1.75;0.25;0.75;2.25;1.0;1.5;0.5;0.25;1.25;1.0;0.25;-0.254395;0.030273;0.976562;-0.84;-0.98;0.77;381.0;-0.160741;-0.037566
2.79;8.75;7.0;6.0;4.25;1.0;0.75;0.25;0.25;1.75;0.75;1.0;0.25;0.0;0.75;0.25;0.25;-0.224121;0.026367;0.987793;-0.49;0.7;0.49;382.0;-0.234929;-0.006353;6.0;6.0;3.75;4.25;1.5;1.5;0.5;0.5;2.25;1.0;0.75;0.5;0.25;1.25;1.0;0.25;-0.256836;0.028809;0.970703;-0.84;-1.05;0.77;362.0;-0.163594;-0.023839
2.8;8.75;7.25;6.0;4.25;1.0;0.5;0.25;0.25;1.75;0.5;1.0;0.25;0.0;0.75;0.25;0.5;-0.22168;0.020508;0.988281;-0.56;0.7;0.49;380.0;-0.238014;-0.007049;6.0;6.25;4.0;4.25;1.25;1.5;0.5;0.5;2.25;1.0;0.75;0.5;0.5;1.25;0.75;0.5;-0.253906;0.030762;0.973633;-0.84;-0.98;0.7;366.0;-0.166713;-0.02811
2.81;9.5;7.0;6.0;4.0;1.0;0.75;0.25;0.25;1.75;0.5;1.0;0.5;0.0;0.75;0.25;0.25;-0.222656;0.022949;0.987305;-0.49;0.7;0.49;388.0;-0.238394;-0.004807;6.0;6.5;3.75;4.25;1.25;1.5;0.5;0.5;2.25;1.0;1.0;0.5;0.25;1.25;0.75;0.5;-0.25;0.029785;0.967773;-0.84;-0.98;0.77;366.0;-0.166705;-0.027935
2.82;9.0;7.0;6.0;4.5;1.0;0.75;0.25;0.25;2.25;0.5;0.75;0.25;0.25;0.75;0.0;0.0;-0.226074;0.022461;0.992188;-0.63;0.77;0.56;387.0;-0.238959;-0.002758;6.0;6.25;3.75;4.0;1.5;1.5;0.5;0.75;2.25;1.0;0.75;0.5;0.25;1.25;1.0;0.25;-0.254883;0.030762;0.972168;-0.84;-0.98;0.63;366.0;-0.1626;-0.027358
2.83;8.75;7.0;6.25;4.25;1.0;0.5;0.25;0.25;2.0;0.5;0.5;0.25;0.25;0.75;0.25;0.25;-0.225586;0.021484;0.985352;-0.7;0.84;0.42;380.0;-0.239191;-0.00255;6.0;6.5;4.0;4.25;1.5;1.75;0.5;0.75;2.0;1.5;1.25;0.75;0.25;1.25;0.75;0.25;-0.259766;0.02832;0.977051;-0.77;-1.05;0.77;385.0;-0.159609;-0.035143
2.84;8.75;7.25;6.0;4.0;1.0;0.75;0.25;0.25;1.75;0.75;0.75;0.5;0.25;0.5;0.25;0.25;-0.220703;0.025391;0.984375;-0.49;0.63;0.63;382.0;-0.237261;-0.010984;6.0;6.25;3.75;4.0;1.5;1.5;0.5;0.5;2.25;1.5;1.0;0.75;0.25;1.5;0.75;0.25;-0.251953;0.026855;0.979492;-0.84;-0.98;0.77;373.0;-0.153082;-0.022951
2.85;8.75;7.5;6.0;4.0;1.0;0.75;0.25;0.25;1.75;0.5;0.75;0.25;0.0;0.75;0.25;0.25;-0.222168;0.021973;0.993652;-0.56;0.77;0.56;378.0;-0.243986;-0.00645;5.75;6.0;3.75;4.0;1.5;1.25;0.25;0.5;2.25;1.0;1.0;0.5;0.25;1.25;0.75;0.25;-0.256348;0.028809;0.977539;-0.77;-0.98;0.77;349.0;-0.16506;-0.024484
2.86;9.0;7.25;6.0;4.0;1.0;0.5;0.25;0.25;2.0;0.25;1.0;0.25;0.0;0.75;0.25;0.0;-0.229004;0.023926;0.990234;-0.63;0.77;0.56;378.0;-0.242471;8.1e-05;5.75;6.5;3.75;4.0;1.5;1.5;0.5;0.75;2.25;1.0;1.0;0.5;0.5;0.75;0.75;0.5;-0.249023;0.02832;0.976074;-0.84;-1.05;0.7;365.0;-0.166978;-0.036211
2.87;8.75;7.0;6.0;4.25;1.0;1.0;0.25;0.25;1.75;0.5;0.75;0.25;0.0;1.0;0.5;0.25;-0.226074;0.024414;0.990234;-0.56;0.77;0.56;385.0;-0.232532;-0.007573;6.0;6.0;3.75;4.0;1.5;1.75;0.5;0.75;2.5;1.0;1.0;0.5;0.5;1.5;0.75;0.5;-0.255859;0.025879;0.974609;-0.84;-1.05;0.7;376.0;-0.150536;-0.028337
2.88;8.75;7.5;6.25;4.25;1.0;1.0;0.25;0.25;1.75;0.5;0.5;0.25;0.0;0.75;0.25;0.25;-0.226074;0.019531;0.985352;-0.49;0.7;0.56;385.0;-0.247281;-0.00864;6.0;5.75;3.75;4.0;1.5;1.5;0.5;0.75;2.0;1.25;1.25;0.75;0.5;1.5;0.75;0.5;-0.250977;0.030762;0.977051;-0.84;-0.98;0.84;372.0;-0.147879;-0.033307
2.89;8.75;7.0;6.0;4.5;1.0;0.75;0.25;0.25;2.0;0.5;0.75;0.25;0.25;0.75;0.0;0.25;-0.223145;0.020508;0.985352;-0.63;0.7;0.63;382.0;-0.240053;-0.007379;6.0;6.5;3.75;4.0;1.5;1.5;0.5;0.75;2.25;1.25;1.25;0.5;0.5;1.25;1.0;0.5;-0.255859;0.033203;0.96875;-0.91;-1.05;0.77;381.0;-0.151352;-0.032723
2.9;8.75;7.0;6.0;4.0;1.0;0.5;0.25;0.25;2.0;0.5;1.0;0.5;0.0;0.75;0.25;0.25;-0.224609;0.017578;0.985352;-0.63;0.63;0.49;380.0;-0.230723;-0.002619;6.0;6.25;3.75;4.0;1.5;1.5;0.5;0.75;2.5;1.0;1.25;0.25;0.5;1.0;1.0;0.5;-0.253906;0.030273;0.973633;-0.77;-1.05;0.7;374.0;-0.154919;-0.0289
2.91;9.0;7.0;6.0;3.75;1.0;0.5;0.25;0.25;1.75;0.5;1.0;0.5;0.25;1.25;0.25;0.25;-0.223633;0.024902;0.980469;-0.56;0.77;0.56;383.0;-0.225844;-0.003277;6.0;6.25;3.75;4.0;1.5;1.25;0.5;0.75;2.25;1.0;1.0;0.25;0.5;1.0;1.0;0.5;-0.252441;0.03418;0.976074;-0.77;-1.05;0.84;364.0;-0.161965;-0.029202
2.92;8.75;7.25;6.0;4.0;1.0;0.5;0.25;0.25;2.0;0.5;1.0;0.5;0.25;0.75;0.25;0.25;-0.220703;0.022949;0.987793;-0.56;0.7;0.49;385.0;-0.229492;-0.0065;6.0;6.25;3.75;4.0;1.5;1.5;0.5;0.5;2.25;1.0;1.5;0.5;0.25;1.5;0.75;0.5;-0.254395;0.033203;0.977051;-0.77;-0.91;0.77;371.0;-0.154027;-0.024755
2.93;9.0;7.25;6.25;4.25;1.0;0.75;0.25;0.25;1.75;0.75;0.5;0.5;0.25;0.75;0.25;0.25;-0.229492;0.023438;0.98584;-0.56;0.77;0.56;390.0;-0.238602;-0.009083;6.0;6.25;3.75;4.25;1.5;1.75;0.25;0.5;2.0;1.0;1.5;0.75;0.5;1.5;0.75;0.5;-0.257324;0.033203;0.972656;-0.77;-1.05;0.7;375.0;-0.156751;-0.038944
2.94;9.0;7.5;6.0;4.0;1.0;0.5;0.25;0.25;1.75;0.75;0.75;0.5;0.25;1.0;0.25;0.25;-0.230469;0.02002;0.989746;-0.63;0.63;0.56;389.0;-0.232522;-0.006859;6.0;6.5;3.75;4.25;1.5;1.75;0.25;0.5;2.25;1.25;1.0;0.5;0.5;1.5;1.0;0.5;-0.254883;0.028809;0.973145;-0.77;-0.91;0.7;378.0;-0.155885;-0.03326
2.95;8.75;7.0;6.0;4.0;1.0;0.5;0.25;0.25;2.0;0.5;1.0;0.5;0.25;0.75;0.25;0.25;-0.221191;0.021973;0.990234;-0.63;0.63;0.56;382.0;-0.228258;-0.005448;6.25;6.75;4.0;4.25;1.5;1.75;0.5;0.5;2.25;1.25;1.0;0.5;0.25;1.25;1.0;0.5;-0.254395;0.025391;0.975098;-0.84;-0.98;0.7;386.0;-0.163153;-0.027829
2.96;8.75;7.25;6.0;4.0;1.0;0.5;0.25;0.25;1.75;0.5;1.0;0.5;0.25;0.75;0.25;0.5;-0.221191;0.019043;0.98291;-0.7;0.63;0.56;383.0;-0.23175;-0.010315;6.5;6.5;4.0;4.25;1.5;1.75;0.25;0.5;2.5;1.0;1.25;0.25;0.25;1.0;1.0;0.5;-0.257812;0.027832;0.973633;-0.77;-0.98;0.7;380.0;-0.168372;-0.026554
2.97;9.25;7.5;5.75;4.25;1.0;0.5;0.25;0.25;1.75;0.75;1.0;0.25;0.0;0.75;0.25;0.25;-0.229004;0.019043;0.98877;-0.63;0.7;0.56;387.0;-0.240157;-0.005453;6.0;6.0;3.75;4.25;1.5;1.5;0.25;0.5;2.25;1.25;1.25;0.25;0.25;1.0;1.0;0.5;-0.254883;0.030762;0.972168;-0.77;-0.98;0.77;363.0;-0.161562;-0.027938
2.98;9.0;7.0;6.0;4.25;1.0;0.5;0.25;0.25;1.75;0.75;1.0;0.25;0.25;0.75;0.25;0.25;-0.227539;0.026367;0.987305;-0.7;0.56;0.63;384.0;-0.234332;-0.00623;6.0;6.0;4.0;4.25;1.5;1.5;0.5;0.75;2.25;1.25;1.0;0.5;0.5;1.0;1.0;0.5;-0.258301;0.029297;0.976562;-0.84;-1.05;0.84;377.0;-0.15615;-0.032145
2.99;9.0;7.0;5.75;4.25;1.0;0.5;0.25;0.25;2.0;0.75;0.75;0.25;0.0;0.75;0.25;0.25;-0.222656;0.024902;0.98584;-0.7;0.77;0.56;380.0;-0.23543;-0.000704;6.0;6.0;4.0;4.25;1.25;1.75;0.5;0.75;2.25;1.25;0.75;0.25;0.5;0.75;0.75;0.5;-0.256348;0.029785;0.968262;-0.77;-1.12;0.77;366.0;-0.170264;-0.033078
3.0;8.75;7.0;6.0;4.25;1.0;0.5;0.25;0.25;2.0;0.5;0.75;0.5;0.0;1.0;0.25;0.25;-0.227051;0.015137;0.992676;-0.56;0.7;0.63;382.0;-0.230679;-0.00242;6.0;6.5;4.0;4.25;1.25;1.5;0.5;0.5;2.25;1.25;0.75;0.25;0.25;1.0;0.75;0.5;-0.254883;0.032715;0.975586;-0.84;-0.98;0.63;364.0;-0.174114;-0.024732
3.01;8.75;7.0;6.0;4.0;1.0;0.5;0.25;0.25;2.0;0.5;0.75;0.5;0.0;0.75;0.5;0.25;-0.223633;0.02002;0.989258;-0.7;0.63;0.56;380.0;-0.229344;-0.002366;6.0;5.75;3.75;4.25;1.25;1.25;0.5;0.5;2.5;1.0;1.25;0.5;0.25;1.25;0.75;0.5;-0.25293;0.03125;0.975586;-0.77;-0.98;0.77;362.0;-0.154311;-0.020738
3.02;8.75;7.5;5.75;4.0;1.0;0.5;0.25;0.25;2.0;0.5;0.5;0.5;0.25;0.75;0.25;0.25;-0.230469;0.02002;0.98877;-0.56;0.7;0.49;378.0;-0.237334;-0.006682;6.0;5.75;3.75;4.0;1.5;1.5;0.5;0.5;2.25;1.0;1.25;0.5;0.25;0.75;0.75;0.5;-0.254883;0.024414;0.973145;-0.84;-1.05;0.77;356.0;-0.164434;-0.02598
3.03;8.75;7.5;5.0;4.25;0.75;0.5;0.25;0.25;2.0;0.5;0.75;0.5;0.25;0.75;0.25;0.25;-0.220215;0.018066;0.98877;-0.63;0.7;0.49;372.0;-0.234389;-0.012188;6.0;6.5;3.75;4.0;1.25;1.25;0.5;0.5;2.25;1.25;1.25;0.5;0.5;0.75;0.75;0.5;-0.258789;0.03418;0.967773;-0.84;-1.12;0.77;363.0;-0.164774;-0.029717
3.04;9.0;7.25;6.0;4.25;1.0;0.5;0.25;0.25;1.75;0.5;1.0;0.75;0.25;0.5;0.25;0.25;-0.225098;0.02002;0.985352;-0.56;0.7;0.49;387.0;-0.236281;-0.013196;6.0;6.25;4.0;4.25;1.25;1.25;0.25;0.5;2.25;1.25;1.25;0.5;0.5;1.0;1.0;0.5;-0.253906;0.034668;0.979004;-0.7;-0.98;0.77;368.0;-0.159524;-0.031535
3.05;9.0;7.5;6.25;4.25;0.75;0.5;0.25;0.25;1.75;0.5;1.0;0.25;0.25;0.5;0.25;0.25;-0.220703;0.024414;0.983398;-0.56;0.84;0.63;384.0;-0.245243;-0.009728;6.0;6.25;3.75;4.25;1.25;1.25;0.5;0.5;2.25;1.25;0.75;0.5;0.5;0.75;0.75;0.5;-0.255371;0.033203;0.980469;-0.84;-0.98;0.77;358.0;-0.170272;-0.029014
3.06;9.0;7.5;7.0;4.25;1.0;0.5;0.25;0.25;1.75;0.5;0.5;0.25;0.25;0.75;0.25;0.25;-0.223633;0.023926;0.991699;-0.63;0.63;0.63;393.0;-0.247771;-0.004228;6.0;6.5;4.0;4.25;1.25;1.25;0.25;0.5;2.25;1.0;0.75;0.5;0.5;1.0;0.5;0.5;-0.253418;0.02832;0.972656;-0.77;-0.91;0.77;356.0;-0.179861;-0.031079
3.07;9.0;7.5;6.0;4.25;1.0;0.5;0.25;0.25;1.75;0.5;0.5;0.25;0.0;0.75;0.25;0.25;-0.223145;0.022949;0.981445;-0.63;0.7;0.56;378.0;-0.249796;-0.004396;6.0;6.25;4.0;4.25;1.5;1.5;0.25;0.5;2.25;1.0;1.0;0.5;0.5;1.25;0.5;0.5;-0.255859;0.02832;0.974121;-0.91;-0.98;0.77;365.0;-0.170597;-0.030694
3.08;8.75;7.5;6.0;4.25;1.0;0.5;0.25;0.25;1.75;0.75;0.75;0.25;0.0;0.75;0.0;0.25;-0.218262;0.022461;0.989746;-0.49;0.63;0.7;378.0;-0.24635;-0.004984;6.5;6.25;3.75;4.25;1.25;1.25;0.25;0.5;2.25;1.0;1.5;0.75;0.5;0.75;1.0;0.5;-0.252441;0.028809;0.975098;-0.84;-1.05;0.77;371.0;-0.163182;-0.03513
3.09;9.0;7.0;5.5;4.25;1.25;0.5;0.25;0.25;2.0;0.5;0.75;0.25;0.0;0.75;0.0;0.25;-0.219238;0.022461;0.987305;-0.56;0.7;0.49;374.0;-0.24285;-0.000806;6.25;6.25;3.75;4.25;1.5;1.25;0.25;0.5;2.25;1.5;1.0;0.5;0.5;0.75;1.0;0.5;-0.254395;0.030273;0.977051;-0.91;-0.84;0.7;368.0;-0.163753;-0.030627
3.1;9.0;7.5;5.75;4.5;1.0;0.5;0.25;0.25;2.0;0.5;0.75;0.25;0.0;0.75;0.5;0.5;-0.225098;0.023926;0.992676;-0.56;0.49;0.56;389.0;-0.23465;-0.006837;6.0;6.25;4.0;4.25;1.25;1.5;0.25;0.5;2.25;1.5;1.0;0.5;0.5;0.75;1.0;0.5;-0.258789;0.033203;0.979004;-0.91;-1.12;0.77;368.0;-0.162976;-0.033411
3.11;9.0;7.25;6.25;4.75;1.0;0.5;0.25;0.25;2.0;0.5;1.0;0.5;0.25;0.75;0.25;0.5;-0.22168;0.021484;0.986328;-0.56;0.7;0.7;401.0;-0.230115;-0.010991;6.0;6.5;4.0;4.0;1.5;1.75;0.5;0.5;2.0;1.25;0.75;0.5;0.5;1.0;0.75;0.5;-0.257812;0.030762;0.975586;-0.84;-1.05;0.77;368.0;-0.171603;-0.032225
3.12;9.25;7.0;5.0;4.25;1.0;0.5;0.25;0.25;1.75;0.5;0.5;0.5;0.25;0.75;0.0;0.5;-0.22168;0.019531;0.990234;-0.49;0.7;0.49;368.0;-0.244557;-0.010264;6.0;6.5;4.0;4.25;1.25;1.5;0.5;0.5;2.25;1.0;0.75;0.5;0.5;1.25;0.75;0.5;-0.253906;0.026367;0.96875;-0.91;-1.05;0.77;368.0;-0.168423;-0.029054
3.13;9.25;7.0;5.75;4.0;0.75;0.5;0.25;0.25;1.75;0.5;0.5;0.5;0.0;0.75;0.0;0.5;-0.216797;0.018066;0.986816;-0.56;0.63;0.56;369.0;-0.248341;-0.003749;6.0;6.75;3.75;4.0;1.25;1.5;0.5;0.75;2.0;1.0;0.75;0.5;0.5;1.0;0.75;0.5;-0.249023;0.027832;0.978516;-0.91;-1.12;0.84;363.0;-0.174456;-0.037853
3.14;9.25;7.5;6.0;4.25;1.0;0.75;0.25;0.25;1.75;0.5;0.5;0.5;0.0;0.75;0.0;0.25;-0.226562;0.014648;0.98877;-0.63;0.77;0.49;384.0;-0.251633;-0.007247;6.0;6.75;3.75;4.25;1.25;1.5;0.5;0.75;2.0;1.25;0.75;0.5;0.5;1.0;1.0;0.5;-0.253906;0.02832;0.974121;-0.77;-1.05;0.77;372.0;-0.167708;-0.038925
3.15;9.25;7.5;6.0;4.25;1.0;0.5;0.25;0.25;2.0;0.5;0.5;0.5;0.0;0.5;0.25;0.25;-0.225098;0.022949;0.989258;-0.56;0.63;0.56;385.0;-0.246784;-0.004255;6.0;6.5;3.75;4.25;1.25;1.75;0.25;0.5;2.25;1.25;0.75;0.5;0.5;1.0;1.0;0.5;-0.25;0.032715;0.970703;-0.91;-1.05;0.77;368.0;-0.166289;-0.036055
3.16;9.0;7.5;6.0;4.25;1.0;0.5;0.25;0.25;2.0;0.5;0.75;0.5;0.25;0.5;0.25;0.25;-0.217773;0.026855;0.981934;-0.63;0.7;0.56;388.0;-0.239628;-0.00868;6.0;6.5;3.75;4.25;1.5;1.5;0.5;0.5;2.0;1.0;1.0;0.5;0.75;1.25;1.0;0.5;-0.255371;0.03125;0.97168;-0.84;-0.98;0.77;373.0;-0.161767;-0.036012
3.17;9.25;7.0;6.0;4.5;1.0;0.5;0.25;0.0;1.75;0.5;0.75;0.5;0.0;0.5;0.25;0.5;-0.222656;0.022949;0.97998;-0.56;0.77;0.63;380.0;-0.246231;-0.00427;6.0;6.75;3.75;4.25;1.5;1.25;0.5;0.5;2.0;0.75;0.75;0.5;0.5;0.75;1.0;0.25;-0.258301;0.028809;0.973633;-0.84;-1.12;0.77;358.0;-0.181711;-0.033939
3.18;9.25;7.25;6.25;4.5;1.0;0.5;0.25;0.0;1.75;0.5;0.75;0.5;0.0;0.75;0.25;0.5;-0.221191;0.021484;0.983887;-0.63;0.91;0.49;388.0;-0.243547;-0.003497;6.25;6.75;4.0;4.25;1.5;1.5;0.5;0.5;2.25;0.75;1.0;0.5;0.5;1.0;0.75;0.5;-0.252441;0.031738;0.973145;-0.84;-1.12;0.84;374.0;-0.175217;-0.030861
3.19;9.0;7.5;6.25;4.25;1.0;0.75;0.25;0.25;2.0;0.5;0.75;0.5;0.0;0.75;0.25;0.5;-0.220703;0.020996;0.98291;-0.56;0.7;0.56;395.0;-0.235527;-0.007263;6.25;6.75;4.0;4.25;1.5;1.75;0.5;0.5;2.0;1.25;1.25;0.5;0.5;1.25;0.5;0.25;-0.255859;0.03125;0.971191;-0.91;-1.26;0.84;380.0;-0.172757;-0.032086
3.2;8.75;7.5;6.0;4.25;1.0;0.75;0.25;0.25;1.75;0.5;0.75;0.5;0.0;0.5;0.25;0.5;-0.22168;0.021484;0.98584;-0.56;0.63;0.56;383.0;-0.242562;-0.012634;7.0;6.5;4.0;4.25;1.5;1.75;0.5;0.5;2.0;1.0;1.25;0.5;0.5;1.25;0.5;0.25;-0.254883;0.02832;0.976562;-0.84;-1.12;0.77;383.0;-0.17932;-0.028796
3.21;9.25;7.0;6.25;4.0;1.0;0.75;0.25;0.25;2.0;0.5;0.75;0.5;0.0;0.75;0.25;0.5;-0.226562;0.022461;0.983887;-0.7;0.77;0.56;390.0;-0.234003;-0.002695;6.5;6.75;4.0;4.25;1.25;1.75;0.5;0.75;2.0;0.75;0.75;0.25;0.5;1.25;0.75;0.25;-0.258789;0.027344;0.977539;-0.91;-1.12;0.77;373.0;-0.184;-0.03431
3.22;9.25;7.25;6.0;4.0;1.0;0.75;0.25;0.25;2.0;0.5;1.0;0.25;0.0;0.75;0.25;0.5;-0.223145;0.021484;0.981934;-0.7;0.7;0.49;389.0;-0.23484;-0.003134;6.25;6.75;4.0;4.25;1.5;1.25;0.5;0.5;2.0;0.75;1.0;0.25;0.5;1.0;0.5;0.25;-0.255371;0.02832;0.977051;-0.84;-0.91;0.7;361.0;-0.18959;-0.028205
3.23;9.0;7.5;5.5;4.25;1.0;0.75;0.25;0.25;1.75;0.5;0.75;0.25;0.0;0.25;0.0;0.25;-0.220215;0.022461;0.990723;-0.63;0.56;0.56;371.0;-0.258465;-0.010633;6.25;6.75;4.25;4.25;1.5;1.5;0.5;0.5;2.0;0.75;1.0;0.5;0.5;0.75;0.5;0.25;-0.249023;0.030273;0.967285;-0.91;-1.12;0.84;367.0;-0.190598;-0.032613
3.24;9.0;7.5;5.75;4.25;1.0;0.75;0.25;0.25;1.75;0.5;0.75;0.5;0.0;0.25;0.25;0.25;-0.217773;0.020508;0.986816;-0.63;0.7;0.56;379.0;-0.249938;-0.012536;6.5;6.75;4.0;4.25;1.25;1.5;0.5;0.5;2.0;1.0;1.0;0.5;0.5;1.0;0.75;0.5;-0.255859;0.031738;0.979492;-0.91;-0.91;0.77;373.0;-0.178316;-0.032745
3.25;9.0;7.25;6.0;4.25;1.0;0.75;0.25;0.0;2.0;0.75;0.5;0.5;0.0;0.75;0.25;0.25;-0.219238;0.022949;0.986816;-0.7;0.77;0.56;384.0;-0.238733;-0.000301;6.5;6.75;4.0;4.25;1.25;1.25;0.5;0.5;2.0;1.0;0.75;0.5;0.5;0.75;1.0;0.5;-0.255371;0.027344;0.975098;-0.98;-1.05;0.77;368.0;-0.180831;-0.03187
3.26;9.25;7.5;6.25;4.25;1.0;0.75;0.25;0.0;2.0;0.5;0.75;0.25;0.0;0.5;0.0;0.25;-0.216309;0.023926;0.985352;-0.63;0.77;0.63;384.0;-0.25352;0.000543;6.5;6.5;4.0;4.25;1.5;1.25;0.25;0.5;2.0;1.0;1.0;0.25;0.5;1.0;0.75;0.5;-0.252441;0.026367;0.974609;-0.91;-0.98;0.84;364.0;-0.182433;-0.030116
3.27;9.0;7.5;5.75;4.5;1.0;0.75;0.25;0.25;1.75;0.25;0.75;0.25;0.0;0.5;0.25;0.25;-0.221191;0.02002;0.985352;-0.63;0.7;0.49;379.0;-0.253346;-0.01147;6.75;7.0;4.0;4.25;1.5;1.5;0.25;0.5;2.0;1.0;1.0;0.25;0.25;0.75;0.75;0.5;-0.253418;0.032227;0.977051;-1.05;-0.98;0.77;370.0;-0.193038;-0.031415
3.28;8.75;7.5;5.75;4.0;1.0;0.75;0.25;0.25;1.75;0.5;0.75;0.5;0.0;0.75;0.25;0.25;-0.225098;0.026855;0.988281;-0.7;0.84;0.49;378.0;-0.240361;-0.009426;6.5;7.25;4.0;4.25;1.25;1.5;0.25;0.5;2.25;1.0;1.0;0.5;0.25;0.5;0.75;0.5;-0.254883;0.030273;0.972656;-0.91;-0.98;0.7;371.0;-0.189837;-0.034565
3.29;9.0;7.5;5.75;4.0;1.0;0.75;0.25;0.25;2.0;0.5;0.75;0.25;0.0;0.75;0.25;0.5;-0.220215;0.02002;0.989746;-0.56;0.77;0.63;383.0;-0.237986;-0.004927;6.25;7.0;3.75;4.25;1.25;1.5;0.25;0.5;2.25;0.75;1.0;0.5;0.5;0.75;0.75;0.5;-0.255371;0.021973;0.979004;-1.05;-0.91;0.63;364.0;-0.183175;-0.03798
3.3;8.5;7.5;5.75;4.25;1.0;0.75;0.25;0.0;2.0;0.5;0.75;0.25;0.0;0.75;0.0;0.5;-0.216797;0.018555;0.984375;-0.42;0.77;0.49;374.0;-0.243348;-0.003512;6.5;7.0;4.0;4.25;1.25;1.25;0.25;0.5;2.0;0.75;1.0;0.5;0.25;1.0;0.5;0.5;-0.257812;0.026855;0.973633;-1.12;-1.05;0.63;361.0;-0.19337;-0.032409
3.31;8.75;7.5;6.0;4.0;1.0;0.75;0.25;0.0;2.0;0.5;0.75;0.5;0.25;0.75;0.25;0.5;-0.226074;0.018555;0.994629;-0.63;0.77;0.56;385.0;-0.233587;-0.005805;6.75;7.0;4.5;4.25;1.25;1.5;0.25;0.5;2.0;1.0;1.25;0.5;0.25;1.25;0.75;0.5;-0.256836;0.027832;0.975586;-1.12;-1.05;0.84;384.0;-0.181248;-0.030307
3.32;9.0;7.5;6.0;4.25;1.0;0.75;0.25;0.25;1.75;0.5;0.5;0.5;0.25;1.0;0.25;0.25;-0.221191;0.024902;0.987305;-0.56;0.77;0.63;389.0;-0.239159;-0.01029;7.0;7.0;4.25;4.25;1.25;1.5;0.25;0.5;2.0;0.75;1.0;0.25;0.5;1.0;0.75;0.25;-0.256348;0.030762;0.974609;-1.19;-1.05;0.7;373.0;-0.195212;-0.031131
3.33;9.0;7.25;5.75;4.25;1.0;0.75;0.25;0.0;1.75;0.5;0.5;0.5;0.0;1.0;0.25;0.25;-0.227051;0.020508;0.98584;-0.56;0.84;0.56;377.0;-0.242817;-0.003019;6.75;7.25;4.25;4.25;1.25;1.5;0.25;0.5;2.0;0.75;1.0;0.25;0.25;0.75;1.0;0.25;-0.254883;0.028809;0.976074;-1.12;-1.05;0.7;371.0;-0.196588;-0.032084
3.34;8.75;7.5;6.0;4.0;1.0;0.75;0.25;0.0;1.75;0.5;0.75;0.25;0.0;1.25;0.0;0.25;-0.22168;0.022461;0.985352;-0.63;0.63;0.63;376.0;-0.243412;0.000668;7.0;7.5;4.0;4.25;1.5;1.5;0.25;0.5;2.0;1.0;0.75;0.5;0.25;0.75;0.75;0.5;-0.253906;0.025391;0.974121;-1.19;-1.05;0.7;378.0;-0.197699;-0.033538
3.35;8.75;7.5;6.0;4.25;1.0;1.0;0.25;0.25;2.0;0.5;0.75;0.25;0.0;1.25;0.0;0.25;-0.226074;0.024902;0.98584;-0.49;0.77;0.56;390.0;-0.236001;-0.004836;7.0;7.5;4.0;4.25;1.25;1.5;0.25;0.5;2.0;1.0;0.75;0.5;0.25;0.75;0.5;0.25;-0.254883;0.031738;0.970215;-1.12;-0.98;0.7;371.0;-0.205197;-0.032811
3.36;9.0;7.5;6.0;4.25;1.0;0.75;0.25;0.0;2.0;0.25;0.75;0.5;0.0;1.25;0.0;0.25;-0.217285;0.026855;0.983398;-0.63;0.7;0.49;385.0;-0.240477;-0.000437;7.75;7.5;4.0;4.25;1.25;1.5;0.25;0.5;2.0;0.75;1.0;0.5;0.25;0.75;0.5;0.25;-0.255859;0.022949;0.969727;-1.05;-1.05;0.84;379.0;-0.209719;-0.030991
3.37;9.0;7.5;6.0;4.0;1.0;0.75;0.25;0.0;2.0;0.5;0.75;0.5;0.25;0.5;0.25;0.25;-0.228027;0.022461;0.986328;-0.63;0.84;0.56;384.0;-0.241043;-0.004881;7.75;7.5;4.0;4.25;1.25;1.5;0.25;0.5;2.0;0.75;1.25;0.25;0.25;1.0;0.75;0.25;-0.255371;0.033691;0.969238;-1.05;-1.05;0.84;384.0;-0.201253;-0.028758
3.38;9.0;7.5;6.0;4.25;1.0;0.5;0.25;0.0;1.75;0.25;1.0;0.5;0.0;0.5;0.5;0.25;-0.226074;0.018555;0.984863;-0.63;0.84;0.63;381.0;-0.244518;-0.006248;7.5;7.75;4.0;4.5;1.25;1.5;0.5;0.5;1.75;1.0;0.5;0.25;0.25;0.75;0.75;0.25;-0.254883;0.022461;0.969238;-1.05;-1.05;0.84;379.0;-0.213222;-0.030757
3.39;9.0;7.0;6.0;4.25;1.0;0.5;0.25;0.0;1.75;0.25;0.75;0.5;0.0;0.75;0.5;0.25;-0.219238;0.021973;0.992676;-0.63;0.77;0.49;375.0;-0.241725;-0.002124;7.25;7.75;4.0;4.5;1.5;1.5;0.25;0.5;2.0;0.75;0.25;0.25;0.25;0.75;0.75;0.0;-0.256348;0.025391;0.975586;-0.98;-0.98;0.84;372.0;-0.218929;-0.030111
3.4;9.0;7.5;5.75;4.25;1.0;0.5;0.25;0.0;1.75;0.5;0.75;0.5;0.0;0.75;0.25;0.25;-0.224121;0.021484;0.98584;-0.63;0.63;0.56;377.0;-0.245174;-0.00395;7.5;7.75;4.25;4.25;1.5;1.5;0.25;0.75;1.75;1.0;0.25;0.5;0.25;0.75;0.75;0.25;-0.256836;0.029297;0.976074;-0.98;-1.12;0.84;383.0;-0.213442;-0.035787
3.41;9.0;7.5;6.0;4.25;1.0;0.5;0.25;0.0;1.75;0.5;0.25;0.75;0.25;0.75;0.0;0.5;-0.224121;0.021973;0.990234;-0.49;0.56;0.63;378.0;-0.248996;-0.007199;8.0;8.0;4.25;4.5;1.5;1.5;0.25;0.5;1.5;1.0;0.5;0.25;0.25;0.75;0.75;0.25;-0.255859;0.027344;0.972656;-1.05;-0.98;0.77;386.0;-0.224547;-0.033672
3.42;9.25;7.5;6.25;4.25;1.0;0.75;0.25;0.0;2.0;0.5;0.25;0.25;0.0;1.0;0.25;0.25;-0.220215;0.02002;0.98584;-0.63;0.7;0.56;386.0;-0.247706;0.003784;7.75;8.0;4.25;4.25;1.25;1.5;0.25;0.5;1.75;1.0;0.5;0.25;0.25;0.75;1.0;0.25;-0.25293;0.029785;0.978516;-0.98;-0.98;0.7;384.0;-0.214307;-0.031463
3.43;9.0;7.25;6.25;4.25;1.0;0.5;0.25;0.0;1.75;0.5;0.5;0.25;0.0;0.25;0.25;0.25;-0.226074;0.019043;0.993652;-0.63;0.56;0.63;370.0;-0.259768;-0.00045;7.5;8.0;4.5;4.5;1.25;1.5;0.25;0.5;2.0;1.0;0.5;0.25;0.25;0.75;0.75;0.25;-0.253418;0.024414;0.969238;-0.91;-0.98;0.84;388.0;-0.214153;-0.029837
3.44;8.75;7.25;6.25;4.25;1.0;0.5;0.25;0.0;1.75;0.5;0.25;0.5;0.0;0.25;0.25;0.25;-0.221191;0.019043;0.989746;-0.7;0.7;0.56;367.0;-0.258765;-0.002712;7.75;7.75;4.5;4.5;1.5;1.5;0.25;0.5;2.0;0.75;0.5;0.25;0.25;0.75;0.75;0.25;-0.255859;0.026367;0.972168;-0.91;-0.91;0.84;388.0;-0.216859;-0.027922
3.45;8.75;7.0;6.0;4.25;1.0;0.5;0.25;0.0;1.75;0.25;0.5;0.5;0.0;0.75;0.25;0.25;-0.220215;0.018066;0.988281;-0.63;0.77;0.49;366.0;-0.249206;-0.001467;7.5;8.0;4.5;4.5;1.5;1.5;0.25;0.5;1.75;0.75;0.5;0.25;0.25;1.0;0.75;0.5;-0.251953;0.029785;0.977051;-1.05;-0.98;0.77;388.0;-0.215189;-0.032464
3.46;9.0;7.25;6.0;4.25;1.0;0.5;0.25;0.25;1.75;0.25;0.5;0.5;0.25;1.25;0.0;0.25;-0.225098;0.019531;0.991211;-0.56;0.7;0.56;380.0;-0.243146;-0.006066;8.0;8.5;4.5;4.5;1.25;1.25;0.25;0.5;2.0;0.75;0.5;0.25;0.25;0.75;0.5;0.5;-0.255859;0.028809;0.971191;-0.98;-1.05;0.77;391.0;-0.225655;-0.029111
3.47;9.25;7.5;6.0;4.25;1.0;0.5;0.25;0.25;1.75;0.5;0.5;0.5;0.25;0.5;0.25;0.25;-0.218262;0.018555;0.992188;-0.56;0.63;0.63;384.0;-0.248917;-0.009651;8.0;8.5;4.5;4.5;1.25;1.25;0.25;0.5;1.5;0.75;0.5;0.5;0.25;0.75;0.5;0.25;-0.256348;0.025879;0.972168;-1.05;-0.98;0.77;385.0;-0.233606;-0.035644
3.48;9.25;6.25;6.25;4.25;1.0;0.5;0.25;0.0;1.75;0.25;0.5;0.5;0.0;0.25;0.25;0.25;-0.224121;0.024902;0.986816;-0.63;0.77;0.49;363.0;-0.256723;0.002154;8.0;8.0;4.25;4.5;1.25;1.25;0.25;0.5;2.0;0.75;0.5;0.5;0.25;0.75;0.5;0.25;-0.253418;0.026855;0.971191;-0.91;-0.98;0.84;384.0;-0.221835;-0.029156
3.49;9.0;7.5;6.0;4.25;1.0;0.5;0.25;0.0;1.75;0.25;0.5;0.5;0.0;0.25;0.25;0.25;-0.229004;0.024414;0.988281;-0.63;0.7;0.49;370.0;-0.26098;-0.005118;8.0;8.5;4.5;4.5;1.25;1.25;0.25;0.5;1.75;0.75;0.5;0.5;0.25;0.75;0.5;0.25;-0.257812;0.028809;0.970703;-0.91;-0.98;0.7;389.0;-0.2291;-0.032794
3.5;9.0;7.5;6.0;4.0;1.0;0.5;0.25;0.25;1.5;0.25;0.5;0.5;0.0;0.25;0.25;0.25;-0.223145;0.017578;0.990234;-0.63;0.63;0.56;367.0;-0.262983;-0.010429;7.5;8.0;4.25;4.5;1.5;1.25;0.25;0.5;1.75;0.25;1.0;0.5;0.25;0.75;0.75;0.5;-0.251465;0.029785;0.979004;-0.84;-1.05;0.7;383.0;-0.216067;-0.037503
3.51;9.0;7.5;6.0;4.25;1.0;0.5;0.25;0.25;2.0;0.25;0.5;0.5;0.25;0.5;0.5;0.25;-0.228516;0.027832;0.987305;-0.7;0.63;0.56;385.0;-0.241812;-0.008967;8.0;8.25;4.25;4.5;1.5;1.25;0.25;0.5;2.0;0.25;0.75;0.5;0.5;0.75;0.5;0.5;-0.253906;0.029297;0.967773;-0.84;-1.05;0.7;391.0;-0.221233;-0.035015
3.52;9.0;7.75;6.0;4.25;1.0;0.5;0.25;0.25;2.0;0.5;0.5;0.5;0.25;0.25;0.5;0.5;-0.21875;0.022461;0.987793;-0.56;0.63;0.63;389.0;-0.241034;-0.011724;8.0;8.5;5.0;4.25;1.5;1.25;0.25;0.5;2.0;0.25;0.5;0.5;0.25;0.75;0.5;0.5;-0.255859;0.029785;0.972168;-0.84;-1.05;0.77;394.0;-0.228579;-0.028392
3.53;9.0;7.5;6.0;4.25;1.0;0.5;0.25;0.25;2.0;0.5;0.5;0.5;0.25;0.25;0.5;0.25;-0.227051;0.019531;0.989746;-0.56;0.49;0.56;385.0;-0.242197;-0.009554;8.0;8.0;4.25;4.25;1.5;1.25;0.25;0.5;1.75;0.25;0.25;0.25;0.25;1.0;0.75;0.5;-0.257812;0.029785;0.969727;-0.91;-0.98;0.77;376.0;-0.227775;-0.028711
3.54;9.0;7.5;5.75;4.25;1.0;0.5;0.25;0.25;1.75;0.25;0.5;0.5;0.25;0.75;0.5;0.25;-0.223145;0.023438;0.988281;-0.63;0.56;0.49;381.0;-0.242313;-0.011277;7.75;8.5;4.25;4.5;1.5;1.25;0.25;0.5;1.75;0.5;0.5;0.25;0.25;0.75;0.75;0.5;-0.259277;0.027832;0.976074;-0.91;-0.98;0.77;385.0;-0.226456;-0.034263
3.55;9.0;7.5;5.75;4.25;0.75;0.75;0.25;0.25;1.75;0.25;0.5;0.25;0.25;0.75;0.25;0.25;-0.228516;0.025391;0.991211;-0.56;0.7;0.63;375.0;-0.250974;-0.011205;8.0;8.5;4.0;4.5;1.25;1.25;0.25;0.5;1.75;0.75;0.5;0.5;0.25;0.75;0.75;0.5;-0.252441;0.030762;0.974121;-0.84;-0.91;0.84;387.0;-0.221557;-0.036157
3.56;9.0;7.5;6.0;4.5;1.0;0.5;0.25;0.25;1.5;0.5;0.75;0.25;0.0;0.75;0.25;0.25;-0.217285;0.020508;0.993652;-0.49;0.56;0.63;381.0;-0.251275;-0.009589;8.0;7.75;4.0;4.5;1.25;1.25;0.25;0.5;1.75;0.75;0.5;0.5;0.25;0.75;0.5;0.5;-0.251953;0.026855;0.970215;-0.77;-0.98;0.77;377.0;-0.222428;-0.033198
3.57;8.75;7.75;6.0;4.25;1.0;0.5;0.25;0.25;2.0;0.5;0.75;0.5;0.0;0.5;0.25;0.25;-0.221191;0.023926;0.985352;-0.56;0.63;0.42;385.0;-0.242085;-0.007805;7.5;7.75;4.0;4.5;1.25;1.25;0.25;0.5;2.0;0.75;0.5;0.25;0.25;0.75;0.5;0.25;-0.250488;0.025879;0.96875;-0.77;-0.98;0.7;370.0;-0.220729;-0.029234
3.58;9.0;7.5;6.0;4.25;1.0;0.5;0.25;0.25;1.75;0.5;0.75;0.5;0.0;0.5;0.25;0.25;-0.219727;0.018066;0.987793;-0.7;0.63;0.56;382.0;-0.246796;-0.008538;7.5;8.0;4.25;4.5;1.25;1.25;0.25;0.5;1.75;0.75;0.5;0.25;0.25;0.75;0.5;0.25;-0.253418;0.02832;0.969727;-0.84;-0.98;0.7;372.0;-0.227006;-0.032106
3.59;9.0;7.5;6.25;4.25;1.0;0.5;0.25;0.25;1.75;0.25;1.0;0.25;0.0;0.75;0.25;0.25;-0.220215;0.021973;0.987305;-0.63;0.49;0.56;384.0;-0.246465;-0.005817;8.0;8.0;4.0;4.25;1.25;1.25;0.25;0.5;1.75;0.75;0.5;0.5;0.25;0.75;0.5;0.25;-0.257812;0.030273;0.975586;-0.84;-0.98;0.77;375.0;-0.225517;-0.03145
3.6;9.25;7.5;6.0;4.5;1.0;0.5;0.25;0.25;1.75;0.5;0.75;0.25;0.0;0.5;0.25;0.25;-0.225586;0.022949;0.983887;-0.7;0.7;0.56;385.0;-0.251679;-0.007209;8.0;7.75;4.0;4.25;1.5;1.25;0.25;0.25;1.75;0.75;0.5;0.5;0.25;1.0;0.5;0.25;-0.255859;0.026855;0.970215;-0.84;-1.05;0.7;373.0;-0.221832;-0.024478
3.61;9.5;7.5;6.0;4.25;1.0;0.5;0.25;0.25;2.0;0.5;1.0;0.5;0.25;0.75;0.5;0.25;-0.223145;0.022949;0.985352;-0.49;0.56;0.56;401.0;-0.230227;-0.007234;7.5;8.0;4.0;4.25;1.25;1.25;0.25;0.5;1.75;0.75;0.5;0.25;0.5;1.0;0.75;0.5;-0.257324;0.029297;0.977051;-0.91;-1.05;0.7;375.0;-0.212598;-0.034443
3.62;9.25;7.5;6.0;4.25;1.0;0.5;0.25;0.25;2.0;0.5;0.75;0.5;0.0;0.5;0.5;0.25;-0.223633;0.026367;0.987305;-0.56;0.63;0.56;391.0;-0.238531;-0.005642;7.0;8.0;4.0;4.25;1.25;1.0;0.25;0.5;1.75;0.75;0.5;0.25;0.25;0.75;0.75;0.25;-0.250977;0.029297;0.970215;-0.77;-0.91;0.7;360.0;-0.218979;-0.032154
3.63;9.25;7.5;6.0;4.0;1.0;0.5;0.25;0.25;1.5;0.5;0.75;0.5;0.0;0.25;0.25;0.25;-0.21582;0.023438;0.981934;-0.56;0.49;0.56;376.0;-0.256511;-0.009771;7.75;8.0;4.0;4.5;1.25;1.25;0.25;0.5;2.0;0.75;0.5;0.5;0.25;0.75;0.75;0.25;-0.251953;0.027832;0.96875;-0.91;-1.05;0.77;381.0;-0.215409;-0.031526
3.64;9.25;7.5;6.0;4.5;1.0;0.75;0.25;0.25;2.0;0.5;0.5;0.5;0.0;0.5;0.25;0.25;-0.221191;0.023438;0.980957;-0.63;0.56;0.56;391.0;-0.246377;-0.007987;8.0;8.0;4.0;4.5;1.5;1.25;0.25;0.5;2.0;1.0;0.75;0.25;0.25;1.0;1.0;0.25;-0.251953;0.023438;0.975586;-0.84;-0.91;0.7;395.0;-0.204484;-0.026951
3.65;9.0;7.5;6.25;4.25;1.0;0.75;0.25;0.25;2.0;0.5;0.5;0.5;0.0;0.5;0.25;0.25;-0.219727;0.018555;0.989258;-0.56;0.42;0.63;389.0;-0.245067;-0.006401;7.5;7.75;4.0;4.5;1.5;1.5;0.25;0.5;1.5;0.5;0.25;0.25;0.25;1.0;0.75;0.25;-0.25293;0.026367;0.971191;-0.84;-1.05;0.7;369.0;-0.226805;-0.035508
3.66;9.0;7.5;6.25;4.5;1.0;0.75;0.25;0.25;2.0;0.5;0.75;0.5;0.0;0.5;0.25;0.25;-0.225586;0.019043;0.988281;-0.56;0.7;0.42;394.0;-0.241975;-0.008855;7.5;8.0;4.25;4.25;1.25;1.25;0.25;0.5;1.5;0.5;0.5;0.25;0.25;0.75;0.75;0.25;-0.253906;0.031738;0.970215;-0.84;-0.91;0.77;366.0;-0.229895;-0.034661
3.67;9.25;7.25;6.0;4.5;1.0;0.75;0.25;0.25;1.75;0.5;0.5;0.25;0.25;0.75;0.25;0.25;-0.22168;0.020996;0.987305;-0.42;0.84;0.63;387.0;-0.246824;-0.009068;7.5;8.25;4.25;4.5;1.25;1.25;0.25;0.5;2.0;0.5;0.5;0.25;0.25;1.0;0.75;0.25;-0.256836;0.023926;0.97168;-0.77;-0.98;0.77;381.0;-0.218532;-0.029929
3.68;9.0;7.5;6.25;4.5;1.0;0.5;0.25;0.25;1.75;0.75;0.5;0.25;0.0;0.75;0.25;0.25;-0.22168;0.018555;0.981934;-0.35;0.63;0.56;387.0;-0.246614;-0.004864;7.75;8.0;4.25;4.5;1.25;1.5;0.25;0.5;2.0;1.0;0.75;0.25;0.25;0.75;0.5;0.25;-0.255859;0.020996;0.976074;-0.84;-0.98;0.7;387.0;-0.216482;-0.03001
3.69;9.25;7.5;6.25;4.25;1.0;0.5;0.25;0.25;1.5;0.75;0.5;0.5;0.25;0.75;0.25;0.25;-0.222656;0.024902;0.985352;-0.35;0.7;0.49;389.0;-0.246169;-0.009831;7.75;8.0;4.0;4.5;1.25;1.25;0.25;0.5;2.0;0.75;0.5;0.5;0.25;0.75;0.5;0.25;-0.255859;0.024902;0.970215;-0.77;-1.05;0.7;379.0;-0.220127;-0.031142
3.7;9.0;7.5;6.25;4.5;1.0;0.5;0.25;0.0;1.75;0.75;0.75;0.5;0.25;1.0;0.5;0.25;-0.22168;0.024902;0.984863;-0.49;0.77;0.49;396.0;-0.231292;-0.005919;7.5;8.0;4.0;4.5;1.25;1.25;0.25;0.5;2.0;0.5;0.5;0.25;0.25;0.75;0.5;0.25;-0.252441;0.026367;0.975586;-0.91;-1.05;0.77;370.0;-0.225607;-0.030882
3.71;9.0;7.5;6.25;4.75;1.0;0.5;0.25;0.0;1.75;0.75;0.5;0.5;0.25;1.25;0.5;0.25;-0.219238;0.022949;0.990234;-0.42;0.7;0.49;399.0;-0.231246;-0.005708;7.25;7.75;4.0;4.5;1.25;1.25;0.25;0.5;2.0;0.75;0.5;0.25;0.25;0.75;0.5;0.25;-0.254883;0.025879;0.975586;-0.77;-0.98;0.7;367.0;-0.219323;-0.030297
3.72;9.0;7.5;6.25;4.25;1.0;1.0;0.25;0.25;1.75;0.75;0.5;0.25;0.25;1.25;0.5;0.25;-0.224121;0.021973;0.987793;-0.49;0.77;0.42;400.0;-0.23012;-0.008324;7.25;7.5;4.0;4.25;1.25;1.25;0.25;0.5;2.0;0.75;0.5;0.25;0.5;0.75;0.75;0.25;-0.254883;0.028809;0.977051;-0.84;-0.91;0.77;367.0;-0.210024;-0.030947
3.73;9.25;7.5;6.25;4.25;1.0;0.75;0.25;0.0;1.75;0.75;0.75;0.25;0.25;1.5;0.5;0.25;-0.220703;0.019531;0.981445;-0.56;0.77;0.56;401.0;-0.227208;-0.001243;8.0;7.5;4.0;4.25;1.25;1.5;0.25;0.5;1.75;0.75;0.75;0.25;0.25;1.0;0.75;0.25;-0.255859;0.027344;0.970703;-0.77;-0.91;0.77;378.0;-0.213564;-0.029277
3.74;9.0;7.5;6.25;4.5;1.0;0.5;0.25;0.0;1.75;0.5;0.75;0.25;0.25;1.5;0.5;0.25;-0.222656;0.023926;0.992188;-0.56;0.77;0.49;395.0;-0.230331;-0.002151;7.0;7.5;4.25;4.25;1.25;1.25;0.25;0.5;1.5;0.75;0.25;0.25;0.25;1.25;0.75;0.5;-0.257324;0.02832;0.968262;-0.7;-0.91;0.77;361.0;-0.213798;-0.032069
3.75;8.75;7.5;6.25;4.25;1.0;0.5;0.25;0.0;1.75;0.5;0.5;0.5;0.25;1.5;0.5;0.25;-0.220215;0.02002;0.98584;-0.42;0.7;0.63;390.0;-0.228734;-0.002581;7.25;7.75;4.25;4.25;1.0;1.0;0.25;0.5;1.75;0.75;0.25;0.25;0.25;1.0;0.75;0.25;-0.250977;0.027344;0.966797;-0.77;-0.98;0.7;360.0;-0.219681;-0.027843
3.76;9.25;7.5;6.0;4.5;1.0;0.75;0.25;0.0;1.5;0.5;0.75;0.5;0.0;1.5;0.5;0.5;-0.222656;0.013184;0.988281;-0.49;0.63;0.63;397.0;-0.232073;-0.007157;7.75;7.75;4.0;4.25;1.0;1.0;0.25;0.5;2.0;0.75;0.5;0.25;0.25;1.0;0.75;0.25;-0.253906;0.029785;0.978516;-0.7;-0.98;0.77;369.0;-0.214055;-0.024471
3.77;9.0;7.5;6.0;4.25;1.0;0.75;0.25;0.0;2.0;0.75;0.5;0.5;0.0;1.75;0.5;0.5;-0.222656;0.018555;0.98291;-0.35;0.56;0.63;400.0;-0.217893;0.00104;7.5;7.75;4.0;4.25;1.25;1.25;0.25;0.5;2.0;0.5;0.75;0.25;0.25;1.0;0.75;0.5;-0.25293;0.025391;0.979492;-0.84;-0.91;0.7;374.0;-0.209233;-0.029283
3.78;9.5;7.5;6.25;4.25;1.0;0.5;0.25;0.0;2.0;0.75;0.5;0.25;0.0;1.75;0.5;0.25;-0.223145;0.027344;0.98584;-0.7;0.77;0.49;402.0;-0.226551;0.008551;7.25;7.75;4.25;4.5;1.5;1.25;0.25;0.5;1.5;0.75;0.75;0.5;0.25;1.25;0.75;0.5;-0.251953;0.022461;0.974609;-0.77;-1.05;0.77;381.0;-0.206633;-0.035943
3.79;9.0;7.75;6.25;4.25;1.0;0.5;0.25;0.0;1.75;0.5;0.5;0.5;0.0;1.75;0.5;0.25;-0.223145;0.019531;0.981445;-0.63;0.7;0.49;395.0;-0.229788;0.00097;7.25;7.75;4.25;4.5;1.5;1.25;0.25;0.5;1.5;0.75;0.5;0.5;0.25;1.0;0.75;0.5;-0.253418;0.025391;0.974609;-0.84;-1.12;0.77;376.0;-0.213748;-0.036654
3.8;9.0;7.5;6.25;4.25;1.0;0.5;0.25;0.0;1.75;0.25;0.5;0.5;0.0;1.75;0.5;0.25;-0.225098;0.02002;0.986816;-0.63;0.56;0.63;389.0;-0.232011;0.001592;7.0;7.0;4.0;4.25;1.5;1.25;0.25;0.5;2.0;0.75;0.5;0.25;0.25;0.75;0.75;0.25;-0.254395;0.030273;0.975586;-0.77;-1.05;0.84;360.0;-0.207387;-0.026566
3.81;9.5;7.75;6.25;4.25;1.0;0.5;0.25;0.25;1.5;0.5;0.5;0.5;0.0;1.75;0.5;0.25;-0.229492;0.022461;0.98291;-0.63;0.7;0.42;401.0;-0.234314;-0.004021;7.0;7.5;4.25;4.25;1.25;1.25;0.25;0.5;1.75;0.5;0.5;0.25;0.25;0.75;0.75;0.25;-0.254395;0.025879;0.960449;-0.84;-0.98;0.77;359.0;-0.219684;-0.031996
3.82;9.25;7.5;6.25;4.5;1.0;0.75;0.25;0.25;1.75;0.5;0.5;0.5;0.25;1.75;0.75;0.25;-0.222656;0.022461;0.986816;-0.63;0.84;0.49;411.0;-0.220751;-0.00811;7.75;8.0;4.25;4.25;1.5;1.25;0.25;0.5;2.0;0.5;0.25;0.25;0.25;0.75;0.75;0.25;-0.251465;0.022949;0.981445;-0.77;-0.98;0.77;376.0;-0.224579;-0.026315
3.83;9.0;7.5;6.25;4.5;1.0;0.75;0.25;0.25;1.5;0.5;0.25;0.5;0.0;1.75;0.75;0.25;-0.224609;0.020996;0.98877;-0.7;0.84;0.49;399.0;-0.22924;-0.008023;7.75;7.75;4.0;4.5;1.25;1.25;0.25;0.5;1.5;0.25;0.25;0.5;0.25;0.75;1.0;0.25;-0.256348;0.026855;0.972168;-0.84;-1.05;0.77;366.0;-0.228891;-0.037795
3.84;9.5;7.5;6.25;4.5;1.0;0.5;0.25;0.25;1.5;0.5;0.25;0.5;0.0;1.25;0.5;0.25;-0.22168;0.020508;0.98291;-0.63;0.84;0.63;394.0;-0.244514;-0.005994;8.0;7.75;4.25;4.5;1.25;1.25;0.25;0.5;1.5;0.25;0.5;0.5;0.25;0.75;0.5;0.25;-0.253906;0.025879;0.97168;-0.84;-1.05;0.84;369.0;-0.236894;-0.035536
3.85;9.0;7.5;6.25;4.25;1.0;0.5;0.25;0.25;1.5;0.5;0.5;0.25;0.0;1.25;0.75;0.25;-0.21875;0.020508;0.983887;-0.7;0.7;0.56;388.0;-0.236954;-0.005198;8.0;8.0;4.0;4.5;1.25;1.25;0.25;0.5;1.5;0.25;0.5;0.5;0.5;0.75;0.5;0.5;-0.253418;0.025391;0.974609;-0.77;-1.05;0.84;372.0;-0.23293;-0.041243
3.86;9.0;7.5;6.75;4.25;1.0;0.75;0.25;0.0;1.5;0.5;0.5;0.25;0.0;1.25;0.5;0.25;-0.225586;0.024902;0.98877;-0.77;0.77;0.56;390.0;-0.243884;-0.001073;8.0;8.25;4.0;4.5;1.25;1.25;0.25;0.5;2.0;0.25;0.75;0.5;0.25;0.75;0.5;0.25;-0.257812;0.025879;0.975586;-0.84;-1.05;0.84;381.0;-0.226309;-0.033049
3.87;9.5;7.5;6.25;4.75;1.0;0.75;0.25;0.0;1.5;0.5;0.5;0.25;0.0;1.5;0.5;0.25;-0.223145;0.029785;0.988281;-0.77;0.91;0.49;398.0;-0.24265;-0.003222;8.0;8.0;4.0;4.5;1.25;1.25;0.25;0.5;1.75;0.25;0.75;0.25;0.25;0.75;0.5;0.25;-0.249512;0.02832;0.970215;-0.77;-0.91;0.84;372.0;-0.233032;-0.033068
3.88;9.25;7.5;6.25;4.25;1.0;1.0;0.25;0.0;1.5;0.5;0.75;0.0;0.25;0.5;0.5;0.25;-0.229004;0.018066;0.993164;-0.77;0.84;0.56;385.0;-0.253244;-0.008486;8.0;8.0;4.5;4.5;1.0;1.25;0.25;0.5;1.75;0.75;0.5;0.25;0.25;0.75;0.75;0.25;-0.248535;0.026855;0.979492;-0.84;-0.98;0.7;381.0;-0.225958;-0.030152
3.89;9.0;7.5;6.0;4.5;1.0;0.75;0.25;0.0;1.75;0.5;0.75;0.25;0.0;0.25;0.75;0.25;-0.221191;0.022949;0.987793;-0.7;0.63;0.56;384.0;-0.246561;-0.008189;7.75;7.75;4.0;4.25;1.25;1.25;0.25;0.5;1.75;0.75;0.5;0.5;0.25;0.75;0.25;0.25;-0.251953;0.030273;0.974121;-0.84;-0.98;0.84;367.0;-0.227782;-0.031211
3.9;9.0;7.5;6.0;4.5;1.0;0.75;0.25;0.25;2.0;0.5;0.75;0.25;0.0;0.75;0.5;0.25;-0.219238;0.020508;0.988281;-0.84;0.7;0.56;394.0;-0.236505;-0.006948;7.5;8.0;4.0;4.25;1.5;1.25;0.25;0.5;1.5;0.75;0.5;0.25;0.25;0.75;0.25;0.25;-0.251465;0.027832;0.973145;-0.77;-1.05;0.84;363.0;-0.23512;-0.033386
3.91;9.25;7.5;6.25;4.5;1.0;0.75;0.25;0.25;2.0;0.5;0.75;0.5;0.25;0.75;0.5;0.25;-0.224121;0.020996;0.985352;-0.77;0.7;0.42;405.0;-0.232357;-0.010115;8.0;8.25;4.0;4.25;1.5;1.25;0.25;0.5;1.5;0.75;0.5;0.25;0.25;0.75;0.5;0.25;-0.249023;0.024414;0.980957;-0.84;-0.98;0.7;374.0;-0.233961;-0.032501
3.92;9.0;7.5;6.0;4.25;1.0;0.75;0.25;0.25;2.25;0.5;0.75;0.25;0.25;0.5;0.25;0.25;-0.228027;0.020508;0.98291;-0.77;0.7;0.63;391.0;-0.237735;-0.005988;8.0;8.5;4.0;4.25;1.25;1.25;0.25;0.5;1.5;0.25;0.75;0.5;0.25;0.75;0.25;0.25;-0.256348;0.028809;0.975586;-0.77;-0.98;0.77;371.0;-0.24133;-0.037956
3.93;9.25;7.5;6.0;4.5;1.0;0.75;0.25;0.25;2.0;0.5;0.5;0.25;0.0;0.75;0.25;0.25;-0.219238;0.021484;0.992676;-0.7;0.7;0.63;391.0;-0.245822;-0.004761;7.5;8.25;4.25;4.5;1.25;1.25;0.25;0.5;1.5;0.5;0.75;0.25;0.25;0.75;0.25;0.25;-0.254395;0.030762;0.976562;-0.98;-0.98;0.7;368.0;-0.238024;-0.037
3.94;9.25;7.5;6.0;4.5;1.0;0.75;0.25;0.25;1.5;0.5;0.5;0.5;0.0;0.75;0.25;0.25;-0.220215;0.019043;0.983398;-0.63;0.7;0.56;387.0;-0.251724;-0.012096;8.0;8.25;4.25;4.5;1.25;1.25;0.25;0.5;1.75;0.75;0.75;0.25;0.25;0.75;0.25;0.25;-0.254395;0.022461;0.977539;-0.84;-0.91;0.77;380.0;-0.232261;-0.03115
3.95;9.25;7.5;6.25;4.5;1.0;0.75;0.25;0.25;1.5;0.5;0.75;0.25;0.0;1.0;0.25;0.25;-0.221191;0.020508;0.991211;-0.63;0.56;0.56;392.0;-0.247799;-0.008853;8.0;7.75;4.25;4.5;1.0;1.25;0.25;0.5;1.75;0.25;0.75;0.5;0.25;0.75;0.5;0.25;-0.24707;0.023926;0.976074;-0.98;-0.98;0.77;372.0;-0.229503;-0.033959
3.96;9.25;7.5;6.25;4.25;1.0;0.75;0.25;0.25;1.5;0.5;0.5;0.25;0.0;1.0;0.25;0.25;-0.225586;0.022461;0.990234;-0.63;0.7;0.56;386.0;-0.251;-0.006382;8.0;8.0;4.5;4.25;1.25;1.5;0.25;0.5;1.5;0.25;0.75;0.5;0.25;0.75;0.5;0.25;-0.257812;0.025391;0.970703;-0.84;-0.91;0.77;377.0;-0.233748;-0.036375
3.97;9.25;7.0;6.0;4.25;1.0;0.75;0.25;0.0;1.75;0.5;0.5;0.25;0.0;1.0;0.25;0.25;-0.216797;0.023438;0.987305;-0.56;0.7;0.56;377.0;-0.246494;0.001892;7.5;8.0;4.5;4.5;1.25;1.25;0.25;0.5;1.5;0.5;0.75;0.5;0.25;0.75;0.5;0.25;-0.25293;0.02832;0.970215;-0.91;-0.98;0.77;375.0;-0.228668;-0.037439
3.98;9.5;7.5;6.25;4.25;1.0;0.75;0.25;0.25;1.75;0.5;0.75;0.25;0.0;1.0;0.25;0.25;-0.219238;0.018066;0.990234;-0.63;0.7;0.56;395.0;-0.244048;-0.00381;7.5;8.25;4.25;4.5;1.5;1.25;0.25;0.5;1.5;0.75;0.75;0.25;0.25;1.0;0.75;0.5;-0.251465;0.026367;0.972656;-0.91;-0.98;0.77;384.0;-0.217708;-0.035927
3.99;9.0;7.75;6.25;4.25;1.0;0.5;0.25;0.25;1.75;0.5;1.0;0.5;0.0;0.75;0.25;0.25;-0.223145;0.022461;0.988281;-0.7;0.63;0.63;393.0;-0.240689;-0.008471;8.0;8.5;4.25;4.5;1.5;1.25;0.25;0.25;1.5;0.75;0.75;0.25;0.25;0.75;0.5;0.25;-0.251465;0.029297;0.974609;-1.05;-1.05;0.77;381.0;-0.234813;-0.030625
4.0;9.0;7.75;6.0;4.25;1.0;0.5;0.25;0.25;2.0;0.5;0.75;0.5;0.25;1.0;0.25;0.25;-0.220215;0.020508;0.982422;-0.7;0.7;0.56;395.0;-0.233091;-0.007494;7.75;8.5;4.5;4.5;1.25;1.25;0.25;0.5;1.5;0.5;0.5;0.5;0.25;0.75;0.5;0.25;-0.257324;0.025391;0.976562;-0.91;-1.05;0.77;380.0;-0.23589;-0.037466
4.01;9.25;7.5;6.0;4.5;1.0;0.5;0.25;0.25;2.0;0.5;0.75;0.5;0.25;0.75;0.25;0.25;-0.214355;0.023438;0.982422;-0.7;0.63;0.63;396.0;-0.237337;-0.008385;8.0;8.25;4.25;4.5;1.0;1.25;0.25;0.5;1.5;0.5;0.5;0.5;0.25;0.75;0.5;0.25;-0.255859;0.029785;0.974121;-0.84;-0.98;0.77;374.0;-0.236584;-0.037319
4.02;9.25;7.5;6.25;4.5;1.0;0.75;0.25;0.25;1.75;0.5;0.75;0.25;0.0;0.75;0.25;0.25;-0.225098;0.025879;0.991699;-0.63;0.7;0.49;393.0;-0.247111;-0.007379;8.0;8.5;4.5;4.5;1.25;1.25;0.25;0.5;1.25;0.75;0.5;0.25;0.25;0.75;0.5;0.25;-0.255371;0.029297;0.970703;-1.05;-1.05;0.7;379.0;-0.241598;-0.036592
4.03;9.0;7.5;6.25;4.25;1.0;0.5;0.25;0.25;1.75;0.5;1.0;0.25;0.25;0.75;0.25;0.5;-0.221191;0.025391;0.986816;-0.56;0.7;0.63;391.0;-0.238123;-0.009221;8.0;8.5;4.5;4.5;1.0;1.25;0.25;0.5;1.25;0.75;0.5;0.25;0.25;0.5;0.5;0.25;-0.25293;0.033203;0.974121;-0.98;-0.98;0.77;374.0;-0.246597;-0.03871
4.04;9.0;7.5;6.0;4.25;1.0;0.5;0.25;0.25;1.75;0.5;0.5;0.25;0.25;0.75;0.25;0.5;-0.222168;0.026855;0.97998;-0.63;0.63;0.56;382.0;-0.244849;-0.008411;8.0;8.5;4.5;4.25;1.25;1.25;0.25;0.5;1.5;0.25;0.25;0.25;0.25;0.5;0.5;0.25;-0.249512;0.03125;0.972656;-1.05;-1.05;0.84;369.0;-0.251574;-0.034327
4.05;9.0;7.5;6.25;4.5;0.75;0.5;0.25;0.25;1.75;0.25;0.5;0.25;0.0;1.25;0.25;0.5;-0.222168;0.020508;0.986328;-0.63;0.63;0.63;385.0;-0.244464;-0.005382;7.75;8.5;4.5;4.25;1.25;1.5;0.25;0.5;1.5;0.25;0.5;0.25;0.25;0.5;0.5;0.5;-0.253418;0.025879;0.972168;-0.91;-0.91;0.77;373.0;-0.24354;-0.039049
4.06;9.0;7.5;6.25;4.25;1.0;0.75;0.25;0.0;1.75;0.25;0.5;0.25;0.0;0.75;0.25;0.25;-0.225098;0.025879;0.98291;-0.63;0.56;0.56;377.0;-0.255464;-0.001997;8.0;8.5;4.25;4.5;1.25;1.25;0.25;0.5;1.25;0.5;0.5;0.25;0.25;0.5;0.75;0.5;-0.254395;0.027344;0.972656;-0.98;-1.05;0.7;375.0;-0.241766;-0.041146
4.07;9.0;7.5;6.25;4.25;1.0;0.75;0.25;0.0;1.75;0.5;0.5;0.5;0.0;0.75;0.25;0.0;-0.222656;0.024902;0.988281;-0.63;0.56;0.56;382.0;-0.250655;-0.002515;7.75;8.5;4.25;4.25;1.25;1.25;0.25;0.5;1.25;0.5;0.5;0.25;0.25;0.75;0.5;0.5;-0.252441;0.022949;0.976562;-0.98;-1.05;0.77;369.0;-0.241082;-0.039106
4.08;9.25;7.5;6.0;4.25;1.0;0.5;0.25;0.25;1.75;0.25;0.5;0.5;0.25;1.0;0.25;0.25;-0.219238;0.025879;0.98877;-0.56;0.56;0.63;386.0;-0.244564;-0.007939;8.25;8.5;4.5;4.25;1.0;1.25;0.25;0.5;1.25;0.75;0.5;0.25;0.25;0.75;0.25;0.25;-0.250977;0.024414;0.96875;-0.91;-1.05;0.77;373.0;-0.248383;-0.034412
4.09;9.25;7.75;6.25;4.25;1.0;0.5;0.25;0.25;2.0;0.25;0.75;0.5;0.25;1.25;0.25;0.25;-0.222168;0.024902;0.991699;-0.56;0.63;0.56;400.0;-0.234159;-0.005367;8.0;8.5;4.5;4.25;1.25;1.25;0.25;0.5;1.5;0.75;0.5;0.5;0.25;0.75;0.25;0.25;-0.252441;0.028809;0.976562;-0.91;-1.05;0.77;379.0;-0.238023;-0.033798
4.1;9.0;7.75;6.0;4.5;1.0;0.5;0.25;0.25;2.0;0.5;0.75;0.5;0.25;0.75;0.25;0.25;-0.219238;0.023438;0.989258;-0.63;0.7;0.56;396.0;-0.237292;-0.010228;8.0;8.5;4.5;4.25;1.25;1.25;0.25;0.5;1.5;0.75;0.5;0.5;0.25;0.75;0.5;0.25;-0.250977;0.024414;0.977051;-0.98;-0.98;0.7;382.0;-0.233182;-0.03416
4.11;9.0;7.5;6.25;4.5;1.25;0.5;0.25;0.0;1.75;0.5;0.75;0.5;0.25;0.5;0.0;0.25;-0.223145;0.021484;0.987305;-0.56;0.7;0.49;386.0;-0.251163;-0.006987;8.0;8.5;4.5;4.25;1.5;1.25;0.25;0.5;1.5;0.75;0.5;0.25;0.25;0.75;0.5;0.25;-0.258789;0.023438;0.976562;-0.91;-0.98;0.77;382.0;-0.235668;-0.03144
4.12;9.25;7.5;6.25;4.5;1.0;0.5;0.25;0.0;1.75;0.25;0.75;0.25;0.25;0.5;0.25;0.0;-0.218262;0.022949;0.986328;-0.63;0.63;0.56;382.0;-0.257843;-0.004386;7.75;8.5;4.5;4.5;1.5;1.25;0.25;0.5;1.5;0.75;0.5;0.25;0.25;0.75;0.75;0.25;-0.25293;0.026367;0.970215;-0.91;-0.98;0.77;385.0;-0.230058;-0.034351
