Time;left pressure 1[N/cm²];left pressure 2[N/cm²];left pressure 3[N/cm²];left pressure 4[N/cm²];left pressure 5[N/cm²];left pressure 6[N/cm²];left pressure 7[N/cm²];left pressure 8[N/cm²];left pressure 9[N/cm²];left pressure 10[N/cm²];left pressure 11[N/cm²];left pressure 12[N/cm²];left pressure 13[N/cm²];left pressure 14[N/cm²];left pressure 15[N/cm²];left pressure 16[N/cm²];left acceleration X[g];left acceleration Y[g];left acceleration Z[g];left angular X[dps];left angular Y[dps];left angular Z[dps];left total force[N];left center of pressure X[-0.5...+0.5];left center of pressure Y[-0.5...+0.5];right pressure 1[N/cm²];right pressure 2[N/cm²];right pressure 3[N/cm²];right pressure 4[N/cm²];right pressure 5[N/cm²];right pressure 6[N/cm²];right pressure 7[N/cm²];right pressure 8[N/cm²];right pressure 9[N/cm²];right pressure 10[N/cm²];right pressure 11[N/cm²];right pressure 12[N/cm²];right pressure 13[N/cm²];right pressure 14[N/cm²];right pressure 15[N/cm²];right pressure 16[N/cm²];right acceleration X[g];right acceleration Y[g];right acceleration Z[g];right angular X[dps];right angular Y[dps];right angular Z[dps];right total force[N];right center of pressure X[-0.5...+0.5];right center of pressure Y[-0.5...+0.5]
0.0;2.25;1.75;2.0;1.5;2.25;1.75;0.25;1.0;1.0;0.5;0.25;0.5;1.5;2.0;0.25;0.5;-0.180176;0.024902;0.992188;-0.56;0.49;0.49;221.0;-0.074655;-0.061982;1.5;2.5;2.0;2.25;2.25;3.0;0.25;1.75;1.0;0.75;1.25;1.5;2.5;1.25;0.75;0.75;-0.210938;0.030762;0.981445;-0.77;-0.91;0.56;292.0;-0.047871;-0.129867
0.01;2.25;1.75;2.0;1.5;2.25;1.75;0.25;1.0;1.0;0.5;0.25;0.5;1.5;2.0;0.25;0.5;-0.180176;0.024902;0.992188;-0.56;0.49;0.49;221.0;-0.074655;-0.061982;1.5;2.5;1.75;2.0;2.5;2.75;0.25;1.75;1.0;1.0;1.25;1.5;2.5;1.25;0.5;0.75;-0.220215;0.033691;0.987793;-0.84;-0.91;0.56;286.0;-0.044465;-0.126268
0.02;2.25;1.75;2.0;1.5;2.25;1.75;0.25;1.0;1.0;0.5;0.25;0.5;1.5;2.0;0.25;0.5;-0.180176;0.024902;0.992188;-0.56;0.49;0.49;221.0;-0.074655;-0.061982;1.5;2.5;1.75;2.0;2.5;2.75;0.25;1.75;1.0;1.0;1.25;1.5;2.5;1.25;0.5;1.0;-0.217773;0.038086;0.983887;-0.7;-0.91;0.56;288.0;-0.042382;-0.127231
0.03;2.25;1.75;2.25;1.5;2.25;1.25;0.25;1.0;1.0;0.25;0.25;0.5;1.5;2.0;0.25;0.5;-0.180664;0.025879;0.997559;-0.56;0.49;0.49;215.0;-0.079373;-0.055677;1.5;2.5;1.75;1.75;2.5;3.0;0.25;1.75;1.0;0.75;1.25;1.5;2.5;1.5;0.25;0.75;-0.220215;0.036133;0.985352;-0.7;-0.91;0.49;283.0;-0.046717;-0.126628
0.04;2.5;1.5;2.25;1.5;2.25;1.25;0.25;0.75;0.75;0.25;0.25;0.75;1.75;1.5;0.0;0.5;-0.186035;0.027832;0.998047;-0.7;0.63;0.56;206.0;-0.097897;-0.063899;1.25;2.75;2.0;1.75;2.25;3.0;0.25;1.75;0.75;0.75;1.25;1.5;2.5;1.25;0.25;1.0;-0.221191;0.039062;0.983887;-0.7;-0.84;0.56;278.0;-0.053564;-0.137734
0.05;2.5;1.75;2.0;1.5;2.25;1.25;0.25;0.75;0.75;0.25;0.5;0.75;1.75;1.75;0.25;0.5;-0.181641;0.029297;0.997559;-0.7;0.49;0.63;213.0;-0.082571;-0.065612;1.5;2.5;2.0;2.0;2.25;3.0;0.0;1.75;0.75;0.75;1.25;1.5;2.5;1.5;0.25;0.75;-0.220703;0.03418;0.984863;-0.77;-0.91;0.56;278.0;-0.056647;-0.137972
0.06;2.5;1.75;2.25;1.5;2.25;1.25;0.25;1.0;1.0;0.25;0.5;0.75;1.5;2.0;0.25;0.5;-0.178711;0.025879;0.997559;-0.7;0.56;0.49;224.0;-0.075864;-0.057455;1.25;2.25;2.0;2.0;2.5;3.0;0.0;1.75;1.0;1.0;1.25;1.5;2.75;1.5;0.25;0.5;-0.222656;0.032715;0.984863;-0.77;-0.77;0.56;283.0;-0.044063;-0.132613
0.07;2.25;1.5;2.0;1.5;2.25;1.25;0.25;0.75;1.0;0.25;0.25;0.5;1.75;2.0;0.25;0.5;-0.182129;0.030273;0.98877;-0.63;0.56;0.49;208.0;-0.071085;-0.054333;1.25;2.25;2.0;2.0;2.5;3.0;0.0;1.75;0.75;0.75;1.25;1.75;2.75;1.75;0.25;0.75;-0.215332;0.036133;0.985352;-0.77;-0.91;0.63;283.0;-0.042289;-0.13978
0.08;2.5;1.5;2.0;1.5;2.25;1.5;0.25;0.75;1.0;0.25;0.25;0.5;1.75;2.0;0.25;0.5;-0.183594;0.03125;0.995117;-0.63;0.56;0.56;214.0;-0.076606;-0.055214;1.25;2.5;2.0;1.75;2.25;3.0;0.0;1.75;0.75;0.75;1.25;1.5;2.75;1.75;0.25;0.75;-0.220215;0.036133;0.985352;-0.7;-0.91;0.49;277.0;-0.044748;-0.139659
0.09;2.25;1.75;2.25;1.5;2.25;1.5;0.25;0.75;1.0;0.25;0.25;0.25;1.75;1.75;0.25;0.5;-0.183105;0.026855;0.994629;-0.56;0.49;0.49;211.0;-0.088272;-0.055927;1.5;2.5;2.0;2.0;2.25;2.75;0.0;1.75;0.75;0.5;1.25;1.75;2.5;1.5;0.25;0.75;-0.221191;0.036621;0.983887;-0.77;-0.91;0.63;275.0;-0.055909;-0.140246
0.1;2.25;1.75;2.0;1.75;2.25;1.25;0.25;0.75;1.0;0.25;0.25;0.5;1.75;1.75;0.25;0.5;-0.182617;0.026367;0.996094;-0.56;0.56;0.49;211.0;-0.083594;-0.060636;1.5;2.25;2.0;2.25;2.5;2.75;0.0;1.75;0.75;0.5;1.25;1.75;2.75;1.75;0.25;0.75;-0.222656;0.035645;0.985352;-0.7;-0.84;0.56;283.0;-0.050171;-0.138844
0.11;2.5;1.5;2.0;1.5;2.25;1.25;0.25;0.75;1.0;0.25;0.25;0.5;1.75;1.75;0.0;0.5;-0.183105;0.026367;1.0;-0.56;0.49;0.63;206.0;-0.087782;-0.054318;1.25;2.5;1.75;2.25;2.5;3.0;0.0;1.75;0.75;0.5;1.25;1.75;2.75;1.75;0.25;0.75;-0.221191;0.03418;0.98584;-0.7;-0.91;0.56;283.0;-0.048656;-0.145433
0.12;2.5;1.75;2.0;1.5;2.25;1.25;0.25;0.75;1.0;0.25;0.25;0.5;1.5;2.0;0.25;0.5;-0.186035;0.032227;0.998047;-0.49;0.35;0.56;211.0;-0.082346;-0.048937;1.25;2.5;2.0;2.25;2.25;3.0;0.0;1.75;0.75;0.75;1.25;1.75;2.75;1.75;0.25;0.5;-0.224609;0.035645;0.992188;-0.7;-0.84;0.56;284.0;-0.049414;-0.14213
0.13;2.5;1.75;2.0;1.5;2.25;1.5;0.25;0.75;0.75;0.25;0.25;0.5;1.5;2.0;0.25;0.5;-0.181152;0.026855;1.001465;-0.63;0.63;0.49;210.0;-0.089089;-0.057595;1.25;2.0;2.0;2.0;2.25;3.0;0.0;1.75;0.75;0.75;1.5;1.75;2.75;1.75;0.25;1.0;-0.223145;0.039062;0.987793;-0.77;-0.77;0.63;282.0;-0.033231;-0.142352
0.14;2.5;1.75;2.0;1.75;2.25;1.5;0.25;0.75;1.0;0.5;0.25;0.75;1.75;2.0;0.25;0.5;-0.178223;0.02832;0.99707;-0.49;0.56;0.42;225.0;-0.075571;-0.060289;1.25;2.25;1.5;1.75;2.25;2.75;0.0;1.75;0.75;0.5;1.5;2.0;2.75;1.75;0.25;0.75;-0.216797;0.03418;0.98584;-0.77;-0.98;0.56;271.0;-0.029902;-0.148294
0.15;2.5;1.5;2.0;1.5;2.25;1.5;0.25;1.0;0.75;0.25;0.25;0.75;1.75;1.5;0.25;0.25;-0.180664;0.027344;0.997559;-0.63;0.56;0.42;211.0;-0.090906;-0.074015;1.25;2.25;1.75;2.0;2.25;3.0;0.0;1.75;0.75;0.5;1.25;2.0;2.5;1.25;0.0;1.0;-0.213867;0.036621;0.984863;-0.77;-0.91;0.56;269.0;-0.051429;-0.152671
0.16;2.25;1.75;2.0;1.5;2.25;1.5;0.25;1.0;0.75;0.0;0.25;0.75;1.75;1.75;0.25;0.5;-0.181641;0.026855;0.994629;-0.56;0.49;0.49;212.0;-0.086385;-0.078318;1.25;2.25;1.75;1.75;2.25;2.75;0.0;1.75;0.75;0.5;1.5;1.75;2.75;1.25;0.0;0.75;-0.214844;0.030762;0.981445;-0.77;-0.98;0.63;264.0;-0.047775;-0.150395
0.17;2.5;1.75;2.0;1.5;2.25;1.5;0.25;1.0;1.0;0.0;0.25;0.75;1.75;2.0;0.25;0.25;-0.182129;0.02832;0.993164;-0.56;0.49;0.49;219.0;-0.082612;-0.065845;1.25;2.75;1.75;2.0;2.0;3.0;0.0;1.75;0.75;0.5;1.25;1.5;2.75;1.5;0.25;0.5;-0.217773;0.036621;0.987305;-0.77;-0.98;0.49;270.0;-0.056695;-0.149601
0.18;2.5;1.75;2.0;1.5;2.25;1.5;0.25;1.0;0.75;0.25;0.25;0.5;1.75;2.0;0.25;0.0;-0.181641;0.027344;0.991699;-0.49;0.42;0.56;214.0;-0.090968;-0.064999;1.25;2.5;1.75;2.25;2.5;3.0;0.0;1.75;0.75;0.25;1.25;1.5;2.75;1.5;0.5;0.5;-0.220703;0.033691;0.988281;-0.91;-0.91;0.49;276.0;-0.055644;-0.147183
0.19;2.5;1.5;2.0;1.5;2.25;1.5;0.25;1.0;0.75;0.25;0.25;0.5;1.75;2.0;0.25;0.25;-0.178711;0.02832;0.99707;-0.63;0.56;0.49;213.0;-0.083977;-0.065531;1.25;2.5;1.75;2.0;2.5;3.0;0.0;1.75;1.0;0.25;1.25;1.5;2.5;1.25;0.5;0.75;-0.219727;0.033203;0.97998;-0.91;-0.84;0.56;274.0;-0.052687;-0.141769
0.2;2.5;1.5;2.0;1.5;2.25;1.5;0.25;1.0;1.0;0.0;0.25;0.25;1.75;2.0;0.25;0.25;-0.181152;0.031738;0.999023;-0.49;0.42;0.56;211.0;-0.086574;-0.058365;1.25;2.5;1.75;1.75;2.25;2.75;0.0;1.75;1.0;0.5;1.25;1.5;2.75;1.5;0.5;0.75;-0.212891;0.036133;0.984375;-0.84;-0.84;0.56;272.0;-0.039258;-0.139555
0.21;2.0;1.5;2.0;1.5;2.25;1.5;0.25;1.0;0.75;0.0;0.25;0.25;1.75;2.0;0.25;0.25;-0.181152;0.027344;0.990723;-0.56;0.42;0.42;202.0;-0.08377;-0.068961;1.25;2.25;1.75;2.0;2.25;2.75;0.0;1.75;0.75;0.5;1.25;1.5;2.75;1.25;0.25;0.75;-0.21875;0.036133;0.97998;-0.84;-0.91;0.56;264.0;-0.051313;-0.149294
0.22;2.25;1.5;2.0;1.5;2.25;1.5;0.25;0.75;0.5;0.0;0.25;0.5;1.75;1.75;0.25;0.25;-0.182129;0.028809;0.993652;-0.56;0.56;0.49;197.0;-0.097602;-0.072034;1.25;2.25;2.0;2.0;2.5;2.75;0.0;1.75;0.75;0.5;1.5;1.5;2.75;1.75;0.5;1.0;-0.21875;0.036621;0.983887;-0.77;-0.91;0.63;282.0;-0.037126;-0.138923
0.23;2.5;1.5;2.0;1.5;2.25;1.5;0.25;1.0;0.75;0.25;0.25;0.5;1.75;1.75;0.25;0.5;-0.181152;0.028809;0.996582;-0.49;0.42;0.56;212.0;-0.086311;-0.069923;1.25;2.25;1.75;2.0;2.5;3.0;0.0;1.75;0.75;0.5;1.25;2.0;2.5;1.25;0.25;0.5;-0.220215;0.03418;0.987305;-0.91;-0.91;0.63;272.0;-0.051886;-0.147816
0.24;2.0;1.75;2.0;1.5;2.25;1.5;0.25;1.0;0.5;0.25;0.25;0.5;1.75;1.75;0.5;0.5;-0.184082;0.028809;0.994141;-0.56;0.49;0.56;208.0;-0.080785;-0.082023;1.25;2.0;1.75;2.0;2.25;2.75;0.0;1.75;1.0;0.5;1.25;1.75;2.75;1.25;0.25;0.5;-0.218262;0.037598;0.984863;-0.84;-0.84;0.56;266.0;-0.043205;-0.144112
0.25;2.5;1.5;2.0;1.5;2.25;1.5;0.25;1.0;1.0;0.25;0.25;0.5;1.75;2.0;0.5;0.5;-0.180176;0.024414;0.995117;-0.63;0.63;0.49;221.0;-0.06911;-0.061907;1.25;2.0;1.75;1.75;2.0;2.75;0.0;1.75;0.75;0.5;1.25;1.5;2.75;1.25;0.25;0.75;-0.217773;0.03418;0.983398;-0.84;-0.77;0.56;255.0;-0.044066;-0.150714
0.26;2.5;1.75;2.0;1.5;2.25;1.5;0.25;1.0;1.0;0.25;0.25;0.25;1.75;2.0;0.5;0.5;-0.181152;0.029297;0.990723;-0.56;0.42;0.56;221.0;-0.076706;-0.060044;1.25;2.25;1.75;1.75;2.25;2.75;0.0;1.75;0.75;0.5;1.0;1.5;2.75;1.25;0.0;0.5;-0.212402;0.035156;0.987305;-0.84;-0.84;0.56;254.0;-0.059236;-0.148576
0.27;2.5;1.75;2.0;1.5;2.25;1.5;0.25;0.75;0.75;0.25;0.25;0.25;1.75;2.0;0.5;0.25;-0.182129;0.029297;0.987793;-0.56;0.56;0.49;211.0;-0.086674;-0.05739;1.25;2.5;2.0;1.75;2.25;2.75;0.0;1.75;0.75;0.5;1.0;1.75;2.5;1.5;0.0;0.5;-0.217773;0.038574;0.984375;-0.84;-0.91;0.49;262.0;-0.060008;-0.141888
0.28;2.5;1.5;2.0;1.5;2.25;1.5;0.25;0.75;0.75;0.25;0.25;0.5;1.75;2.0;0.25;0.25;-0.17627;0.02832;0.995117;-0.56;0.49;0.49;209.0;-0.085406;-0.059026;1.25;2.5;1.75;1.75;2.25;2.75;0.0;1.75;0.75;0.75;1.0;1.25;2.5;1.5;0.25;0.75;-0.221191;0.035156;0.986816;-0.77;-0.98;0.56;260.0;-0.052721;-0.139274
0.29;2.5;1.5;2.0;1.5;2.25;1.5;0.25;1.0;0.75;0.25;0.25;0.5;1.75;2.0;0.0;0.25;-0.185547;0.025391;0.996094;-0.56;0.49;0.56;210.0;-0.090684;-0.065304;1.25;2.5;1.75;1.75;2.25;2.75;0.0;1.75;0.75;0.75;1.25;1.5;2.75;1.5;0.25;0.75;-0.216797;0.032227;0.984863;-0.77;-0.91;0.49;269.0;-0.045004;-0.143526
0.3;2.25;1.5;2.0;1.75;2.25;1.5;0.25;1.0;0.75;0.25;0.25;0.5;1.75;2.0;0.0;0.25;-0.183105;0.025391;0.996582;-0.7;0.56;0.49;210.0;-0.089286;-0.069922;1.25;2.5;1.75;1.75;2.25;2.75;0.0;1.75;0.75;1.0;1.25;1.5;2.75;1.25;0.0;0.75;-0.217285;0.033203;0.987793;-0.77;-0.91;0.63;266.0;-0.050823;-0.144773
0.31;2.5;1.5;2.0;1.5;2.25;1.5;0.25;1.0;0.75;0.25;0.25;0.5;1.75;2.0;0.0;0.25;-0.182617;0.032715;0.993652;-0.49;0.49;0.56;210.0;-0.090684;-0.065304;1.25;2.0;1.75;1.5;2.25;2.75;0.0;1.75;0.75;0.5;1.25;1.25;2.75;1.5;0.0;0.75;-0.215332;0.036621;0.989258;-0.77;-0.84;0.63;252.0;-0.045952;-0.143407
0.32;2.5;1.75;2.0;1.5;2.25;1.5;0.25;1.0;1.0;0.0;0.25;0.5;1.75;1.75;0.25;0.25;-0.180664;0.029785;0.995117;-0.63;0.56;0.49;214.0;-0.091907;-0.065393;1.25;2.0;1.5;1.75;2.25;2.75;0.0;1.75;0.75;0.5;1.25;1.5;2.75;1.25;0.0;0.5;-0.216309;0.035156;0.984375;-0.84;-0.98;0.56;251.0;-0.04989;-0.150919
0.33;2.5;1.75;2.0;1.5;2.5;1.5;0.25;1.0;0.75;0.25;0.25;0.75;1.75;1.75;0.0;0.25;-0.184082;0.030273;0.995117;-0.63;0.42;0.63;216.0;-0.096382;-0.0704;1.25;2.0;1.0;1.75;2.25;3.0;0.0;1.75;0.75;0.75;1.25;1.5;2.75;1.25;0.25;0.75;-0.21582;0.036133;0.98584;-0.84;-0.84;0.56;255.0;-0.035164;-0.155865
0.34;2.5;1.75;2.0;1.5;2.25;1.75;0.25;1.0;0.75;0.25;0.0;0.5;1.75;2.0;0.0;0.25;-0.177246;0.027832;0.995605;-0.63;0.49;0.56;213.0;-0.099663;-0.06872;1.25;2.0;1.75;2.0;2.25;2.75;0.0;1.75;0.75;0.5;1.25;1.25;2.75;1.25;0.25;0.75;-0.217773;0.033203;0.985352;-0.91;-0.91;0.56;258.0;-0.050645;-0.147502
0.35;2.5;1.5;2.0;1.75;2.25;1.5;0.25;1.0;0.5;0.25;0.25;0.5;1.75;2.0;0.25;0.5;-0.180176;0.024414;0.999023;-0.56;0.56;0.56;214.0;-0.089445;-0.075165;1.25;2.0;1.75;1.75;2.0;2.75;0.0;1.75;0.75;0.5;1.5;1.25;2.75;1.25;0.25;0.75;-0.223633;0.034668;0.983398;-0.84;-0.84;0.49;255.0;-0.043888;-0.148693
0.36;2.5;1.75;2.0;1.5;2.25;1.5;0.25;1.0;0.5;0.25;0.25;0.75;1.75;1.75;0.25;0.5;-0.186523;0.026855;0.997559;-0.7;0.49;0.56;214.0;-0.09196;-0.079849;1.25;2.25;1.75;1.75;2.0;2.75;0.0;1.75;0.5;0.5;1.25;1.5;2.75;1.25;0.25;0.75;-0.224609;0.033691;0.980469;-0.84;-0.91;0.63;254.0;-0.051983;-0.156845
0.37;2.25;1.75;2.0;1.5;2.25;1.5;0.25;1.0;0.5;0.25;0.25;0.75;1.75;1.75;0.25;0.5;-0.180664;0.027832;0.998535;-0.63;0.56;0.49;211.0;-0.08779;-0.082377;1.25;2.0;1.75;1.75;2.0;2.75;0.0;1.75;0.5;0.75;1.0;1.5;2.75;2.0;0.0;0.75;-0.225586;0.035156;0.982422;-0.84;-0.84;0.56;256.0;-0.04075;-0.146492
0.38;2.5;1.75;2.0;1.5;2.25;1.5;0.25;0.75;0.5;0.25;0.25;0.5;1.75;1.75;0.25;0.25;-0.179688;0.028809;0.99707;-0.56;0.42;0.49;205.0;-0.101047;-0.068818;1.25;2.0;1.75;1.75;2.0;2.75;0.0;1.75;0.75;0.75;1.25;1.25;2.75;1.5;0.25;0.75;-0.218262;0.031738;0.98584;-0.84;-0.91;0.63;258.0;-0.039632;-0.143772
0.39;2.5;1.75;2.0;1.5;2.5;1.5;0.25;1.0;0.75;0.0;0.25;0.5;1.75;1.75;0.25;0.5;-0.181641;0.026855;0.999023;-0.56;0.42;0.49;215.0;-0.095054;-0.070989;1.5;2.25;1.75;1.75;2.0;2.5;0.0;1.75;0.75;0.75;1.25;1.25;2.75;1.0;0.25;0.5;-0.217773;0.03418;0.984863;-0.84;-0.91;0.49;254.0;-0.056711;-0.144555
0.4;2.25;1.75;2.25;1.5;2.5;1.5;0.25;1.0;0.5;0.25;0.25;0.75;1.75;1.75;0.25;0.5;-0.179688;0.029785;0.999512;-0.56;0.42;0.49;217.0;-0.090803;-0.077982;1.25;2.25;1.75;1.75;2.25;2.75;0.0;1.75;0.75;0.75;1.25;1.25;2.75;1.25;0.25;1.0;-0.219238;0.036133;0.98584;-0.91;-0.91;0.56;262.0;-0.04598;-0.145442
0.41;2.25;1.75;2.5;1.5;2.5;1.75;0.25;1.0;0.75;0.25;0.25;0.75;1.75;2.0;0.25;0.5;-0.17627;0.022949;0.99707;-0.56;0.42;0.63;229.0;-0.083407;-0.070196;1.25;2.25;1.75;1.75;2.5;2.75;0.0;1.75;0.75;0.75;1.25;1.25;2.75;1.25;0.25;0.5;-0.218262;0.031738;0.981445;-0.84;-0.91;0.63;262.0;-0.05147;-0.141183
0.42;2.25;1.75;2.0;1.75;2.25;1.75;0.25;0.75;0.5;0.25;0.25;0.5;1.75;2.0;0.25;0.5;-0.178223;0.026367;0.993652;-0.42;0.56;0.56;212.0;-0.09154;-0.075258;1.25;2.5;1.75;1.75;2.25;3.0;0.0;1.75;0.5;0.75;1.0;1.25;2.75;1.25;0.25;0.5;-0.221191;0.036621;0.986328;-0.91;-0.84;0.56;258.0;-0.062666;-0.151325
0.43;2.5;1.75;2.0;1.75;2.25;1.75;0.25;0.75;0.5;0.25;0.0;0.5;1.75;1.75;0.25;0.5;-0.174805;0.026367;0.999512;-0.42;0.49;0.56;210.0;-0.105634;-0.07502;1.25;2.5;1.75;1.75;2.25;2.5;0.0;1.75;0.5;0.75;1.0;1.25;2.75;0.75;0.25;0.5;-0.219727;0.035645;0.987305;-0.84;-0.98;0.56;248.0;-0.069423;-0.154569
0.44;2.5;1.75;2.25;1.5;2.5;1.75;0.25;1.0;0.75;0.25;0.0;0.5;1.75;1.75;0.25;0.5;-0.181641;0.03125;0.99707;-0.49;0.49;0.49;221.0;-0.098017;-0.069177;1.5;2.25;1.75;1.75;2.0;2.5;0.0;1.75;0.5;0.5;1.25;1.25;2.75;1.25;0.25;0.5;-0.217773;0.037598;0.987793;-0.91;-0.84;0.49;250.0;-0.060212;-0.149931
0.45;2.5;1.75;2.25;1.5;2.25;1.5;0.25;1.0;0.75;0.25;0.0;0.5;1.75;1.75;0.25;0.5;-0.182129;0.03125;0.995605;-0.49;0.35;0.49;215.0;-0.096887;-0.06818;1.25;2.0;1.75;1.75;2.0;2.5;0.0;1.75;0.75;0.5;1.25;1.5;2.75;1.5;0.25;0.5;-0.218262;0.030273;0.982422;-0.91;-0.84;0.56;253.0;-0.040971;-0.145318
0.46;2.5;1.5;2.5;2.0;2.25;1.5;0.25;1.0;0.75;0.25;0.25;0.5;2.0;1.75;0.25;0.5;-0.179199;0.028809;0.989746;-0.49;0.42;0.63;227.0;-0.093802;-0.073809;1.25;2.25;1.75;1.5;2.0;2.5;0.0;1.75;0.75;0.75;1.0;1.5;2.75;1.25;0.25;0.5;-0.217285;0.032227;0.987793;-0.91;-0.84;0.63;250.0;-0.04586;-0.14553
0.47;2.25;1.5;2.5;2.0;2.25;1.5;0.25;1.25;1.0;0.25;0.25;0.5;2.0;2.0;0.25;0.5;-0.180176;0.02832;0.997559;-0.42;0.49;0.56;234.0;-0.078224;-0.073859;1.25;2.5;1.75;1.75;2.0;2.5;0.0;1.75;0.75;0.5;1.0;1.25;2.75;1.0;0.5;0.5;-0.22168;0.03125;0.979492;-0.91;-1.05;0.7;251.0;-0.057703;-0.149607
0.48;2.25;1.75;2.25;2.0;2.25;1.5;0.25;1.0;1.0;0.0;0.25;0.5;2.0;1.75;0.25;0.25;-0.183105;0.024414;0.987793;-0.42;0.49;0.49;222.0;-0.092834;-0.07398;1.25;2.75;1.75;2.0;2.25;2.5;0.0;1.75;0.75;0.5;1.0;1.25;2.75;1.0;0.25;0.5;-0.21875;0.038086;0.983398;-0.91;-0.91;0.49;256.0;-0.069912;-0.148936
0.49;2.25;1.75;2.25;2.25;2.5;1.75;0.25;1.0;1.0;0.25;0.25;0.75;2.0;1.75;0.0;0.25;-0.180176;0.03125;0.991699;-0.42;0.42;0.49;234.0;-0.09487;-0.077656;1.25;2.75;1.75;1.75;2.25;2.75;0.0;1.75;0.75;0.5;1.25;1.25;2.75;1.0;0.25;0.5;-0.214355;0.031738;0.985352;-0.77;-0.91;0.56;259.0;-0.065075;-0.149115
0.5;2.5;1.5;2.25;2.0;2.25;1.75;0.25;1.0;1.0;0.25;0.5;0.75;2.0;2.0;0.0;0.25;-0.180664;0.024902;1.000977;-0.49;0.56;0.56;234.0;-0.083309;-0.072274;1.25;2.5;1.75;1.75;2.0;2.75;0.0;1.75;0.75;0.5;1.0;1.25;2.75;1.25;0.25;0.5;-0.216309;0.040039;0.983398;-0.84;-0.91;0.49;253.0;-0.05977;-0.148819
0.51;2.25;1.75;2.0;1.75;2.25;1.75;0.25;1.0;1.0;0.25;0.25;0.75;2.0;2.0;0.25;0.25;-0.182129;0.024902;0.996094;-0.56;0.56;0.56;227.0;-0.075589;-0.075298;1.25;2.0;1.75;1.75;2.0;2.75;0.0;1.75;0.75;0.5;1.25;1.25;2.75;1.5;0.25;0.5;-0.222656;0.033691;0.97998;-0.84;-0.98;0.56;253.0;-0.045112;-0.145111
0.52;2.25;1.75;2.0;1.75;2.25;1.75;0.25;1.0;1.0;0.25;0.25;0.5;2.0;2.0;0.25;0.25;-0.185547;0.026367;0.999023;-0.35;0.49;0.56;225.0;-0.079232;-0.072471;1.25;2.5;2.0;1.75;2.0;2.75;0.0;1.75;0.75;0.5;1.25;1.25;2.75;1.25;0.25;0.5;-0.216797;0.036621;0.981445;-0.84;-0.91;0.56;259.0;-0.059038;-0.145652
0.53;2.5;1.5;2.0;1.75;2.25;1.5;0.25;1.0;1.0;0.25;0.25;0.75;2.0;2.0;0.25;0.25;-0.174316;0.027832;0.998047;-0.42;0.63;0.56;225.0;-0.074875;-0.069347;1.5;2.75;1.75;1.75;2.0;2.75;0.0;1.75;0.75;0.5;1.0;1.25;2.75;1.25;0.0;0.5;-0.217285;0.031738;0.986328;-0.84;-1.05;0.63;256.0;-0.07233;-0.146885
0.54;2.25;1.75;2.0;1.75;2.25;1.75;0.25;1.0;1.0;0.5;0.25;0.5;2.0;2.0;0.25;0.5;-0.184082;0.028809;0.995605;-0.56;0.49;0.56;229.0;-0.072419;-0.072338;1.25;2.25;1.75;1.75;2.0;3.25;0.0;1.75;0.75;0.5;1.0;1.25;2.75;1.25;0.25;0.5;-0.220703;0.037109;0.984375;-0.91;-0.98;0.56;257.0;-0.058408;-0.151525
0.55;2.25;1.75;2.0;1.75;2.25;1.5;0.25;1.0;0.75;0.5;0.25;0.5;2.0;2.0;0.25;0.25;-0.180176;0.026367;1.000488;-0.42;0.63;0.56;221.0;-0.079569;-0.073633;1.25;2.0;1.5;1.75;2.0;2.75;0.0;1.75;0.75;0.5;1.0;1.25;2.75;1.25;0.25;0.75;-0.212891;0.035156;0.980469;-0.77;-0.98;0.63;247.0;-0.047407;-0.152398
0.56;2.25;1.75;2.25;1.75;2.25;1.5;0.25;1.0;0.75;0.5;0.0;0.5;2.0;2.0;0.25;0.25;-0.177246;0.033203;0.993652;-0.56;0.7;0.56;221.0;-0.086087;-0.070838;1.25;2.25;1.75;1.75;2.0;2.5;0.0;1.5;0.75;0.5;1.25;1.25;2.75;1.25;0.0;0.5;-0.213867;0.031738;0.981445;-0.77;-0.91;0.49;243.0;-0.057906;-0.143366
0.57;2.5;1.75;2.25;1.75;2.5;1.5;0.25;1.0;1.0;0.5;0.0;0.25;2.25;1.75;0.25;0.5;-0.177734;0.030273;0.995605;-0.49;0.63;0.49;229.0;-0.088416;-0.066776;1.25;2.25;2.0;1.75;2.0;2.25;0.0;1.5;0.75;0.5;1.25;1.25;2.75;1.5;0.25;0.5;-0.220215;0.036621;0.987793;-0.84;-1.05;0.56;249.0;-0.049566;-0.135264
0.58;2.5;1.75;2.25;1.75;2.5;1.75;0.25;1.0;1.0;0.5;0.25;0.5;2.25;2.0;0.25;0.5;-0.178711;0.027832;0.995605;-0.63;0.63;0.56;240.0;-0.077056;-0.070297;1.25;2.25;1.75;1.75;2.0;2.5;0.0;1.5;0.75;0.5;1.0;1.25;2.75;1.25;0.25;0.5;-0.216309;0.03125;0.985352;-0.77;-0.91;0.56;243.0;-0.055759;-0.142968
0.59;2.5;1.75;2.25;2.0;2.25;1.75;0.25;1.0;0.75;0.5;0.25;0.25;2.0;1.75;0.25;0.5;-0.183594;0.024902;0.995117;-0.7;0.56;0.56;229.0;-0.095481;-0.075083;1.5;2.25;1.75;1.75;2.0;2.5;0.0;1.75;0.75;0.5;1.0;1.25;2.75;1.5;0.25;0.5;-0.217285;0.034668;0.983398;-0.77;-0.98;0.63;253.0;-0.054629;-0.141306
0.6;2.25;1.75;2.25;1.5;2.5;1.75;0.25;1.0;0.75;0.25;0.25;0.25;1.75;2.0;0.0;0.5;-0.182617;0.033691;0.992676;-0.56;0.56;0.56;217.0;-0.09506;-0.066301;1.25;2.5;1.75;1.75;2.0;2.25;0.0;1.75;0.75;0.5;1.0;1.25;2.75;1.25;0.25;0.5;-0.216309;0.037109;0.989746;-0.77;-0.91;0.56;247.0;-0.057545;-0.145833
0.61;2.5;1.75;2.25;1.75;2.5;1.75;0.25;1.0;1.0;0.5;0.25;0.5;1.75;2.0;0.25;0.75;-0.181641;0.028809;0.989746;-0.56;0.56;0.63;237.0;-0.079225;-0.064039;1.25;2.5;1.75;1.75;2.0;2.5;0.0;1.75;0.5;0.5;0.75;1.25;2.75;1.25;0.25;0.75;-0.218262;0.033203;0.986328;-0.7;-0.91;0.56;245.0;-0.064055;-0.154862
0.62;2.5;2.0;2.0;1.75;2.5;1.5;0.25;1.0;0.75;0.25;0.0;0.75;2.0;2.0;0.25;0.75;-0.182617;0.029297;0.992676;-0.7;0.56;0.42;229.0;-0.086341;-0.077696;1.5;2.25;1.5;1.75;2.25;2.75;0.0;1.75;0.5;0.5;1.0;1.25;2.5;1.25;0.25;0.75;-0.218262;0.03418;0.981445;-0.91;-0.98;0.63;249.0;-0.06254;-0.150199
0.63;2.5;1.75;2.25;1.75;2.5;1.5;0.25;1.0;1.0;0.25;0.0;0.25;2.25;2.0;0.25;0.5;-0.177246;0.027344;0.992188;-0.49;0.42;0.56;229.0;-0.087417;-0.065918;1.25;2.25;1.75;1.75;2.25;2.75;0.0;1.75;0.5;0.5;1.0;1.5;2.75;1.25;0.25;0.75;-0.21582;0.033203;0.98291;-0.77;-0.98;0.56;254.0;-0.055971;-0.154733
0.64;2.5;1.75;2.0;1.75;2.5;1.75;0.25;1.0;1.0;0.5;0.25;0.25;2.25;1.75;0.25;0.5;-0.18457;0.028809;0.98877;-0.63;0.35;0.56;232.0;-0.083027;-0.072079;1.25;2.0;1.75;1.75;2.25;2.75;0.0;1.5;0.75;0.5;1.0;1.25;2.75;1.25;0.25;0.75;-0.21582;0.035156;0.983887;-0.84;-0.98;0.56;248.0;-0.051613;-0.142837
0.65;2.25;1.75;2.0;1.75;2.5;1.5;0.25;1.0;1.0;0.5;0.0;0.25;2.0;1.75;0.0;0.5;-0.180664;0.026855;0.996094;-0.7;0.35;0.42;218.0;-0.091163;-0.066771;1.25;2.25;1.75;1.75;2.0;2.5;0.0;1.75;0.5;0.5;1.0;1.25;2.5;1.25;0.25;0.75;-0.223145;0.034668;0.983887;-0.77;-0.91;0.56;243.0;-0.059253;-0.151316
0.66;2.5;1.75;2.0;1.75;2.5;1.75;0.25;1.0;1.0;0.5;0.0;0.5;2.0;2.0;0.0;0.5;-0.183105;0.03125;0.992188;-0.63;0.42;0.49;229.0;-0.086934;-0.067681;1.25;2.25;1.5;1.75;2.0;2.25;0.0;1.75;0.75;0.5;1.0;1.25;2.75;1.25;0.25;0.75;-0.219727;0.036133;0.981445;-0.84;-0.84;0.56;243.0;-0.048669;-0.149592
0.67;2.25;1.75;2.0;1.75;2.5;1.75;0.25;1.0;1.0;0.25;0.25;0.5;2.25;2.0;0.25;0.5;-0.179688;0.027832;0.995605;-0.63;0.56;0.56;231.0;-0.074485;-0.076239;1.25;2.0;1.75;2.0;2.0;2.75;0.0;1.25;0.75;0.5;1.0;1.25;2.75;1.5;0.25;0.75;-0.219238;0.034668;0.98584;-0.91;-0.98;0.56;247.0;-0.049879;-0.139099
0.68;2.25;1.75;2.25;1.75;2.25;1.75;0.25;1.0;1.25;0.25;0.25;0.5;2.25;1.75;0.25;0.5;-0.180664;0.022461;0.999512;-0.7;0.49;0.42;233.0;-0.076111;-0.072988;1.25;2.25;1.75;1.75;2.0;2.75;0.0;1.5;0.75;0.75;1.0;1.25;2.75;1.25;0.25;0.5;-0.21582;0.036133;0.983398;-0.77;-1.05;0.63;249.0;-0.053532;-0.142161
0.69;2.5;1.75;2.25;1.75;2.25;1.5;0.25;1.0;1.0;0.5;0.25;0.5;2.0;2.0;0.25;0.5;-0.179688;0.030762;1.001953;-0.63;0.35;0.49;232.0;-0.077973;-0.065426;1.25;2.25;1.75;1.75;2.25;3.0;0.0;1.5;0.75;0.25;1.0;1.25;2.75;1.0;0.25;0.5;-0.21582;0.032715;0.98584;-0.77;-0.84;0.63;247.0;-0.066725;-0.149002
0.7;2.25;1.75;2.0;1.75;2.5;1.75;0.25;1.0;1.0;0.25;0.25;0.5;2.0;2.0;0.25;0.5;-0.178223;0.027832;0.997559;-0.56;0.28;0.56;229.0;-0.076994;-0.072277;1.25;2.25;1.75;1.75;2.25;2.75;0.0;1.5;0.75;0.25;1.0;1.25;2.75;1.25;0.25;0.5;-0.22168;0.031738;0.987305;-0.77;-0.91;0.63;247.0;-0.061181;-0.144434
0.71;2.25;1.75;2.0;1.5;2.25;1.75;0.25;1.0;1.25;0.25;0.25;0.5;2.0;2.0;0.25;0.5;-0.183594;0.027832;0.995605;-0.56;0.49;0.56;227.0;-0.06831;-0.066557;1.5;2.5;1.75;2.0;2.0;2.75;0.0;1.75;0.75;0.5;1.0;1.25;2.75;1.25;0.25;0.5;-0.224609;0.036621;0.986328;-0.77;-0.91;0.56;259.0;-0.066158;-0.146885
0.72;2.5;1.75;2.0;1.75;2.5;1.75;0.25;1.0;1.25;0.25;0.25;0.5;1.75;1.75;0.25;0.5;-0.17627;0.024414;0.993164;-0.63;0.49;0.56;231.0;-0.083268;-0.063227;1.5;2.5;1.75;2.0;2.25;2.75;0.0;1.5;0.75;0.5;1.0;1.25;2.75;1.25;0.0;0.5;-0.219727;0.035156;0.982422;-0.77;-0.91;0.56;255.0;-0.07306;-0.141162
0.73;2.5;1.75;2.0;1.75;2.5;1.75;0.25;1.0;1.0;0.25;0.25;0.75;2.0;1.75;0.5;0.75;-0.182129;0.027832;0.992676;-0.56;0.49;0.49;237.0;-0.073619;-0.076909;1.25;2.5;1.75;1.75;2.0;2.75;0.0;1.5;0.75;0.5;1.0;1.25;2.5;1.25;0.0;0.5;-0.220215;0.033691;0.980469;-0.91;-0.98;0.7;244.0;-0.068293;-0.142429
0.74;2.5;1.75;2.5;1.75;2.5;1.75;0.25;1.0;1.0;0.25;0.25;0.75;1.75;1.75;0.25;0.5;-0.183594;0.024414;0.995117;-0.63;0.56;0.49;236.0;-0.089559;-0.067235;1.25;2.5;1.75;1.75;2.0;2.5;0.0;1.5;0.75;0.5;1.0;1.5;2.75;1.25;0.0;0.5;-0.220215;0.035156;0.990723;-0.84;-0.84;0.63;246.0;-0.061763;-0.145697
0.75;2.25;2.0;2.5;1.75;2.5;1.75;0.25;1.0;0.75;0.25;0.25;0.5;2.0;1.75;0.0;0.5;-0.1875;0.032227;0.994629;-0.63;0.63;0.56;229.0;-0.102;-0.076831;1.25;2.5;1.75;1.75;2.0;2.75;0.0;1.25;0.75;0.5;1.0;1.5;2.75;1.25;0.25;0.5;-0.217285;0.033203;0.983398;-0.91;-0.98;0.63;248.0;-0.058248;-0.142354
0.76;2.5;1.75;2.5;1.75;2.25;1.5;0.25;1.0;1.0;0.25;0.25;0.5;2.0;2.0;0.0;0.5;-0.181152;0.031738;0.998535;-0.49;0.49;0.56;229.0;-0.090495;-0.064761;1.25;2.5;1.75;1.75;2.0;2.75;0.0;1.5;0.5;0.5;1.0;1.25;2.75;1.0;0.25;0.5;-0.217773;0.035156;0.981934;-0.84;-0.98;0.56;243.0;-0.069745;-0.154
0.77;2.25;1.75;2.25;2.0;2.25;1.75;0.25;1.0;0.75;0.25;0.5;0.5;2.0;2.25;0.25;0.5;-0.181641;0.027344;0.995117;-0.56;0.56;0.42;234.0;-0.078066;-0.077197;1.25;2.25;1.75;1.75;2.0;2.5;0.0;1.5;0.25;0.5;1.0;1.25;2.5;0.75;0.25;0.5;-0.216309;0.030762;0.97998;-0.84;-0.98;0.63;229.0;-0.077289;-0.1592
0.78;2.5;2.0;2.25;2.0;2.5;1.75;0.25;1.0;1.0;0.25;0.25;0.5;2.0;2.25;0.25;0.5;-0.183594;0.031738;0.993652;-0.49;0.42;0.42;243.0;-0.084607;-0.068606;1.25;2.5;1.75;1.75;1.75;2.75;0.0;1.5;0.5;0.25;1.0;1.25;2.75;1.5;0.0;0.5;-0.217773;0.033203;0.984863;-0.77;-0.84;0.56;239.0;-0.069093;-0.153713
0.79;2.5;2.0;2.0;1.75;2.5;1.75;0.25;1.0;1.0;0.25;0.25;0.5;2.25;1.75;0.0;0.5;-0.187012;0.029297;0.992188;-0.42;0.63;0.49;232.0;-0.093077;-0.077428;1.5;2.75;1.75;1.75;2.0;2.5;0.0;1.5;0.5;0.25;1.0;1.25;2.75;1.25;0.0;0.75;-0.219238;0.03125;0.983398;-0.91;-0.98;0.63;244.0;-0.078227;-0.150816
0.8;2.25;1.75;2.0;1.75;2.5;1.75;0.25;1.0;1.25;0.25;0.25;0.75;2.25;2.0;0.25;0.5;-0.182129;0.02832;0.994141;-0.49;0.49;0.49;238.0;-0.066086;-0.073625;1.5;2.75;2.0;2.0;2.0;2.75;0.0;1.5;0.5;0.5;1.0;1.25;2.5;1.25;0.25;0.75;-0.213867;0.035645;0.981934;-0.84;-1.05;0.63;256.0;-0.077069;-0.144229
0.81;2.5;1.75;2.0;1.5;2.5;1.75;0.25;1.0;1.0;0.25;0.25;0.75;1.75;1.75;0.25;0.5;-0.180176;0.027344;0.992188;-0.49;0.42;0.56;227.0;-0.082219;-0.069357;1.5;2.5;1.75;1.75;2.0;2.75;0.0;1.5;0.75;0.5;1.0;1.25;2.75;1.5;0.25;0.5;-0.217773;0.037109;0.985352;-0.98;-0.91;0.49;254.0;-0.060054;-0.138989
0.82;2.5;1.75;2.0;1.75;2.5;1.75;0.25;1.0;1.0;0.25;0.25;0.5;1.75;1.5;0.25;0.5;-0.181152;0.031738;0.996094;-0.63;0.56;0.49;225.0;-0.093788;-0.071082;1.25;2.5;1.75;1.75;2.0;2.75;0.0;1.5;0.75;0.5;1.0;1.25;2.75;1.25;0.25;0.5;-0.223145;0.033691;0.988281;-0.84;-0.98;0.63;249.0;-0.060564;-0.144755
0.83;2.25;1.75;2.0;2.0;2.5;1.75;0.25;1.0;0.75;0.25;0.0;0.5;1.75;1.75;0.25;0.5;-0.177246;0.031738;1.000977;-0.56;0.49;0.63;221.0;-0.09694;-0.07787;1.25;2.5;1.75;1.75;2.0;2.5;0.0;1.5;0.75;0.5;1.0;1.25;2.25;1.25;0.25;0.5;-0.21582;0.03418;0.981445;-0.77;-0.98;0.63;241.0;-0.063925;-0.13699
0.84;2.25;1.75;2.5;1.75;2.5;1.75;0.25;1.0;0.5;0.0;0.25;0.5;2.0;2.0;0.25;0.5;-0.177246;0.025391;0.996094;-0.49;0.42;0.49;225.0;-0.096698;-0.08063;1.5;2.25;1.75;1.75;2.0;2.75;0.0;1.5;0.75;0.5;1.0;1.25;2.5;1.25;0.5;0.5;-0.216309;0.035645;0.989746;-0.91;-0.98;0.63;250.0;-0.057648;-0.137963
0.85;2.5;1.75;2.0;2.0;2.5;1.75;0.25;1.0;0.75;0.25;0.25;0.75;2.5;1.75;0.25;0.5;-0.175781;0.023926;0.994141;-0.49;0.49;0.63;237.0;-0.085024;-0.090207;1.25;2.25;1.75;1.75;2.0;2.75;0.25;1.25;0.75;0.5;1.25;1.25;2.25;1.25;0.25;0.5;-0.218262;0.031738;0.98584;-0.98;-0.91;0.63;245.0;-0.056424;-0.127368
0.86;2.5;1.75;2.0;2.25;2.5;1.75;0.25;1.0;1.0;0.25;0.25;0.5;2.25;1.75;0.25;0.5;-0.181641;0.024414;1.001465;-0.49;0.42;0.49;238.0;-0.088517;-0.080262;1.25;2.25;1.75;1.75;2.0;2.75;0.0;1.25;0.5;0.5;1.0;1.25;2.25;1.25;0.0;0.5;-0.217285;0.03418;0.984375;-0.91;-0.98;0.63;231.0;-0.072949;-0.140875
0.87;2.5;1.75;2.0;1.75;2.5;1.75;0.25;1.0;1.0;0.25;0.25;0.75;2.5;2.0;0.25;0.5;-0.181152;0.030273;0.994629;-0.35;0.42;0.56;239.0;-0.072566;-0.080481;1.25;2.75;2.0;1.75;2.0;2.0;0.0;1.25;0.5;0.5;1.25;1.25;2.25;1.25;0.25;0.5;-0.222656;0.03418;0.987793;-0.84;-0.84;0.7;236.0;-0.070321;-0.132435
0.88;2.5;1.75;2.0;1.75;2.5;1.75;0.25;1.0;1.0;0.0;0.25;0.75;2.25;2.0;0.25;0.5;-0.183105;0.030762;0.996582;-0.63;0.56;0.42;234.0;-0.078797;-0.078401;1.25;2.75;1.75;1.75;2.0;2.25;0.0;1.5;0.75;0.5;1.25;1.25;2.25;1.25;0.25;0.5;-0.218262;0.037598;0.981934;-0.84;-0.98;0.63;244.0;-0.063092;-0.135386
0.89;2.5;1.75;2.0;2.0;2.5;1.75;0.25;1.0;1.25;0.25;0.25;0.75;2.0;2.25;0.0;0.5;-0.178711;0.028809;0.996582;-0.49;0.49;0.56;241.0;-0.076131;-0.067046;1.5;2.25;1.75;1.75;2.0;2.25;0.0;1.5;0.75;0.5;1.0;1.25;2.25;1.25;0.0;0.5;-0.21582;0.033203;0.984375;-0.84;-1.05;0.63;236.0;-0.068845;-0.132681
0.9;2.5;1.75;2.25;2.0;2.5;1.75;0.25;1.0;1.25;0.25;0.25;0.5;2.25;2.0;0.25;0.5;-0.180176;0.027344;0.998535;-0.49;0.63;0.56;244.0;-0.078456;-0.068708;1.25;2.75;1.75;2.0;2.0;2.5;0.0;1.5;0.75;0.5;1.0;1.25;2.25;1.25;0.0;0.5;-0.220215;0.029785;0.984375;-0.91;-0.98;0.63;244.0;-0.075857;-0.139016
0.91;2.5;1.75;2.0;1.5;2.5;1.75;0.25;1.25;1.0;0.25;0.25;0.5;2.25;2.0;0.25;0.5;-0.177734;0.028809;0.996094;-0.49;0.56;0.49;235.0;-0.074622;-0.077702;1.25;2.75;1.75;2.0;2.0;2.5;0.0;1.5;0.75;0.5;0.75;1.25;2.5;1.0;0.0;0.5;-0.214844;0.038086;0.986816;-0.84;-0.91;0.56;241.0;-0.081744;-0.145489
0.92;2.25;1.75;2.0;1.75;2.5;1.5;0.25;1.25;0.75;0.0;0.25;0.5;1.75;2.25;0.25;0.5;-0.177734;0.028809;0.990723;-0.56;0.49;0.56;224.0;-0.081663;-0.076134;1.25;2.75;1.75;2.0;2.0;2.5;0.0;1.5;0.5;0.5;1.25;1.25;2.5;0.75;0.25;0.5;-0.214355;0.035645;0.979004;-0.84;-1.05;0.63;244.0;-0.078438;-0.153285
0.93;2.5;1.75;2.25;1.75;2.5;1.75;0.25;1.25;0.75;0.25;0.5;0.5;2.0;1.75;0.25;0.5;-0.188965;0.030762;0.986328;-0.56;0.49;0.42;236.0;-0.088393;-0.081892;1.25;2.75;1.75;1.75;2.25;2.25;0.0;1.5;0.75;0.5;1.0;1.25;2.5;1.25;0.25;0.5;-0.218262;0.035645;0.981445;-0.84;-0.98;0.7;246.0;-0.064982;-0.136336
0.94;2.5;1.5;2.0;1.75;2.5;1.75;0.25;1.0;0.75;0.25;0.5;0.75;2.25;1.75;0.0;0.5;-0.180664;0.028809;0.998047;-0.49;0.42;0.63;229.0;-0.083622;-0.084203;1.25;2.25;1.75;1.75;2.0;2.25;0.0;1.5;0.75;0.5;1.0;1.25;2.5;1.5;0.25;0.5;-0.214355;0.033691;0.986816;-0.84;-0.91;0.63;240.0;-0.052249;-0.135146
0.95;2.25;1.5;2.5;2.0;2.5;1.75;0.25;1.0;0.75;0.5;0.25;0.75;2.25;2.0;0.25;0.5;-0.183594;0.025391;0.987793;-0.63;0.42;0.42;240.0;-0.076213;-0.079141;1.25;2.25;1.75;1.75;2.0;2.5;0.0;1.75;0.75;0.5;1.0;1.25;2.5;1.25;0.0;0.5;-0.214355;0.040527;0.983398;-0.91;-0.91;0.63;242.0;-0.06268;-0.144864
0.96;2.5;1.75;2.25;2.0;2.5;1.75;0.25;1.25;1.0;0.25;0.25;0.5;2.25;2.0;0.25;0.5;-0.183105;0.026855;0.993652;-0.42;0.35;0.56;244.0;-0.082227;-0.079229;1.25;2.25;1.75;1.75;2.0;2.25;0.0;1.5;0.5;0.5;1.0;1.25;2.5;1.25;0.0;0.5;-0.220703;0.032715;0.984863;-0.77;-0.98;0.56;232.0;-0.06736;-0.145254
0.97;2.25;1.75;2.0;1.75;2.5;1.75;0.25;1.25;1.0;0.25;0.25;0.5;2.5;2.0;0.25;0.5;-0.184082;0.036133;1.001465;-0.63;0.63;0.56;238.0;-0.070982;-0.085575;1.25;2.0;2.0;2.0;2.0;2.25;0.0;1.5;0.5;0.5;1.0;1.25;2.25;1.25;0.25;0.5;-0.217773;0.036621;0.985352;-0.77;-1.12;0.63;236.0;-0.06558;-0.139082
0.98;2.5;1.75;2.25;1.75;2.5;1.75;0.25;1.25;0.75;0.25;0.25;0.5;2.5;1.75;0.25;0.5;-0.180176;0.024902;0.993652;-0.63;0.49;0.56;238.0;-0.087067;-0.089;1.25;2.25;2.0;2.0;2.0;2.5;0.0;1.5;0.75;0.5;1.0;1.0;2.25;1.25;0.25;0.5;-0.222656;0.032227;0.98291;-0.84;-1.05;0.56;242.0;-0.068805;-0.133038
0.99;2.5;1.75;2.25;1.75;2.5;1.75;0.25;1.25;0.75;0.25;0.25;0.5;2.25;1.75;0.25;0.5;-0.174316;0.025391;1.0;-0.49;0.56;0.49;236.0;-0.089632;-0.085275;1.25;2.5;2.0;1.75;1.75;2.25;0.0;1.25;0.5;0.25;1.0;1.0;2.25;1.5;0.25;0.5;-0.219727;0.037598;0.979492;-0.98;-1.12;0.56;227.0;-0.073042;-0.133889
1.0;2.5;1.75;2.25;1.75;2.5;1.75;0.25;1.0;1.0;0.25;0.25;0.5;2.25;2.0;0.25;0.5;-0.177246;0.029785;0.994141;-0.49;0.63;0.49;237.0;-0.08086;-0.071905;1.5;2.5;2.0;2.0;2.0;2.25;0.0;1.25;0.5;0.5;1.0;1.0;2.25;1.5;0.0;0.5;-0.217773;0.032715;0.984863;-0.84;-0.98;0.63;236.0;-0.08245;-0.127901
1.01;2.25;1.75;2.25;2.0;2.5;1.75;0.25;1.0;1.0;0.25;0.25;0.5;2.0;2.0;0.25;0.5;-0.177734;0.029297;0.991699;-0.56;0.49;0.56;235.0;-0.082125;-0.072127;1.5;2.5;1.75;2.0;2.0;2.5;0.0;1.25;0.5;0.5;0.75;1.25;2.25;1.25;0.25;0.5;-0.215332;0.033691;0.984375;-0.84;-0.98;0.56;237.0;-0.080073;-0.137154
1.02;2.5;1.75;2.25;2.0;2.5;1.75;0.25;1.0;1.0;0.25;0.25;0.5;2.0;1.75;0.25;0.25;-0.182129;0.032227;0.994141;-0.56;0.49;0.56;234.0;-0.093708;-0.07089;1.5;2.5;1.75;2.25;2.25;2.5;0.0;1.25;0.75;0.5;0.75;1.0;2.25;1.25;0.25;0.5;-0.22168;0.035645;0.990723;-0.84;-0.98;0.63;243.0;-0.081657;-0.127863
1.03;2.5;1.75;2.25;2.0;2.5;1.75;0.25;1.25;0.75;0.25;0.25;0.5;2.25;2.0;0.25;0.5;-0.185059;0.029297;0.997559;-0.63;0.49;0.56;241.0;-0.087254;-0.084479;1.25;2.5;1.75;2.0;2.25;2.75;0.0;1.25;0.5;0.5;0.75;1.0;2.25;1.25;0.25;0.5;-0.220215;0.034668;0.979492;-0.84;-0.98;0.56;237.0;-0.081201;-0.137358
1.04;2.5;1.75;2.25;1.75;2.5;1.75;0.25;1.25;1.25;0.5;0.25;0.75;2.5;2.25;0.25;0.5;-0.180664;0.027832;0.998535;-0.7;0.56;0.56;255.0;-0.061389;-0.074608;1.25;2.25;1.75;1.75;2.0;2.25;0.0;1.5;0.5;0.5;1.0;1.0;2.5;1.25;0.25;0.5;-0.219727;0.033203;0.987305;-0.91;-0.91;0.7;232.0;-0.064911;-0.142609
1.05;2.25;1.75;2.25;2.0;2.5;1.75;0.25;1.0;1.25;0.25;0.25;0.75;2.5;1.75;0.25;0.5;-0.178711;0.03125;0.993164;-0.63;0.42;0.56;244.0;-0.073582;-0.079583;1.25;2.5;1.75;1.75;2.0;2.25;0.0;1.25;0.75;0.5;1.0;1.25;2.25;1.25;0.25;0.5;-0.213379;0.033203;0.989258;-0.77;-0.98;0.63;234.0;-0.063721;-0.130734
1.06;2.25;2.0;2.0;1.75;2.5;1.75;0.25;1.0;1.0;0.5;0.25;0.75;2.25;2.0;0.25;0.5;-0.179199;0.033203;0.991211;-0.63;0.49;0.49;240.0;-0.070947;-0.07816;1.5;2.5;1.75;2.0;2.0;2.25;0.0;1.5;0.5;0.25;0.75;1.25;2.25;1.0;0.25;0.5;-0.226074;0.032227;0.987305;-0.84;-1.05;0.63;233.0;-0.086773;-0.145575
1.07;2.5;1.75;2.5;1.75;2.5;1.75;0.25;1.0;1.5;0.25;0.25;0.25;2.25;1.75;0.25;0.5;-0.179688;0.029297;0.990723;-0.63;0.63;0.49;242.0;-0.081399;-0.059384;1.5;2.5;1.75;2.0;2.0;2.5;0.0;1.5;0.5;0.25;1.0;1.0;2.25;1.25;0.25;0.25;-0.219727;0.035645;0.984375;-0.84;-0.91;0.56;236.0;-0.085306;-0.140769
1.08;2.5;1.75;2.75;1.75;2.5;1.75;0.25;1.0;1.0;0.5;0.25;0.5;2.25;1.75;0.25;0.5;-0.180176;0.03125;0.992188;-0.77;0.7;0.49;244.0;-0.086432;-0.068666;1.5;2.5;1.75;1.75;2.0;2.25;0.0;1.5;0.75;0.5;1.0;1.0;2.25;1.25;0.25;0.25;-0.21875;0.029297;0.983887;-0.77;-0.98;0.56;237.0;-0.072834;-0.129317
1.09;2.25;1.75;2.5;1.5;2.25;1.75;0.25;1.0;1.0;0.5;0.25;0.5;2.25;2.0;0.25;0.5;-0.181152;0.025879;0.995605;-0.63;0.56;0.42;234.0;-0.072263;-0.070091;1.5;2.5;1.75;1.75;2.0;2.25;0.0;1.25;0.5;0.5;0.75;1.25;2.25;1.25;0.25;0.25;-0.214355;0.034668;0.981934;-0.84;-0.84;0.63;229.0;-0.079267;-0.133104
1.1;2.5;1.75;2.25;1.75;2.5;1.75;0.25;1.0;0.75;0.25;0.25;0.5;2.0;2.0;0.25;0.5;-0.177246;0.03125;1.000977;-0.63;0.56;0.49;231.0;-0.088621;-0.07329;1.5;2.75;1.75;1.75;2.0;2.5;0.0;1.25;0.5;0.5;0.75;1.25;2.25;1.25;0.25;0.25;-0.215332;0.037109;0.982422;-0.77;-0.91;0.63;235.0;-0.083816;-0.135232
1.11;2.5;1.75;2.25;1.75;2.5;1.75;0.25;1.0;0.75;0.0;0.25;0.5;1.75;1.75;0.25;0.5;-0.181641;0.030762;0.990234;-0.63;0.42;0.49;224.0;-0.100714;-0.07355;1.5;2.5;1.75;2.0;2.25;2.5;0.0;1.25;0.5;0.5;1.0;1.0;2.25;1.5;0.25;0.5;-0.217773;0.032227;0.983398;-0.77;-0.91;0.7;242.0;-0.07572;-0.129535
1.12;2.25;1.75;2.0;1.75;2.5;1.75;0.25;1.0;0.75;0.25;0.5;1.0;2.25;2.25;0.25;0.5;-0.185059;0.034668;0.990723;-0.56;0.7;0.56;239.0;-0.06428;-0.084789;1.25;2.5;1.75;2.0;2.25;2.25;0.0;1.25;0.75;0.25;1.0;1.25;2.25;1.25;0.25;0.5;-0.214844;0.030273;0.982422;-0.77;-0.98;0.63;237.0;-0.070969;-0.131826
1.13;2.25;1.75;2.25;1.75;2.5;1.75;0.25;1.25;1.5;0.0;0.5;0.75;2.25;2.0;0.25;0.5;-0.182129;0.026855;0.991211;-0.7;0.56;0.56;249.0;-0.06314;-0.074007;1.5;2.5;2.0;2.0;2.0;2.5;0.0;1.25;0.75;0.5;0.5;0.75;2.25;0.75;0.25;0.5;-0.216309;0.033691;0.977539;-0.77;-0.98;0.63;230.0;-0.09829;-0.130404
1.14;2.5;1.75;2.0;2.0;2.5;1.75;0.25;1.0;1.25;0.25;0.25;0.5;2.25;1.5;0.25;0.5;-0.17627;0.02832;0.995117;-0.56;0.42;0.49;236.0;-0.085695;-0.075591;1.5;2.5;2.0;1.75;2.0;2.25;0.0;1.25;0.75;0.25;0.5;1.0;2.25;0.75;0.25;0.5;-0.22168;0.033203;0.980957;-0.77;-1.12;0.63;224.0;-0.095393;-0.131833
1.15;2.5;1.75;2.25;2.0;2.5;1.75;0.25;1.0;1.0;0.25;0.25;0.75;2.25;1.75;0.25;0.5;-0.181152;0.03418;0.999023;-0.56;0.35;0.56;241.0;-0.08473;-0.07889;1.25;2.5;2.0;1.75;2.0;2.5;0.0;1.25;0.75;0.25;0.5;1.25;2.0;0.75;0.0;0.5;-0.215332;0.032227;0.981934;-0.84;-1.12;0.63;222.0;-0.097597;-0.136058
1.16;2.5;1.75;2.25;1.75;2.5;1.75;0.25;1.25;1.25;0.25;0.5;0.5;2.25;1.75;0.25;0.5;-0.18457;0.02832;0.994141;-0.56;0.63;0.49;246.0;-0.075879;-0.075157;1.25;2.5;1.75;1.75;2.0;2.5;0.0;1.5;0.75;0.5;1.0;1.0;2.25;0.75;0.25;0.5;-0.224609;0.029297;0.985352;-0.77;-1.12;0.63;234.0;-0.076746;-0.141287
1.17;2.5;1.75;2.25;2.0;2.5;1.75;0.25;1.0;1.0;0.5;0.25;0.5;2.5;1.75;0.25;0.5;-0.178223;0.03125;0.991699;-0.56;0.56;0.56;243.0;-0.081939;-0.07836;1.5;2.75;1.75;2.0;2.0;2.75;0.0;1.5;0.75;0.5;0.75;1.0;2.25;0.5;0.25;0.5;-0.21875;0.032227;0.977051;-0.84;-0.98;0.63;240.0;-0.09608;-0.144664
1.18;2.5;1.75;2.0;2.0;2.5;1.5;0.25;1.0;1.0;0.5;0.25;0.75;2.5;2.0;0.25;0.25;-0.183594;0.022949;0.990723;-0.7;0.56;0.49;241.0;-0.073224;-0.076766;1.25;2.75;1.75;2.0;2.0;2.5;0.0;1.25;0.5;0.5;0.5;1.0;2.25;1.25;0.5;0.25;-0.216309;0.03418;0.983887;-0.84;-0.98;0.63;232.0;-0.083929;-0.136963
1.19;2.5;1.75;2.0;2.0;2.5;1.5;0.25;1.0;1.0;0.25;0.25;0.5;1.75;2.0;0.25;0.25;-0.176758;0.026855;0.99707;-0.63;0.56;0.49;228.0;-0.08821;-0.063834;1.25;2.75;1.75;2.0;2.0;2.5;0.0;1.25;0.5;0.5;0.75;1.0;2.25;1.5;0.25;0.5;-0.219238;0.031738;0.982422;-0.77;-0.91;0.63;236.0;-0.078465;-0.135383
1.2;2.5;1.75;2.25;2.0;2.5;1.75;0.25;1.0;1.0;0.0;0.25;0.5;2.0;1.75;0.5;0.25;-0.177734;0.024414;0.994629;-0.56;0.56;0.56;234.0;-0.091627;-0.072664;1.25;2.5;1.75;1.75;2.25;2.5;0.0;1.5;0.75;0.5;1.0;1.25;2.25;0.75;0.0;0.5;-0.216309;0.038086;0.981934;-0.84;-0.98;0.56;237.0;-0.079755;-0.141308
1.21;2.25;1.75;2.25;2.0;2.5;1.75;0.25;1.0;1.25;0.25;0.25;0.75;2.25;1.75;0.25;0.25;-0.185547;0.024414;0.995605;-0.56;0.56;0.49;240.0;-0.078641;-0.074394;1.5;1.75;1.75;2.0;2.25;2.5;0.0;1.5;0.75;0.5;0.5;1.25;2.25;0.75;0.0;0.5;-0.213379;0.036133;0.98291;-0.77;-0.98;0.56;229.0;-0.082981;-0.13913
1.22;2.5;1.75;2.0;2.0;2.5;1.75;0.25;1.0;1.75;0.5;0.5;0.75;2.25;1.75;0.25;0.25;-0.179199;0.025879;0.994141;-0.63;0.56;0.49;253.0;-0.063504;-0.063364;1.25;2.0;1.75;2.0;2.0;2.5;0.0;1.25;0.5;0.25;0.5;1.25;2.25;0.75;0.0;0.5;-0.219727;0.032227;0.983398;-0.84;-0.91;0.63;215.0;-0.093355;-0.150151
1.23;2.5;1.75;2.25;2.0;2.5;1.75;0.25;1.0;1.0;0.5;0.5;0.75;2.25;2.0;0.25;0.5;-0.183594;0.024902;0.994629;-0.7;0.56;0.56;249.0;-0.072806;-0.075292;1.25;2.5;1.75;2.5;2.0;2.5;0.0;1.5;0.25;0.25;0.5;1.0;2.25;1.25;0.0;0.5;-0.21875;0.033203;0.980469;-0.84;-0.98;0.7;229.0;-0.103087;-0.155018
1.24;2.25;1.75;2.25;2.0;2.5;1.75;0.25;1.0;0.5;0.5;0.5;0.75;2.0;2.0;0.25;0.5;-0.181152;0.027344;0.993652;-0.49;0.49;0.49;237.0;-0.081219;-0.084221;1.5;2.75;1.75;2.0;2.0;2.25;0.0;1.25;0.5;0.5;0.5;1.0;2.25;1.25;0.0;0.5;-0.219238;0.039062;0.979492;-0.7;-0.91;0.63;227.0;-0.096506;-0.134656
1.25;2.25;1.75;2.25;2.25;2.5;1.75;0.25;1.25;1.25;0.25;0.5;0.75;2.0;2.0;0.0;0.5;-0.181641;0.029785;0.997559;-0.63;0.56;0.49;249.0;-0.077302;-0.077314;1.5;2.75;1.75;1.75;1.75;2.25;0.0;1.25;0.5;0.5;0.5;1.25;2.25;1.0;0.25;0.5;-0.215332;0.029785;0.984863;-0.77;-0.91;0.56;225.0;-0.0885;-0.140681
1.26;2.5;2.0;2.5;2.25;2.5;1.75;0.25;1.0;1.0;0.0;0.5;0.75;2.0;2.0;0.25;0.5;-0.180664;0.027832;0.992188;-0.56;0.35;0.49;249.0;-0.090646;-0.075521;1.25;2.5;1.75;2.0;1.75;2.25;0.0;1.0;0.5;0.5;0.5;1.0;2.25;1.25;0.25;0.25;-0.218262;0.033203;0.98291;-0.84;-0.98;0.63;216.0;-0.086434;-0.133324
1.27;2.5;2.0;2.5;2.25;2.5;1.75;0.25;1.0;0.5;0.25;0.25;0.25;2.0;1.75;0.25;0.5;-0.179688;0.030273;0.996582;-0.63;0.49;0.56;234.0;-0.113446;-0.081117;1.25;2.75;1.75;2.0;1.75;2.25;0.0;1.25;0.75;0.5;0.5;1.0;2.25;1.25;0.25;0.25;-0.213379;0.036133;0.986816;-0.7;-0.91;0.63;227.0;-0.083334;-0.132004
1.28;2.5;2.0;2.25;2.0;2.5;1.75;0.25;1.0;0.75;0.25;0.25;0.25;2.0;2.0;0.25;0.5;-0.181641;0.032227;0.993164;-0.63;0.56;0.56;234.0;-0.09836;-0.073496;1.5;2.75;1.75;1.75;2.0;2.5;0.0;1.5;0.75;0.75;0.5;1.25;2.25;1.25;0.25;0.25;-0.217773;0.032715;0.981934;-0.84;-0.98;0.7;242.0;-0.077419;-0.131488
1.29;2.25;1.75;2.25;2.0;2.5;1.75;0.25;1.0;1.0;0.25;0.25;0.25;2.25;1.75;0.25;0.5;-0.182617;0.028809;0.992676;-0.63;0.49;0.49;232.0;-0.088123;-0.0758;1.5;2.5;1.75;2.25;2.0;2.5;0.0;1.5;0.75;0.25;0.5;1.25;2.25;1.25;0.0;0.5;-0.219727;0.040039;0.981445;-0.77;-0.91;0.56;239.0;-0.089797;-0.13984
1.3;2.5;2.0;2.75;2.0;2.5;1.75;0.25;1.0;1.0;0.25;0.25;0.25;2.0;1.75;0.0;0.5;-0.180664;0.025879;0.995117;-0.49;0.49;0.56;238.0;-0.108374;-0.066456;1.5;2.5;1.75;2.25;2.0;2.5;0.0;1.25;0.5;0.0;0.5;1.0;2.25;1.5;0.0;0.25;-0.218262;0.032227;0.978516;-0.84;-0.98;0.63;226.0;-0.102441;-0.137936
1.31;2.25;1.75;2.25;1.75;2.5;1.75;0.25;1.0;0.75;0.25;0.25;0.5;2.0;1.75;0.25;0.25;-0.181152;0.024902;0.993652;-0.63;0.42;0.56;225.0;-0.092797;-0.076592;1.5;2.75;1.75;1.75;2.0;2.5;0.0;1.25;0.75;0.25;0.5;1.0;2.25;1.25;0.25;0.5;-0.219727;0.029297;0.974121;-0.91;-1.05;0.63;231.0;-0.087173;-0.130725
1.32;2.25;1.75;2.0;2.0;2.5;1.75;0.25;1.0;0.75;0.25;0.25;0.5;2.0;1.75;0.0;0.5;-0.188965;0.027344;0.992676;-0.7;0.42;0.56;223.0;-0.096472;-0.082349;1.25;2.5;1.75;2.25;2.0;2.25;0.0;1.5;0.25;0.25;0.75;1.25;2.25;1.0;0.25;0.25;-0.222168;0.032715;0.986816;-0.77;-0.91;0.56;228.0;-0.093782;-0.155286
1.33;2.5;1.75;2.25;2.0;2.25;1.75;0.25;1.0;1.0;0.25;0.25;0.5;2.0;1.5;0.0;0.5;-0.18457;0.022461;0.997559;-0.63;0.56;0.56;227.0;-0.101825;-0.076609;1.5;2.75;1.75;1.75;2.0;2.5;0.0;1.25;0.25;0.25;0.75;1.0;2.0;0.75;0.25;0.5;-0.216309;0.030762;0.984375;-0.77;-0.98;0.63;220.0;-0.10759;-0.146685
1.34;2.5;2.0;2.25;2.0;2.5;1.75;0.25;1.0;0.75;0.25;0.5;0.5;1.75;1.75;0.0;0.5;-0.17627;0.027832;0.998535;-0.56;0.63;0.49;232.0;-0.104631;-0.075242;1.25;2.75;2.0;2.0;2.0;2.5;0.0;1.5;0.5;0.25;1.0;1.0;2.25;0.75;0.25;0.25;-0.21875;0.034668;0.980957;-0.84;-0.91;0.56;234.0;-0.097238;-0.147364
1.35;2.5;1.75;2.5;2.0;2.5;1.75;0.25;1.0;0.5;0.25;0.25;0.5;1.75;2.0;0.25;0.5;-0.181152;0.021973;0.999512;-0.56;0.42;0.63;231.0;-0.101484;-0.074532;1.25;2.5;1.75;1.75;2.0;2.25;0.0;1.5;0.5;0.5;1.0;1.25;2.25;1.0;0.25;0.25;-0.217773;0.036133;0.983887;-0.7;-0.98;0.63;231.0;-0.075257;-0.143641
1.36;2.5;1.75;2.5;2.0;2.5;1.75;0.25;1.0;1.0;0.25;0.25;0.75;1.75;2.0;0.0;0.5;-0.181641;0.025879;0.988281;-0.7;0.49;0.56;239.0;-0.093133;-0.066654;1.25;2.75;1.75;1.75;2.0;2.75;0.0;1.5;0.75;0.25;0.5;1.25;2.25;1.0;0.5;0.25;-0.216309;0.033691;0.984863;-0.77;-0.98;0.63;237.0;-0.081023;-0.143233
1.37;2.5;2.0;2.25;2.25;2.25;1.75;0.25;1.0;1.25;0.5;0.5;0.75;2.0;1.0;0.25;0.5;-0.182617;0.025391;0.98877;-0.77;0.49;0.49;243.0;-0.094399;-0.080536;1.5;2.75;1.75;2.25;2.0;2.5;0.0;1.25;0.5;0.5;0.5;1.0;2.25;1.25;0.25;0.25;-0.213867;0.032227;0.980957;-0.84;-0.98;0.63;235.0;-0.096377;-0.135793
1.38;2.5;1.75;2.25;2.25;2.5;1.75;0.25;1.0;1.0;0.5;0.25;0.5;2.0;1.25;0.25;0.5;-0.177734;0.030762;0.989258;-0.77;0.63;0.56;237.0;-0.099241;-0.077613;1.5;2.75;2.0;1.75;2.25;2.5;0.0;1.5;0.25;0.5;0.75;1.0;2.25;1.25;0.0;0.25;-0.217285;0.034668;0.984375;-0.77;-0.98;0.56;235.0;-0.10016;-0.139264
1.39;2.5;2.0;2.5;2.0;2.5;1.75;0.25;1.0;1.0;0.25;0.25;0.5;2.0;2.0;0.25;0.5;-0.180664;0.032715;0.989258;-0.7;0.7;0.49;244.0;-0.091614;-0.068976;1.5;2.75;1.75;1.75;2.0;2.5;0.0;1.5;0.5;0.5;0.5;1.25;2.25;0.75;0.0;0.25;-0.221191;0.03418;0.977539;-0.7;-0.91;0.56;228.0;-0.102655;-0.147177
1.4;2.5;2.0;2.75;2.25;2.5;1.75;0.25;1.0;0.5;0.25;0.25;0.5;2.0;1.75;0.25;0.5;-0.177246;0.03125;0.992188;-0.7;0.7;0.49;240.0;-0.111514;-0.081526;1.25;2.75;1.75;2.0;2.0;2.75;0.0;1.5;0.75;0.5;0.75;1.25;2.25;0.75;0.25;0.25;-0.217285;0.028809;0.984375;-0.84;-0.91;0.56;241.0;-0.08673;-0.1453
1.41;2.5;2.0;2.5;2.25;2.5;1.75;0.25;1.0;0.5;0.25;0.25;0.5;2.0;1.5;0.25;0.5;-0.179199;0.026855;0.997559;-0.63;0.7;0.49;235.0;-0.114697;-0.086309;1.25;2.75;2.0;2.25;2.0;2.75;0.0;1.25;0.75;0.5;0.75;1.0;2.25;0.75;0.25;0.5;-0.219727;0.032715;0.983398;-0.77;-0.98;0.63;241.0;-0.09355;-0.13831
1.42;2.5;1.75;2.0;2.25;2.5;1.75;0.25;1.0;0.75;0.25;0.25;0.75;2.0;1.25;0.25;0.5;-0.177246;0.021484;0.989258;-0.63;0.56;0.56;230.0;-0.102904;-0.089765;1.25;2.75;1.75;2.25;2.0;2.5;0.0;1.25;0.5;0.25;0.75;1.0;2.25;0.75;0.25;0.25;-0.21875;0.030273;0.981934;-0.84;-0.91;0.63;227.0;-0.10311;-0.147481
1.43;2.5;2.0;2.5;2.25;2.5;1.75;0.25;1.0;0.5;0.25;0.25;0.5;2.0;1.75;0.0;0.5;-0.180176;0.026855;1.0;-0.63;0.63;0.56;234.0;-0.115863;-0.083743;1.25;2.75;1.75;2.0;2.0;2.5;0.0;1.5;0.5;0.0;0.75;1.25;2.25;0.75;0.25;0.25;-0.209473;0.032227;0.983398;-0.77;-0.98;0.63;229.0;-0.099382;-0.155406
1.44;2.5;2.0;2.75;2.25;2.5;1.75;0.25;1.0;0.5;0.25;0.25;0.5;2.25;1.5;0.25;0.5;-0.184082;0.026367;0.992676;-0.56;0.56;0.56;240.0;-0.113826;-0.087759;1.5;2.75;1.75;2.25;2.0;2.5;0.0;1.5;0.75;0.25;0.75;1.0;2.25;1.25;0.25;0.25;-0.220215;0.032227;0.97998;-0.84;-1.05;0.63;243.0;-0.08988;-0.136245
1.45;2.5;2.0;2.75;2.25;2.5;1.75;0.25;1.0;0.75;0.25;0.25;0.5;2.0;1.75;0.25;0.5;-0.181152;0.029785;0.989258;-0.7;0.56;0.49;244.0;-0.106114;-0.076302;1.5;2.25;2.0;2.0;2.0;2.75;0.0;1.25;0.5;0.25;1.0;1.0;2.0;1.0;0.5;0.25;-0.211914;0.032227;0.985352;-0.77;-1.05;0.56;234.0;-0.087703;-0.133917
1.46;2.5;2.0;2.75;2.0;2.5;1.75;0.25;1.0;0.5;0.25;0.25;0.5;2.0;1.75;0.25;0.5;-0.179199;0.032715;0.994629;-0.7;0.49;0.56;237.0;-0.109288;-0.079713;1.5;2.5;2.0;2.0;2.0;2.75;0.0;1.25;0.75;0.25;1.0;1.0;2.25;0.75;0.25;0.5;-0.220215;0.029297;0.986816;-0.84;-0.98;0.56;239.0;-0.091522;-0.136138
1.47;2.5;2.0;2.5;2.25;2.5;1.75;0.25;1.0;1.5;0.25;0.25;0.75;2.0;1.25;0.25;0.5;-0.181152;0.029297;0.996094;-0.56;0.42;0.56;250.0;-0.094604;-0.070508;1.5;2.75;1.75;2.0;2.0;2.75;0.0;1.25;0.75;0.5;0.5;1.0;2.25;0.75;0.25;0.25;-0.220703;0.032227;0.98584;-0.84;-0.98;0.77;234.0;-0.099351;-0.136344
1.48;2.5;1.75;2.25;2.25;2.5;1.75;0.25;1.0;1.5;0.25;0.25;0.5;2.0;1.25;0.0;0.25;-0.181152;0.02832;0.990723;-0.56;0.56;0.63;237.0;-0.101587;-0.067148;1.25;2.75;1.75;1.75;2.25;2.75;0.0;1.25;0.75;0.25;0.5;1.25;2.25;0.75;0.0;0.5;-0.216309;0.029785;0.987793;-0.77;-1.05;0.63;230.0;-0.097197;-0.141916
1.49;2.5;1.75;2.5;2.25;2.5;1.75;0.25;1.0;1.25;0.25;0.25;0.5;2.0;1.5;0.0;0.25;-0.182129;0.029785;0.993164;-0.77;0.63;0.49;239.0;-0.104045;-0.067885;1.5;2.75;2.0;1.75;2.0;2.5;0.0;1.5;0.75;0.25;0.5;1.0;2.25;1.0;0.0;0.25;-0.211914;0.035645;0.984375;-0.77;-1.05;0.63;232.0;-0.102173;-0.135044
1.5;2.5;2.0;2.5;2.25;2.5;1.75;0.25;1.0;1.25;0.25;0.25;0.5;2.0;1.5;0.25;0.25;-0.180176;0.028809;0.990723;-0.63;0.49;0.49;244.0;-0.101261;-0.069068;1.75;2.75;1.75;2.25;2.0;2.5;0.0;1.25;0.75;0.25;0.75;1.0;2.25;0.75;0.0;0.25;-0.220215;0.03125;0.987793;-0.77;-1.05;0.56;234.0;-0.111139;-0.135623
1.51;2.5;2.0;2.5;2.25;2.5;1.75;0.25;1.0;1.25;0.25;0.25;0.5;2.0;1.5;0.25;0.25;-0.186035;0.025391;0.994629;-0.63;0.56;0.42;244.0;-0.101261;-0.069068;1.5;2.75;1.75;2.25;2.0;2.75;0.0;1.5;0.75;0.25;0.5;1.0;2.25;1.25;0.0;0.5;-0.215332;0.036133;0.988281;-0.77;-0.91;0.56;241.0;-0.09754;-0.139899
1.52;2.5;2.0;2.5;2.25;2.5;1.75;0.25;1.0;1.25;0.25;0.25;0.5;1.75;1.75;0.25;0.5;-0.181641;0.029785;0.995117;-0.56;0.49;0.56;245.0;-0.096213;-0.064443;1.5;2.75;1.75;2.0;2.0;2.5;0.0;1.5;0.75;0.5;0.5;1.0;2.25;1.25;0.0;0.5;-0.225098;0.036621;0.984375;-0.7;-1.05;0.63;238.0;-0.090432;-0.134736
1.53;2.5;2.0;2.5;2.0;2.5;1.75;0.25;1.0;1.0;0.25;0.25;0.5;1.75;1.5;0.25;0.5;-0.186035;0.031738;0.995117;-0.63;0.49;0.56;237.0;-0.104114;-0.069908;1.5;2.75;2.0;1.75;2.0;2.75;0.0;1.5;0.75;0.25;0.5;1.0;2.25;1.25;0.25;0.5;-0.21875;0.03418;0.981445;-0.91;-0.91;0.56;241.0;-0.088938;-0.134202
1.54;2.75;2.0;2.75;2.25;2.5;1.75;0.25;1.0;1.0;0.25;0.25;0.5;1.75;1.75;0.25;0.5;-0.177246;0.028809;0.98584;-0.63;0.56;0.49;248.0;-0.106894;-0.065462;1.5;2.75;2.0;2.0;2.0;2.75;0.0;1.5;0.25;0.25;1.0;1.0;2.25;1.25;0.5;1.0;-0.21582;0.032227;0.986816;-0.84;-0.98;0.63;249.0;-0.082946;-0.148164
1.55;2.5;2.0;2.5;2.25;2.5;1.75;0.25;1.0;1.0;0.25;0.25;0.5;1.75;1.5;0.25;0.5;-0.175293;0.030273;0.99707;-0.49;0.42;0.56;240.0;-0.10641;-0.071848;1.5;2.75;2.0;2.25;2.0;2.75;0.0;1.5;0.5;0.25;1.0;0.75;2.25;1.25;0.25;0.5;-0.219238;0.032227;0.981445;-0.84;-0.91;0.63;246.0;-0.094948;-0.14003
1.56;2.5;2.0;2.5;2.25;2.5;1.75;0.25;1.0;0.5;0.0;0.25;0.5;1.75;1.75;0.0;0.5;-0.178223;0.035156;0.999023;-0.63;0.7;0.63;229.0;-0.123221;-0.081689;1.5;2.75;2.0;2.0;2.0;2.75;0.0;1.25;0.5;0.25;0.5;1.0;2.25;1.0;0.0;0.25;-0.21875;0.035645;0.986328;-0.84;-1.05;0.63;230.0;-0.112446;-0.13972
1.57;2.5;2.0;2.5;2.25;2.5;1.75;0.25;1.0;0.5;0.25;0.25;0.5;1.75;1.5;0.0;0.25;-0.17627;0.025391;0.997559;-0.56;0.49;0.56;228.0;-0.127284;-0.081009;1.75;2.75;2.0;2.0;2.0;2.5;0.0;1.25;0.75;0.5;0.5;1.0;2.25;0.75;0.0;0.25;-0.221191;0.032227;0.980469;-0.7;-0.91;0.63;234.0;-0.11074;-0.129359
1.58;2.5;2.0;2.75;2.25;2.5;1.75;0.25;1.0;0.75;0.25;0.25;0.5;1.75;1.75;0.25;0.5;-0.182129;0.03125;0.992188;-0.63;0.7;0.49;241.0;-0.108804;-0.072542;1.75;2.75;1.75;2.0;2.0;2.5;0.0;1.25;0.75;0.5;0.75;1.0;2.0;1.0;0.25;0.25;-0.21582;0.031738;0.981445;-0.91;-0.98;0.63;236.0;-0.096036;-0.125122
1.59;2.5;2.0;2.5;2.25;2.5;1.75;0.25;1.0;0.75;0.25;0.25;0.5;1.75;1.75;0.25;0.25;-0.178223;0.020996;0.998047;-0.7;0.63;0.42;237.0;-0.109719;-0.07312;1.5;3.0;2.0;2.5;2.0;2.5;0.0;1.25;0.25;0.25;0.5;1.0;2.0;1.25;0.0;0.25;-0.21875;0.036133;0.984375;-0.84;-0.98;0.56;232.0;-0.12307;-0.140443
1.6;2.5;2.0;2.25;2.25;2.5;1.75;0.25;1.0;0.75;0.0;0.25;0.5;1.75;1.75;0.0;0.25;-0.180176;0.03125;0.995605;-0.56;0.63;0.42;228.0;-0.118504;-0.076886;1.5;2.75;1.75;2.0;2.0;2.25;0.0;1.25;0.25;0.5;0.5;1.0;2.0;0.75;0.0;0.25;-0.21582;0.036133;0.984375;-0.84;-0.98;0.63;215.0;-0.119387;-0.143374
1.61;2.5;2.0;2.5;2.25;2.5;1.75;0.25;1.0;1.0;0.25;0.25;0.5;2.0;1.75;0.0;0.25;-0.179199;0.02832;0.996582;-0.56;0.42;0.56;240.0;-0.107702;-0.071644;1.5;2.75;1.75;1.75;2.0;2.25;0.0;1.25;0.5;0.25;0.75;1.0;2.0;0.75;0.25;0.25;-0.225586;0.031738;0.981445;-0.91;-1.12;0.63;219.0;-0.104202;-0.136963
1.62;2.75;2.0;2.5;2.25;2.5;1.75;0.25;1.0;0.75;0.25;0.25;0.5;1.75;1.75;0.25;0.5;-0.171387;0.024902;0.994141;-0.7;0.63;0.56;241.0;-0.110276;-0.072461;1.25;2.75;1.75;1.75;2.0;2.75;0.0;1.0;0.5;0.25;0.5;0.75;2.0;0.75;0.25;0.5;-0.219238;0.036621;0.983887;-0.77;-0.98;0.63;214.0;-0.10879;-0.138405
1.63;2.5;2.0;2.5;2.25;2.5;1.75;0.25;1.0;0.75;0.25;0.25;0.5;1.75;2.0;0.25;0.25;-0.179199;0.023926;0.996582;-0.7;0.63;0.49;239.0;-0.104647;-0.070685;1.5;2.5;2.0;2.0;2.0;2.75;0.0;1.25;0.25;0.25;0.5;0.75;2.0;0.75;0.25;0.5;-0.222656;0.034668;0.981445;-0.77;-0.98;0.7;221.0;-0.117748;-0.144422
1.64;2.5;2.0;2.75;2.25;2.5;1.75;0.25;1.0;0.75;0.25;0.25;0.5;1.75;1.75;0.25;0.25;-0.184082;0.026367;0.994629;-0.63;0.56;0.56;240.0;-0.1117;-0.071054;1.5;2.75;2.0;2.5;2.0;2.75;0.0;1.25;0.5;0.5;0.75;1.0;2.25;0.75;0.25;0.5;-0.21582;0.033203;0.984375;-0.77;-0.84;0.63;244.0;-0.104674;-0.142566
1.65;2.5;2.0;2.75;2.25;2.5;1.75;0.25;1.0;0.75;0.25;0.25;0.5;1.75;1.25;0.25;0.25;-0.177734;0.027344;0.996094;-0.63;0.63;0.49;235.0;-0.122052;-0.075964;1.5;2.75;2.0;2.25;2.0;2.5;0.0;1.25;0.5;0.5;0.5;1.0;2.25;1.0;0.25;0.25;-0.21582;0.033203;0.982422;-0.77;-0.91;0.56;236.0;-0.103584;-0.135967
1.66;3.0;2.0;2.5;2.25;2.5;1.75;0.25;1.0;0.5;0.25;0.25;0.5;1.75;1.75;0.25;0.25;-0.180176;0.027832;0.995605;-0.7;0.77;0.56;239.0;-0.122153;-0.074012;1.5;2.75;2.0;2.0;2.0;2.5;0.0;1.25;0.25;0.5;0.5;1.0;2.25;0.75;0.25;0.25;-0.222168;0.034668;0.980957;-0.84;-0.91;0.63;227.0;-0.112118;-0.144476
1.67;3.0;2.0;2.75;2.25;2.25;1.75;0.25;1.0;0.5;0.25;0.25;0.5;1.75;1.5;0.25;0.5;-0.183105;0.025879;1.000977;-0.63;0.56;0.56;238.0;-0.126165;-0.07757;1.5;3.0;2.0;2.25;2.0;2.5;0.0;1.25;0.25;0.5;0.75;1.0;2.0;0.75;0.25;0.5;-0.220215;0.036621;0.974609;-0.84;-1.05;0.63;234.0;-0.113357;-0.143268
1.68;2.5;2.0;2.75;2.25;2.5;1.75;0.25;1.0;0.75;0.25;0.25;0.5;1.75;1.75;0.25;0.5;-0.177734;0.032715;0.988281;-0.63;0.56;0.56;241.0;-0.108804;-0.072542;1.75;3.0;2.0;2.25;2.0;2.5;0.0;1.25;0.5;0.5;0.75;1.0;2.0;0.75;0.0;0.5;-0.224609;0.037598;0.980469;-0.77;-0.91;0.49;238.0;-0.117527;-0.134721
1.69;2.5;2.0;2.5;2.25;2.5;1.75;0.25;1.0;0.75;0.25;0.25;0.5;1.75;1.75;0.0;0.5;-0.179199;0.029297;0.993652;-0.63;0.7;0.49;235.0;-0.113062;-0.074522;1.5;2.75;1.75;2.5;2.0;2.25;0.0;1.25;0.5;0.25;0.75;1.0;2.0;1.0;0.25;0.5;-0.214355;0.026855;0.98877;-0.7;-0.98;0.7;232.0;-0.103172;-0.138352
1.7;2.75;2.0;2.75;2.25;2.5;1.75;0.25;1.0;0.5;0.25;0.25;0.5;2.0;1.75;0.25;0.5;-0.185547;0.025879;0.998535;-0.63;0.42;0.56;243.0;-0.114911;-0.079309;1.5;2.75;2.0;2.5;2.0;2.25;0.0;1.25;0.5;0.5;0.75;1.0;2.0;0.75;0.25;0.5;-0.219238;0.033691;0.983398;-0.91;-1.05;0.63;235.0;-0.106215;-0.136075
1.71;2.75;2.0;2.5;2.25;2.5;1.75;0.25;1.0;0.5;0.25;0.25;0.5;1.75;1.75;0.25;0.25;-0.182129;0.028809;0.98584;-0.63;0.63;0.49;236.0;-0.118784;-0.076204;1.5;3.0;2.0;2.5;2.0;2.5;0.0;1.25;0.75;0.25;0.75;1.25;2.0;0.75;0.0;0.5;-0.220215;0.03418;0.979492;-0.84;-1.05;0.63;242.0;-0.111077;-0.136888
1.72;3.0;2.0;2.5;2.25;2.5;1.75;0.25;1.0;0.75;0.25;0.25;0.5;1.75;1.5;0.5;0.5;-0.177246;0.027832;0.992676;-0.7;0.56;0.56;244.0;-0.112559;-0.072852;1.5;3.0;2.0;2.5;2.0;2.25;0.0;1.25;0.5;0.25;0.75;1.0;2.0;1.0;0.25;0.5;-0.21582;0.032715;0.985352;-0.91;-1.12;0.63;237.0;-0.108589;-0.135721
1.73;2.5;2.0;2.75;2.25;2.5;1.75;0.25;1.0;1.0;0.25;0.25;0.5;1.75;1.5;0.25;0.5;-0.182129;0.027344;0.993164;-0.7;0.56;0.49;243.0;-0.108411;-0.069822;1.5;2.75;1.75;2.25;2.0;2.75;0.0;1.25;0.75;0.25;1.0;1.0;2.0;0.75;0.25;0.5;-0.219238;0.030762;0.97998;-0.91;-1.05;0.63;239.0;-0.097767;-0.137239
1.74;2.5;2.0;2.5;2.25;2.5;1.75;0.25;1.0;1.0;0.25;0.25;0.5;1.75;1.5;0.25;0.5;-0.177734;0.030762;0.995605;-0.63;0.63;0.49;240.0;-0.10641;-0.071848;1.5;2.75;1.75;2.0;2.0;2.5;0.0;1.25;0.75;0.5;0.75;1.0;2.0;0.75;0.0;0.25;-0.221191;0.039062;0.983887;-0.91;-1.05;0.63;228.0;-0.103724;-0.131635
1.75;2.5;2.0;2.75;2.25;2.5;1.75;0.25;1.0;1.0;0.25;0.25;0.5;1.75;1.75;0.25;0.5;-0.175781;0.03125;0.996094;-0.7;0.63;0.56;245.0;-0.103471;-0.067476;1.75;3.0;2.0;2.0;2.0;2.75;0.0;1.25;0.5;0.5;0.5;0.75;2.0;0.75;0.25;0.25;-0.222656;0.03418;0.984375;-0.91;-0.98;0.56;233.0;-0.120603;-0.131792
1.76;2.75;2.0;2.5;2.25;2.5;1.75;0.25;0.5;0.5;0.25;0.25;0.5;1.75;1.75;0.25;0.5;-0.179199;0.030273;0.995117;-0.63;0.49;0.49;229.0;-0.119557;-0.06627;1.5;3.0;2.0;2.25;2.0;2.75;0.0;1.5;0.5;0.25;0.5;0.75;2.0;0.75;0.25;0.5;-0.223633;0.030762;0.979492;-0.77;-1.05;0.63;236.0;-0.118758;-0.143927
1.77;2.5;2.0;2.25;2.25;2.5;1.75;0.25;1.0;0.5;0.25;0.25;0.75;1.75;1.75;0.25;0.25;-0.181641;0.032715;0.998047;-0.63;0.42;0.49;233.0;-0.109363;-0.083329;1.75;3.5;2.5;2.75;2.0;2.75;0.0;1.5;0.5;0.25;0.5;0.75;1.75;1.0;0.25;0.25;-0.222168;0.034668;0.984375;-0.91;-0.98;0.63;255.0;-0.135906;-0.131029
1.78;3.0;2.0;2.75;2.25;2.25;1.75;0.25;1.0;0.5;0.25;0.25;0.75;1.75;1.75;0.0;0.25;-0.18457;0.029297;0.992188;-0.56;0.49;0.63;239.0;-0.126313;-0.076201;2.0;3.0;2.0;2.25;2.0;2.5;0.0;1.0;0.75;0.25;0.75;1.0;1.75;1.0;0.25;0.25;-0.225098;0.033203;0.983398;-0.91;-1.05;0.56;238.0;-0.115741;-0.115565
1.79;2.5;2.0;3.0;2.25;2.5;1.75;0.25;1.25;0.5;0.25;0.25;0.5;1.75;1.25;0.25;0.25;-0.177246;0.027344;0.995117;-0.7;0.56;0.49;239.0;-0.127638;-0.084606;1.5;3.0;2.0;2.0;2.0;2.5;0.0;1.0;0.75;0.25;0.75;1.0;1.75;0.75;0.0;0.25;-0.219727;0.036133;0.985352;-0.91;-0.98;0.7;225.0;-0.118346;-0.123213
1.8;2.5;2.0;2.75;2.25;2.5;1.75;0.25;1.0;0.5;0.25;0.25;0.5;1.75;1.5;0.25;0.25;-0.17627;0.029785;0.993652;-0.63;0.63;0.56;234.0;-0.122531;-0.078803;1.5;3.0;2.0;2.25;2.0;2.5;0.0;1.25;0.5;0.5;0.75;1.0;2.0;0.75;0.25;0.25;-0.223145;0.030273;0.98584;-0.98;-1.12;0.63;236.0;-0.110729;-0.135881
1.81;3.0;2.0;2.5;2.25;2.5;1.75;0.25;1.0;0.75;0.0;0.25;0.5;1.75;1.75;0.0;0.5;-0.183105;0.030762;0.990234;-0.56;0.56;0.56;238.0;-0.124173;-0.071818;1.5;3.0;2.0;2.5;2.0;2.75;0.0;1.0;0.5;0.5;0.75;1.0;2.0;0.75;0.5;0.5;-0.222656;0.033691;0.984375;-0.91;-1.19;0.63;242.0;-0.106108;-0.134717
1.82;3.25;2.0;2.5;2.25;2.5;1.75;0.25;1.0;1.0;0.0;0.25;0.5;1.75;1.5;0.25;0.25;-0.182617;0.029785;0.993164;-0.56;0.49;0.63;244.0;-0.123631;-0.065669;1.75;3.0;2.0;2.5;2.0;2.5;0.0;1.0;0.75;0.25;0.75;0.75;2.0;0.75;0.25;0.5;-0.221191;0.032227;0.983398;-0.77;-1.12;0.63;237.0;-0.11779;-0.124977
1.83;2.5;2.0;2.75;2.25;2.5;1.75;0.25;1.0;1.0;0.25;0.25;0.5;1.75;1.5;0.25;0.5;-0.178711;0.029785;1.000977;-0.7;0.56;0.42;243.0;-0.108411;-0.069822;2.0;3.0;2.0;2.5;2.0;2.75;0.0;1.0;0.75;0.25;0.75;0.75;2.0;0.75;0.0;0.5;-0.222656;0.033691;0.98291;-0.84;-0.91;0.63;240.0;-0.12785;-0.124565
1.84;2.5;2.0;3.0;2.25;2.25;1.5;0.25;1.0;1.0;0.25;0.25;0.5;2.0;1.75;0.25;0.25;-0.182129;0.025879;0.994141;-0.63;0.56;0.49;243.0;-0.104821;-0.066904;1.75;3.0;2.0;2.5;2.0;2.25;0.0;1.0;0.5;0.25;0.5;0.75;2.0;0.75;0.25;0.5;-0.21582;0.03418;0.980469;-0.91;-1.05;0.63;228.0;-0.127528;-0.129428
1.85;2.5;2.0;2.75;2.25;2.5;1.75;0.25;0.75;1.0;0.25;0.25;0.5;2.0;1.75;0.25;0.0;-0.183105;0.028809;0.994141;-0.7;0.49;0.56;240.0;-0.108095;-0.062683;2.0;3.0;2.0;2.5;2.25;2.75;0.0;1.0;0.5;0.5;0.5;0.75;1.75;0.75;0.25;0.25;-0.216309;0.033203;0.984863;-0.91;-0.98;0.63;239.0;-0.132959;-0.121059
1.86;2.75;2.0;2.75;2.25;2.5;1.75;0.25;0.75;0.75;0.25;0.25;0.5;2.0;1.75;0.25;0.25;-0.182617;0.026855;0.995605;-0.63;0.63;0.49;241.0;-0.114094;-0.067215;2.0;3.5;2.0;2.5;2.0;2.75;0.0;1.25;0.5;0.5;0.5;0.75;1.75;0.75;0.0;0.25;-0.218262;0.036133;0.981934;-0.91;-0.98;0.63;242.0;-0.143294;-0.129379
1.87;3.0;2.0;2.75;2.25;2.5;1.75;0.25;1.0;0.75;0.25;0.25;0.5;1.75;1.75;0.25;0.25;-0.183105;0.031738;0.995117;-0.63;0.49;0.56;245.0;-0.11842;-0.066908;1.75;3.5;2.0;2.5;2.0;2.75;0.0;1.25;0.5;0.5;0.5;0.75;1.75;0.75;0.0;0.25;-0.219727;0.031738;0.982422;-0.91;-0.98;0.7;239.0;-0.140218;-0.132197
1.88;3.0;2.0;2.75;2.25;2.5;1.75;0.25;1.0;0.75;0.25;0.25;0.5;1.75;1.75;0.25;0.25;-0.179199;0.033691;0.996094;-0.63;0.49;0.63;245.0;-0.11842;-0.066908;2.0;3.25;2.0;2.25;2.0;2.75;0.0;1.0;0.5;0.25;0.75;1.0;1.75;0.75;0.25;0.25;-0.222656;0.036133;0.978516;-0.77;-0.98;0.56;238.0;-0.130125;-0.126783
1.89;2.5;2.0;2.75;2.25;2.5;1.75;0.25;1.0;1.0;0.25;0.25;0.25;1.75;1.5;0.25;0.25;-0.181641;0.027344;0.997559;-0.63;0.56;0.56;238.0;-0.115158;-0.065576;2.0;3.0;2.0;2.25;2.0;2.5;0.0;1.0;0.25;0.25;0.75;1.0;1.75;0.75;0.25;0.5;-0.212402;0.031738;0.985352;-0.84;-0.91;0.63;230.0;-0.129553;-0.131891
1.9;3.0;2.0;2.75;2.25;2.5;1.75;0.25;1.0;1.0;0.0;0.25;0.5;1.75;2.0;0.25;0.25;-0.180176;0.02832;0.994141;-0.63;0.56;0.49;249.0;-0.112171;-0.061208;2.0;3.0;2.0;2.25;2.0;2.5;0.0;1.0;0.25;0.5;0.5;1.0;1.75;0.75;0.25;0.5;-0.217285;0.03418;0.982422;-0.84;-0.98;0.56;230.0;-0.129401;-0.129675
1.91;3.25;2.0;2.75;2.25;2.5;1.75;0.25;1.0;0.75;0.0;0.25;0.5;1.5;1.75;0.25;0.25;-0.177246;0.022461;0.996582;-0.63;0.56;0.49;243.0;-0.128719;-0.062568;1.5;3.0;2.0;2.25;2.0;2.5;0.0;1.0;0.5;0.25;0.5;1.0;1.75;0.75;0.25;0.5;-0.217773;0.033203;0.983398;-0.84;-0.98;0.63;226.0;-0.121075;-0.13169
1.92;3.25;2.0;2.5;2.25;2.5;1.75;0.25;1.0;0.5;0.0;0.25;0.5;1.75;1.5;0.25;0.25;-0.179688;0.032715;0.993164;-0.7;0.7;0.49;237.0;-0.135123;-0.075952;2.0;3.0;2.0;2.5;2.0;2.5;0.0;1.0;0.5;0.25;0.5;0.75;1.75;0.75;0.25;0.5;-0.214355;0.035645;0.986328;-0.77;-1.05;0.56;231.0;-0.134242;-0.124976
1.93;3.0;2.0;2.75;2.25;2.5;1.75;0.25;1.0;1.0;0.25;0.25;0.5;1.75;1.75;0.25;0.25;-0.187012;0.028809;0.987793;-0.56;0.7;0.56;249.0;-0.113038;-0.062007;2.5;3.25;2.0;2.5;2.0;3.0;0.0;1.0;0.5;0.25;0.5;0.75;1.75;1.0;0.25;0.25;-0.216797;0.035645;0.982422;-0.84;-0.98;0.63;246.0;-0.141567;-0.119614
1.94;3.25;2.0;2.75;2.25;2.5;1.75;0.25;1.0;0.5;0.25;0.25;0.75;1.75;1.5;0.0;0.25;-0.183594;0.026367;0.996582;-0.63;0.56;0.63;242.0;-0.134692;-0.07477;2.5;3.25;2.0;2.5;2.0;2.75;0.0;1.0;0.75;0.5;0.75;1.0;1.75;1.0;0.5;0.5;-0.215332;0.02832;0.983887;-0.77;-0.98;0.56;260.0;-0.114935;-0.113028
1.95;3.0;2.0;2.5;2.25;2.25;1.75;0.25;1.0;0.5;0.0;0.25;0.25;1.5;1.5;0.25;0.25;-0.182617;0.028809;0.990234;-0.56;0.49;0.56;225.0;-0.139464;-0.073262;2.25;3.75;2.0;2.5;2.0;2.5;0.0;1.25;0.5;0.25;0.5;1.0;1.75;1.0;0.25;0.5;-0.214355;0.033691;0.984863;-0.84;-0.98;0.63;251.0;-0.134764;-0.127165
1.96;3.25;2.0;2.75;2.25;2.5;1.75;0.25;1.0;0.75;0.0;0.25;0.25;1.5;1.75;0.25;0.25;-0.178223;0.029297;0.991211;-0.63;0.56;0.56;240.0;-0.132765;-0.059772;2.0;3.25;2.0;2.5;2.0;2.5;0.0;1.25;0.5;0.25;0.5;1.0;1.75;1.0;0.0;0.25;-0.216797;0.031738;0.980469;-0.7;-0.91;0.63;239.0;-0.135215;-0.128522
1.97;3.25;2.0;2.75;2.25;2.5;1.75;0.25;1.0;0.5;0.0;0.25;0.5;1.75;1.5;0.25;0.25;-0.178223;0.034668;0.999512;-0.56;0.63;0.56;240.0;-0.136783;-0.073848;2.0;2.75;2.0;2.5;2.0;2.75;0.0;1.0;0.75;0.0;0.5;1.0;1.75;1.0;0.0;0.25;-0.221191;0.037598;0.983887;-0.77;-0.91;0.49;233.0;-0.13012;-0.12102
1.98;3.25;2.0;2.75;2.25;2.25;1.75;0.25;1.0;0.5;0.0;0.25;0.5;1.75;1.25;0.25;0.25;-0.180664;0.027344;0.992676;-0.56;0.56;0.56;234.0;-0.142375;-0.078072;2.0;3.0;2.0;2.25;2.0;2.5;0.0;1.0;0.75;0.25;0.5;1.0;1.75;0.75;0.0;0.25;-0.217285;0.030273;0.984863;-0.84;-0.98;0.56;230.0;-0.131817;-0.118929
1.99;3.0;2.0;2.75;2.25;2.25;1.75;0.25;1.0;0.75;0.0;0.25;0.5;1.75;1.5;0.0;0.25;-0.185059;0.031738;0.994629;-0.63;0.49;0.63;234.0;-0.134374;-0.072369;1.75;3.25;2.25;2.25;2.0;2.25;0.0;1.0;0.5;0.25;0.5;1.0;1.75;0.75;0.0;0.25;-0.220215;0.032715;0.983887;-0.7;-0.91;0.63;227.0;-0.139255;-0.123681
2.0;3.0;2.0;2.75;2.25;2.5;1.75;0.25;1.0;0.5;0.25;0.0;0.5;1.75;1.5;0.25;0.25;-0.181641;0.032715;0.990723;-0.56;0.56;0.49;237.0;-0.133451;-0.07387;1.75;3.5;2.0;2.5;2.0;2.5;0.0;1.25;0.25;0.5;0.25;0.75;1.75;0.75;0.25;0.25;-0.213867;0.039062;0.987793;-0.84;-0.98;0.63;233.0;-0.143913;-0.136234
2.01;3.0;2.0;2.75;2.25;2.5;1.75;0.25;0.75;0.5;0.25;0.0;0.5;1.75;1.5;0.25;0.25;-0.182617;0.024902;0.993164;-0.63;0.63;0.56;233.0;-0.13562;-0.068178;2.5;3.5;1.75;2.5;2.0;2.5;0.0;1.25;0.5;0.5;0.5;1.0;1.75;0.75;0.25;0.5;-0.216797;0.029785;0.98291;-0.7;-0.98;0.63;249.0;-0.13418;-0.127402
2.02;3.25;2.0;2.75;2.25;2.25;1.75;0.25;1.0;0.75;0.25;0.0;0.5;1.75;1.5;0.25;0.25;-0.175781;0.03125;0.99707;-0.49;0.49;0.56;240.0;-0.130926;-0.06822;2.0;3.25;1.75;2.5;2.0;2.5;0.0;1.0;0.5;0.5;0.5;0.75;1.5;0.75;0.25;0.5;-0.216309;0.033691;0.979492;-0.84;-0.98;0.63;231.0;-0.134076;-0.122502
2.03;3.25;2.0;2.75;2.25;2.5;1.75;0.25;1.0;0.75;0.25;0.25;0.5;1.75;1.75;0.25;0.25;-0.18457;0.028809;0.997559;-0.63;0.49;0.49;248.0;-0.121665;-0.064905;1.75;3.25;2.0;2.5;2.0;2.5;0.0;1.0;0.75;0.25;0.5;0.75;1.75;0.25;0.25;0.5;-0.220215;0.036621;0.982422;-0.84;-0.98;0.7;230.0;-0.138996;-0.128203
2.04;3.0;2.0;2.75;2.25;2.5;1.75;0.25;1.0;0.625;0.25;0.25;0.5;1.75;1.75;0.25;0.25;-0.181152;0.0280765;0.9987794999999999;-0.56;0.49;0.525;243.5;-0.1211605;-0.0694985;1.75;3.5;1.75;2.5;2.0;2.5;0.0;1.0;0.75;0.25;0.5;1.0;1.75;0.25;0.25;0.5;-0.220215;0.034668;0.981934;-0.84;-0.98;0.63;232.0;-0.136034;-0.133544
2.05;2.75;2.0;2.75;2.25;2.5;1.75;0.25;1.0;0.5;0.25;0.25;0.5;1.75;1.75;0.25;0.25;-0.177734;0.027344;1.0;-0.49;0.49;0.56;239.0;-0.120656;-0.074092;2.0;3.75;2.0;2.5;2.0;2.5;0.0;1.0;0.75;0.25;0.5;1.25;2.0;0.25;0.0;0.5;-0.21582;0.029785;0.981934;-0.77;-1.05;0.63;243.0;-0.143045;-0.133967
2.06;2.5;2.0;2.75;2.25;2.25;1.75;0.25;1.0;0.75;0.25;0.25;0.5;1.75;1.5;0.0;0.25;-0.177246;0.031738;0.994629;-0.49;0.42;0.56;232.0;-0.123207;-0.075124;2.0;3.25;2.25;2.5;2.0;2.5;0.0;1.0;0.25;0.25;0.5;1.0;1.75;0.5;0.0;0.5;-0.21875;0.032715;0.984863;-0.84;-0.98;0.63;231.0;-0.153049;-0.134476
2.07;2.5;2.0;2.75;2.25;2.25;1.75;0.25;1.0;0.5;0.0;0.25;0.25;1.75;1.75;0.25;0.5;-0.187012;0.027832;0.993652;-0.63;0.56;0.56;229.0;-0.122619;-0.078601;2.0;3.5;2.25;2.5;2.0;2.75;0.0;1.25;0.5;0.25;0.5;0.75;1.75;0.5;0.25;0.25;-0.215332;0.030273;0.984863;-0.77;-0.98;0.56;243.0;-0.148134;-0.131273
2.08;2.5;2.0;2.75;2.25;2.25;1.75;0.25;1.0;0.75;0.25;0.25;0.5;1.75;2.0;0.25;0.25;-0.183594;0.033203;0.989258;-0.63;0.56;0.56;239.0;-0.10644;-0.070301;2.0;3.5;2.0;2.5;2.0;2.5;0.0;1.25;0.5;0.25;0.5;0.5;1.75;0.25;0.0;0.25;-0.213379;0.031738;0.981445;-0.7;-0.98;0.56;229.0;-0.163676;-0.134057
2.09;3.25;2.0;2.75;2.25;2.25;1.75;0.25;1.0;0.75;0.25;0.25;0.5;1.75;2.0;0.25;0.25;-0.180664;0.021484;1.001953;-0.56;0.56;0.56;248.0;-0.116612;-0.064161;2.0;3.0;2.0;2.25;2.0;2.25;0.25;1.0;0.75;0.25;0.5;0.5;1.75;0.25;0.0;0.25;-0.219238;0.036621;0.980957;-0.7;-0.98;0.63;221.0;-0.147896;-0.111753
2.1;3.25;2.0;2.75;2.25;2.5;1.75;0.25;1.0;1.0;0.25;0.25;0.5;1.75;1.75;0.25;0.25;-0.183105;0.032715;0.994141;-0.63;0.35;0.56;252.0;-0.116298;-0.060088;2.25;3.25;2.0;2.5;2.0;2.5;0.0;1.0;0.5;0.25;0.5;1.0;2.0;0.5;0.25;0.25;-0.214844;0.02832;0.98291;-0.77;-0.91;0.63;238.0;-0.141684;-0.129805
2.11;3.0;2.0;2.75;2.25;2.25;1.75;0.25;1.0;1.0;0.25;0.25;0.5;1.75;1.75;0.0;0.5;-0.185547;0.024414;0.995605;-0.7;0.7;0.49;245.0;-0.116124;-0.064806;2.25;3.5;2.25;2.75;2.25;2.75;0.0;1.0;0.5;0.25;0.5;0.75;1.75;1.25;0.25;0.25;-0.220703;0.032715;0.98584;-0.77;-0.98;0.7;254.0;-0.139213;-0.114711
2.12;3.25;2.0;2.75;2.25;2.25;1.75;0.25;1.0;0.75;0.25;0.25;0.5;1.75;1.25;0.25;0.5;-0.177246;0.027344;0.990234;-0.56;0.63;0.56;242.0;-0.128918;-0.072641;1.75;3.25;2.25;2.5;2.0;2.75;0.0;1.0;0.25;0.5;0.5;1.0;1.75;0.75;0.25;0.25;-0.217285;0.033691;0.984375;-0.84;-0.91;0.63;238.0;-0.136266;-0.131939
2.13;3.25;2.0;2.75;2.25;2.25;1.75;0.25;0.75;0.75;0.25;0.25;0.5;1.75;1.5;0.25;0.5;-0.179199;0.027344;0.996582;-0.63;0.49;0.56;240.0;-0.125707;-0.064693;2.0;2.75;2.25;2.5;2.25;2.75;0.0;1.25;0.25;0.25;0.5;0.75;1.75;0.5;0.0;0.5;-0.217285;0.033691;0.987793;-0.84;-0.91;0.56;233.0;-0.14894;-0.135644
2.14;3.25;2.0;2.75;2.25;2.5;1.75;0.25;0.75;0.75;0.25;0.25;0.5;1.75;1.5;0.25;0.5;-0.185547;0.027344;0.996582;-0.7;0.56;0.56;243.0;-0.125701;-0.063139;2.0;3.0;2.25;2.5;2.25;2.75;0.0;1.0;0.5;0.25;0.25;0.75;1.75;1.0;0.25;0.25;-0.217285;0.037109;0.980469;-0.84;-0.91;0.63;238.0;-0.138103;-0.117724
2.15;3.25;2.25;2.5;2.25;2.5;1.75;0.25;1.0;0.75;0.25;0.25;0.5;1.75;1.75;0.0;0.25;-0.182129;0.023926;0.993652;-0.63;0.63;0.56;245.0;-0.129104;-0.067665;2.0;3.0;2.0;2.5;2.0;2.75;0.0;1.0;0.5;0.25;0.25;1.0;1.75;0.75;0.25;0.25;-0.216797;0.03418;0.990234;-0.77;-1.12;0.63;233.0;-0.1378;-0.127888
2.16;3.25;2.0;2.75;2.25;2.5;1.75;0.25;1.0;1.0;0.25;0.25;0.5;1.75;1.75;0.25;0.25;-0.183105;0.029297;0.994141;-0.63;0.63;0.56;252.0;-0.116298;-0.060088;2.0;3.25;2.0;2.25;2.0;2.75;0.0;1.25;0.75;0.25;0.5;1.0;1.75;0.75;0.0;0.25;-0.21582;0.033203;0.987793;-0.77;-0.91;0.63;240.0;-0.132988;-0.126065
2.17;3.25;2.0;2.75;2.25;2.5;1.75;0.25;1.0;0.75;0.25;0.25;0.5;1.75;1.25;0.25;0.5;-0.179688;0.023926;0.992188;-0.77;0.7;0.49;245.0;-0.128873;-0.071001;2.0;3.0;2.0;2.5;2.0;2.75;0.0;1.25;0.75;0.25;0.5;1.0;2.0;0.75;0.0;0.25;-0.220215;0.02832;0.981445;-0.77;-0.91;0.63;243.0;-0.12902;-0.130123
2.18;3.75;2.0;2.75;2.25;2.5;1.75;0.25;1.0;0.75;0.25;0.0;0.5;1.75;1.25;0.0;0.5;-0.182617;0.027344;0.989746;-0.56;0.63;0.42;245.0;-0.145624;-0.066194;2.0;3.25;2.25;2.5;2.0;2.75;0.0;1.0;0.5;0.5;0.5;0.75;1.75;0.75;0.0;0.25;-0.217285;0.035156;0.983887;-0.77;-0.98;0.56;238.0;-0.144255;-0.121607
2.19;2.75;2.0;2.75;2.25;2.5;1.75;0.25;0.75;0.75;0.25;0.0;0.5;1.5;1.75;0.0;0.25;-0.181152;0.02832;0.995117;-0.56;0.56;0.56;230.0;-0.130602;-0.058363;2.0;3.5;2.25;2.5;2.0;2.75;0.0;1.0;0.5;0.25;0.25;0.75;1.75;0.75;0.0;0.25;-0.223633;0.02832;0.980469;-0.77;-0.98;0.63;235.0;-0.156328;-0.124396
2.2;2.5;2.25;2.75;2.25;2.5;1.75;0.25;1.0;0.75;0.25;0.25;0.5;1.5;1.75;0.0;0.25;-0.182129;0.027832;0.990723;-0.63;0.7;0.49;237.0;-0.124012;-0.068052;2.0;3.75;2.25;2.5;2.0;2.25;0.0;1.0;0.5;0.25;0.25;0.75;1.75;0.5;0.0;0.25;-0.21582;0.040039;0.980469;-0.84;-1.05;0.63;229.0;-0.165052;-0.124059
2.21;2.875;2.25;2.75;2.25;2.5;1.75;0.25;1.0;0.75;0.25;0.25;0.5;1.625;1.75;0.125;0.25;-0.1833495;0.024658;0.9956055;-0.56;0.665;0.56;244.0;-0.1243205;-0.06698699999999999;2.25;3.0;2.0;2.5;1.75;2.25;0.0;1.0;0.5;0.25;0.25;0.75;1.75;0.5;0.0;0.25;-0.214844;0.033691;0.984375;-0.77;-1.05;0.63;219.0;-0.158578;-0.125111
2.22;3.25;2.25;2.75;2.25;2.5;1.75;0.25;1.0;0.75;0.25;0.25;0.5;1.75;1.75;0.25;0.25;-0.18457;0.021484;1.000488;-0.49;0.63;0.63;251.0;-0.124629;-0.065922;2.25;3.0;2.0;2.5;2.0;2.5;0.0;1.0;0.5;0.25;0.5;0.75;1.75;0.5;0.0;0.25;-0.217773;0.033691;0.984863;-0.7;-0.91;0.63;227.0;-0.15322;-0.124469
2.23;3.0;2.0;2.75;2.25;2.5;1.75;0.25;1.0;1.0;0.25;0.0;0.5;1.75;1.75;0.25;0.25;-0.180664;0.02832;0.995605;-0.49;0.49;0.63;246.0;-0.116976;-0.061381;2.0;3.25;2.0;2.5;2.0;2.5;0.0;1.0;0.75;0.25;0.5;0.75;2.25;1.5;0.25;0.5;-0.214355;0.040527;0.984863;-0.84;-1.12;0.63;249.0;-0.110454;-0.117564
2.24;2.75;2.25;2.75;2.25;2.5;1.75;0.25;1.0;0.75;0.5;0.0;0.5;1.5;1.25;0.25;0.25;-0.177246;0.029785;0.991211;-0.56;0.42;0.63;238.0;-0.131245;-0.068761;2.0;3.5;2.0;2.5;2.0;2.5;0.0;1.25;0.5;0.5;0.5;0.75;1.75;1.25;0.25;0.5;-0.219238;0.036133;0.984375;-0.77;-0.98;0.7;248.0;-0.1234;-0.122464
2.25;3.25;2.25;2.75;2.25;2.5;1.75;0.25;1.0;0.75;0.25;0.25;0.5;1.5;1.5;0.25;0.25;-0.181641;0.027344;0.995605;-0.56;0.56;0.63;246.0;-0.13251;-0.064434;2.25;3.5;2.0;2.5;2.0;2.75;0.0;1.0;0.5;0.5;0.5;0.75;1.75;1.25;0.0;0.5;-0.220703;0.036133;0.984863;-0.84;-0.98;0.56;247.0;-0.135;-0.117548
2.26;3.25;2.25;2.75;2.25;2.25;1.75;0.25;0.75;1.0;0.25;0.25;0.5;1.75;1.75;0.25;0.25;-0.177734;0.032715;0.990234;-0.7;0.7;0.49;247.0;-0.121002;-0.057057;1.75;3.0;2.0;2.5;2.0;2.75;0.0;1.25;0.5;0.25;0.5;0.75;1.75;1.0;0.0;0.5;-0.220703;0.033203;0.981934;-0.84;-0.91;0.63;235.0;-0.13028;-0.131921
2.27;2.5;2.25;2.75;2.25;2.25;1.75;0.25;0.75;0.5;0.25;0.25;0.75;1.75;1.75;0.25;0.25;-0.179688;0.026855;1.0;-0.63;0.56;0.49;234.0;-0.118248;-0.076103;1.75;3.0;2.0;2.5;2.0;2.75;0.0;1.0;0.5;0.0;0.5;1.0;1.75;1.0;0.25;0.25;-0.222168;0.034668;0.979004;-0.84;-0.98;0.63;232.0;-0.129217;-0.129916
2.28;2.5;2.125;2.75;2.25;2.375;1.75;0.25;0.875;0.5;0.25;0.125;0.75;1.625;1.75;0.25;0.25;-0.18212899999999999;0.026123;0.998291;-0.665;0.56;0.525;234.0;-0.11929500000000001;-0.07536200000000001;1.75;3.75;2.0;2.25;2.0;2.75;0.0;1.0;0.75;0.25;0.5;1.0;1.75;1.0;0.25;0.25;-0.21875;0.03418;0.984375;-0.84;-1.05;0.56;243.0;-0.126211;-0.121665
2.29;2.5;2.0;2.75;2.25;2.5;1.75;0.25;1.0;0.5;0.25;0.0;0.75;1.5;1.75;0.25;0.25;-0.18457;0.025391;0.996582;-0.7;0.56;0.56;234.0;-0.120342;-0.074621;2.0;3.5;2.25;2.5;2.0;2.5;0.0;1.0;0.25;0.25;0.5;0.75;1.75;1.0;0.0;0.5;-0.222168;0.032227;0.987793;-0.84;-0.91;0.63;235.0;-0.149139;-0.126686
2.3;3.0;2.0;2.75;2.25;2.5;1.75;0.25;1.0;0.75;0.25;0.0;0.75;1.75;1.25;0.25;0.25;-0.183594;0.030273;0.991211;-0.7;0.63;0.56;241.0;-0.128834;-0.073776;2.0;3.25;2.25;2.5;2.0;2.5;0.0;1.25;0.25;0.0;0.5;1.0;1.75;0.75;0.0;0.25;-0.218262;0.03418;0.98877;-0.7;-0.98;0.56;233.0;-0.152961;-0.137246
2.31;4.0;2.25;2.75;2.25;2.25;1.5;0.25;0.75;0.75;0.0;0.0;0.75;1.75;1.75;0.25;0.25;-0.186523;0.026367;0.98877;-0.63;0.63;0.49;246.0;-0.14017;-0.057049;2.0;3.25;2.25;2.75;2.0;2.75;0.0;1.0;0.5;0.25;0.25;1.0;1.75;0.5;0.25;0.25;-0.216309;0.032715;0.983887;-0.84;-0.91;0.63;239.0;-0.149592;-0.129703
2.32;3.0;2.25;2.75;2.25;2.5;1.75;0.25;0.75;0.5;0.25;0.0;0.5;1.75;1.5;0.25;0.25;-0.182129;0.03125;0.990234;-0.77;0.56;0.49;235.0;-0.138633;-0.069228;2.0;3.25;2.25;2.75;2.0;2.75;0.0;1.0;0.5;0.25;0.5;0.75;1.75;1.25;0.25;0.25;-0.220215;0.035156;0.98584;-0.84;-0.98;0.56;246.0;-0.133504;-0.118902
2.33;3.0;2.125;2.75;2.25;2.375;1.625;0.25;0.75;0.625;0.25;0.0;0.5;1.625;1.5;0.125;0.375;-0.180664;0.027832000000000003;0.9956054999999999;-0.665;0.525;0.525;230.5;-0.13739400000000002;-0.0641795;2.5;3.5;2.25;2.5;2.0;2.75;0.0;1.0;0.5;0.25;0.5;0.75;1.75;1.25;0.25;0.25;-0.21875;0.037598;0.989258;-0.84;-0.98;0.77;251.0;-0.140583;-0.112981
2.34;3.0;2.0;2.75;2.25;2.25;1.5;0.25;0.75;0.75;0.25;0.0;0.5;1.5;1.5;0.0;0.5;-0.179199;0.024414;1.000977;-0.56;0.49;0.56;226.0;-0.136155;-0.059131;2.0;3.25;2.0;2.5;2.0;2.5;0.0;1.0;0.5;0.25;0.25;0.75;1.75;1.0;0.25;0.5;-0.214844;0.032715;0.981934;-0.84;-0.91;0.63;233.0;-0.136267;-0.122521
2.35;3.75;2.25;2.75;2.25;2.5;1.75;0.25;1.0;0.5;0.25;0.25;0.5;1.5;1.75;0.0;0.25;-0.181152;0.024902;0.996094;-0.7;0.49;0.56;248.0;-0.145451;-0.062893;1.75;3.25;2.0;2.5;2.0;2.5;0.0;1.0;0.5;0.25;0.25;0.75;2.0;1.0;0.25;0.5;-0.217773;0.034668;0.978027;-0.84;-0.98;0.63;233.0;-0.12993;-0.128763
2.36;2.75;2.0;3.0;2.5;2.5;1.75;0.25;1.0;0.5;0.25;0.25;0.5;1.5;1.75;0.25;0.25;-0.183594;0.027832;0.994629;-0.49;0.56;0.56;243.0;-0.127351;-0.070143;1.75;3.5;2.25;2.5;2.0;2.25;0.0;1.0;0.25;0.25;0.25;0.75;1.5;0.75;0.0;0.5;-0.217285;0.032715;0.985352;-0.77;-0.98;0.56;222.0;-0.159949;-0.127496
2.37;3.25;2.0;2.75;2.25;2.5;1.75;0.25;0.75;0.5;0.25;0.0;0.5;1.5;1.25;0.25;0.25;-0.176758;0.027832;0.993164;-0.7;0.7;0.56;231.0;-0.147532;-0.064465;2.75;3.5;2.25;2.75;2.0;2.75;0.0;1.25;0.25;0.25;0.5;0.75;1.5;0.75;0.25;0.5;-0.215332;0.035645;0.981934;-0.91;-0.98;0.56;252.0;-0.158937;-0.125197
2.38;3.75;2.0;2.75;2.25;2.5;1.75;0.25;0.75;0.75;0.25;0.0;0.75;1.5;1.5;0.25;0.25;-0.185547;0.030762;0.995117;-0.7;0.63;0.56;245.0;-0.138051;-0.055947;2.25;3.75;2.25;2.75;2.0;2.75;0.0;1.25;0.25;0.25;0.25;0.5;1.5;0.75;0.25;0.5;-0.219727;0.036133;0.987793;-0.84;-0.91;0.63;243.0;-0.164806;-0.129159
2.39;3.75;2.25;2.75;2.25;2.5;1.75;0.25;1.0;0.75;0.25;0.25;0.5;1.5;1.25;0.25;0.25;-0.186035;0.022949;0.993652;-0.63;0.63;0.56;249.0;-0.143722;-0.062757;2.0;3.25;2.25;2.75;2.0;2.75;0.0;1.25;0.25;0.25;0.5;0.5;1.75;0.75;0.25;0.5;-0.211914;0.032227;0.991699;-0.84;-1.05;0.7;241.0;-0.148804;-0.134281
2.4;3.75;2.125;2.75;2.375;2.375;1.75;0.25;1.0;0.625;0.25;0.25;0.375;1.5;1.5;0.25;0.375;-0.18212899999999999;0.0268555;0.9934080000000001;-0.665;0.63;0.49;248.0;-0.141523;-0.0635425;2.0;3.25;2.0;2.5;2.0;2.75;0.0;1.25;0.25;0.25;0.5;0.5;1.75;0.75;0.25;0.5;-0.222168;0.038086;0.98584;-0.77;-0.98;0.63;234.0;-0.145512;-0.136031
2.41;3.75;2.0;2.75;2.5;2.25;1.75;0.25;1.0;0.5;0.25;0.25;0.25;1.5;1.75;0.25;0.5;-0.178223;0.030762;0.993164;-0.7;0.63;0.42;247.0;-0.139324;-0.064328;2.5;3.5;2.25;2.75;2.0;2.75;0.0;1.0;0.25;0.25;0.5;0.75;1.75;0.75;0.25;0.5;-0.216309;0.036133;0.980469;-0.84;-1.05;0.63;247.0;-0.155485;-0.126589
2.42;3.25;2.0;3.0;2.25;2.25;1.75;0.25;1.0;0.5;0.0;0.25;0.5;1.5;1.25;0.25;0.25;-0.181152;0.029297;0.996094;-0.7;0.56;0.56;235.0;-0.1471;-0.072055;2.5;3.5;2.25;3.0;2.0;2.75;0.0;1.0;0.25;0.25;0.5;1.0;1.5;0.75;0.0;0.5;-0.217285;0.035156;0.98584;-0.91;-0.98;0.56;248.0;-0.162441;-0.127069
2.43;4.0;2.25;3.0;2.25;2.5;1.75;0.25;0.75;0.25;0.0;0.0;0.25;1.5;1.5;0.25;0.25;-0.18457;0.033203;0.996094;-0.7;0.7;0.49;238.0;-0.170587;-0.058849;2.5;3.25;2.25;3.0;2.0;2.75;0.0;1.0;0.25;0.25;0.5;0.75;1.5;0.75;0.0;0.5;-0.21875;0.028809;0.984863;-0.84;-0.91;0.7;243.0;-0.164209;-0.124665
2.44;3.75;2.25;3.0;2.5;2.25;1.75;0.25;0.75;0.5;0.25;0.25;0.5;1.5;1.5;0.25;0.0;-0.179199;0.026367;0.987305;-0.7;0.7;0.49;246.0;-0.15305;-0.059911;2.5;3.5;2.25;2.5;2.0;2.5;0.0;1.0;0.25;0.25;0.5;0.75;1.75;1.0;0.0;0.25;-0.220703;0.034668;0.98584;-0.91;-0.98;0.56;239.0;-0.158296;-0.119966
2.45;3.875;2.25;3.0;2.375;2.375;1.75;0.25;0.875;0.375;0.125;0.25;0.5;1.5;1.625;0.25;0.0;-0.18115199999999998;0.026611000000000003;0.9931639999999999;-0.63;0.7;0.49;247.5;-0.15487;-0.062006500000000006;2.25;3.0;2.25;2.75;2.0;2.75;0.0;1.0;0.25;0.25;0.5;0.5;1.75;0.75;0.0;0.25;-0.222168;0.033203;0.983398;-0.84;-0.91;0.56;232.0;-0.161556;-0.12586
2.46;4.0;2.25;3.0;2.25;2.5;1.75;0.25;1.0;0.25;0.0;0.25;0.5;1.5;1.75;0.25;0.0;-0.183105;0.026855;0.999023;-0.56;0.7;0.49;249.0;-0.15669;-0.064102;3.25;3.5;2.25;3.0;2.0;2.75;0.0;1.0;0.25;0.25;0.5;0.5;1.5;0.75;0.25;0.5;-0.215332;0.032715;0.982422;-0.84;-1.12;0.7;254.0;-0.17249;-0.114847
2.47;4.0;2.25;2.75;2.25;2.25;1.75;0.25;1.0;0.5;0.25;0.25;0.5;1.5;1.0;0.25;0.0;-0.176758;0.027344;1.000977;-0.56;0.56;0.49;242.0;-0.161325;-0.068044;2.75;3.75;2.25;3.0;2.25;2.75;0.0;1.25;0.25;0.25;0.5;0.5;1.5;0.5;0.0;0.25;-0.219727;0.040039;0.98291;-0.77;-0.91;0.56;251.0;-0.181698;-0.124798
2.48;3.75;2.25;2.75;2.25;2.25;1.75;0.25;1.0;0.5;0.25;0.25;0.5;1.5;1.0;0.0;0.0;-0.175781;0.027832;0.995605;-0.56;0.56;0.56;236.0;-0.165331;-0.069991;2.25;3.75;2.25;2.5;2.0;2.75;0.0;1.0;0.25;0.0;0.5;0.75;1.5;0.25;0.0;0.25;-0.220215;0.034668;0.984863;-0.91;-0.98;0.63;230.0;-0.183613;-0.133052
2.49;3.25;2.25;2.75;2.5;2.25;1.75;0.25;0.75;0.75;0.25;0.25;0.25;1.5;1.5;0.0;0.25;-0.182129;0.025879;0.996582;-0.63;0.7;0.49;236.0;-0.147404;-0.059263;2.5;3.75;2.25;2.5;2.0;2.75;0.0;1.0;0.5;0.25;0.5;0.75;1.5;0.5;0.0;0.5;-0.216797;0.036133;0.98291;-0.77;-0.98;0.63;243.0;-0.165722;-0.120067
2.5;3.25;2.25;3.0;2.5;2.25;1.75;0.25;1.0;0.75;0.0;0.0;0.25;1.5;1.0;0.25;0.25;-0.17334;0.029297;0.996582;-0.63;0.63;0.49;236.0;-0.16002;-0.068947;2.25;3.5;2.25;2.75;2.0;2.75;0.0;1.0;0.5;0.25;0.5;0.75;1.75;0.75;0.0;0.25;-0.219238;0.032227;0.980957;-0.77;-0.91;0.56;244.0;-0.156323;-0.122826
2.51;3.75;2.25;3.0;2.5;2.25;1.75;0.25;1.0;0.5;0.0;0.0;0.5;1.5;1.25;0.25;0.25;-0.182129;0.028809;0.994629;-0.7;0.63;0.56;243.0;-0.161967;-0.070191;2.0;3.5;2.25;2.75;2.0;2.75;0.0;1.0;0.75;0.25;0.5;0.75;1.75;0.75;0.0;0.25;-0.219727;0.035156;0.986816;-0.84;-0.91;0.63;245.0;-0.147431;-0.119697
2.52;3.875;2.25;3.0;2.5;2.25;1.75;0.25;1.0;0.375;0.0;0.125;0.5;1.5;1.125;0.125;0.25;-0.183838;0.026367500000000002;0.9941405;-0.665;0.63;0.56;241.5;-0.170369;-0.0731;2.5;3.75;2.25;2.75;2.0;2.25;0.0;1.0;0.5;0.25;0.25;0.75;1.5;0.5;0.25;0.25;-0.217773;0.028809;0.982422;-0.84;-0.98;0.7;239.0;-0.168662;-0.115968
2.53;4.0;2.25;3.0;2.5;2.25;1.75;0.25;1.0;0.25;0.0;0.25;0.5;1.5;1.0;0.0;0.25;-0.185547;0.023926;0.993652;-0.63;0.63;0.56;240.0;-0.178771;-0.076009;2.5;3.5;2.25;2.75;2.0;2.5;0.0;1.0;0.5;0.5;0.25;0.75;1.5;0.5;0.25;0.25;-0.214844;0.033691;0.98291;-0.77;-0.98;0.63;242.0;-0.161068;-0.115262
2.54;3.75;2.25;3.0;2.5;2.5;1.75;0.25;1.0;0.5;0.25;0.25;0.25;1.5;1.5;0.25;0.25;-0.17627;0.027344;0.996582;-0.63;0.56;0.56;251.0;-0.151509;-0.062752;2.25;3.5;2.25;2.75;2.0;2.5;0.0;1.0;0.5;0.25;0.25;0.5;1.5;0.5;0.25;0.25;-0.219238;0.033203;0.983398;-0.84;-0.98;0.63;233.0;-0.16759;-0.117937
2.55;4.0;2.5;3.0;2.25;2.5;1.75;0.25;1.0;0.5;0.25;0.25;0.25;1.5;1.75;0.25;0.25;-0.179688;0.028809;0.986816;-0.56;0.56;0.49;256.0;-0.150192;-0.057795;3.0;3.75;2.25;2.75;2.0;2.75;0.0;1.0;0.5;0.25;0.25;0.5;1.5;0.75;0.25;0.25;-0.216309;0.029785;0.983398;-0.84;-0.98;0.7;250.0;-0.17254;-0.109811
2.56;3.75;2.25;3.0;2.5;2.5;1.75;0.25;0.75;0.75;0.25;0.25;0.5;1.75;1.75;0.0;0.5;-0.178711;0.025879;0.989746;-0.63;0.42;0.49;257.0;-0.139299;-0.058053;2.75;3.5;2.25;2.5;2.0;2.75;0.0;1.0;0.5;0.25;0.5;0.75;1.75;0.5;0.0;0.25;-0.214355;0.029785;0.984375;-0.77;-0.91;0.56;244.0;-0.165843;-0.119061
2.57;3.75;2.0;2.75;2.5;2.25;1.75;0.25;0.75;0.75;0.25;0.25;0.25;1.5;1.75;0.0;0.25;-0.180176;0.02832;0.997559;-0.56;0.42;0.56;242.0;-0.145207;-0.051937;2.5;3.75;2.25;2.75;2.0;2.75;0.0;1.25;0.5;0.5;0.5;0.75;1.75;0.5;0.0;0.25;-0.217773;0.033691;0.985352;-0.77;-0.98;0.56;254.0;-0.160058;-0.125744
2.58;3.75;2.0;3.0;2.5;2.25;1.5;0.25;0.75;0.75;0.0;0.25;0.25;1.5;1.5;0.0;0.25;-0.17041;0.025879;0.995605;-0.63;0.56;0.49;237.0;-0.156776;-0.050983;2.25;3.5;2.25;3.0;2.25;2.75;0.0;1.25;0.25;0.25;0.5;0.75;1.5;0.5;0.0;0.25;-0.220215;0.032715;0.981934;-0.7;-0.91;0.63;246.0;-0.169607;-0.131752
2.59;3.75;2.25;2.75;2.5;2.25;1.5;0.25;0.75;1.0;0.25;0.25;0.25;1.5;1.5;0.0;0.5;-0.180176;0.024902;0.998047;-0.7;0.49;0.49;244.0;-0.144277;-0.049413;2.25;3.75;2.25;3.0;2.0;2.5;0.0;1.0;0.25;0.0;0.25;0.75;1.5;0.75;0.0;0.0;-0.220215;0.03418;0.987305;-0.7;-0.91;0.56;233.0;-0.183294;-0.126512
2.6;3.75;2.25;3.0;2.25;2.25;1.5;0.25;1.0;1.0;0.25;0.25;0.25;1.5;1.5;0.0;0.25;-0.181152;0.028809;0.992676;-0.56;0.49;0.56;247.0;-0.144837;-0.049758;2.25;3.75;2.25;2.75;2.0;2.5;0.0;1.0;0.25;0.0;0.25;0.75;1.5;0.75;0.0;0.0;-0.219238;0.037109;0.987305;-0.84;-0.98;0.56;230.0;-0.181936;-0.12523
2.61;3.25;2.25;3.0;2.5;2.25;1.25;0.25;1.0;1.0;0.25;0.25;0.25;1.5;1.0;0.0;0.25;-0.180176;0.030762;0.991699;-0.63;0.56;0.49;236.0;-0.151317;-0.057433;3.25;3.5;2.25;2.5;2.0;2.75;0.0;1.0;0.25;0.0;0.5;0.75;1.75;0.5;0.25;0.25;-0.217285;0.033203;0.985352;-0.84;-0.98;0.56;246.0;-0.175444;-0.121222
2.62;3.25;2.25;3.0;2.5;2.25;1.75;0.25;1.0;1.0;0.25;0.25;0.25;1.5;1.25;0.25;0.25;-0.182617;0.023926;0.999512;-0.49;0.56;0.56;248.0;-0.139579;-0.060693;2.75;3.75;2.25;3.0;2.25;2.75;0.0;1.0;0.5;0.25;0.5;0.75;2.25;0.5;0.0;0.25;-0.216309;0.030273;0.982422;-0.91;-0.91;0.63;260.0;-0.164541;-0.126073
2.63;3.75;2.25;2.75;2.25;2.25;1.75;0.25;0.75;0.75;0.25;0.0;0.25;1.5;1.5;0.25;0.25;-0.182617;0.026367;0.992188;-0.56;0.49;0.63;239.0;-0.149514;-0.052799;2.25;3.75;2.25;3.0;2.25;2.75;0.0;1.0;0.5;0.25;0.5;0.75;1.5;0.5;0.0;0.25;-0.212402;0.032227;0.984375;-0.84;-1.05;0.63;248.0;-0.168614;-0.121866
2.64;3.25;2.25;3.0;2.25;2.25;1.75;0.25;1.0;0.5;0.25;0.25;0.5;1.5;1.25;0.0;0.25;-0.181152;0.02832;0.993164;-0.7;0.63;0.56;237.0;-0.152018;-0.071305;2.75;3.75;2.25;2.75;2.25;2.5;0.0;1.25;0.5;0.0;0.5;0.75;1.5;0.75;0.25;0.25;-0.212402;0.028809;0.984375;-0.77;-1.05;0.56;254.0;-0.162826;-0.117059
2.65;3.25;2.25;3.0;2.25;2.25;1.75;0.25;1.0;0.5;0.25;0.25;0.5;1.5;1.75;0.0;0.25;-0.183594;0.026367;0.992676;-0.49;0.49;0.63;242.0;-0.141189;-0.06653;2.75;3.5;2.25;2.5;2.0;2.5;0.0;1.0;0.5;0.25;0.5;0.5;1.75;0.75;0.25;0.25;-0.217285;0.041016;0.984863;-0.84;-0.98;0.7;243.0;-0.158176;-0.111833
2.66;3.75;2.25;3.0;2.5;2.5;1.75;0.25;0.75;0.75;0.25;0.25;0.25;1.5;1.5;0.0;0.5;-0.181152;0.025391;0.993164;-0.63;0.49;0.63;249.0;-0.151371;-0.053692;2.5;3.75;2.25;2.5;2.0;2.5;0.0;1.0;0.25;0.25;0.5;0.5;1.5;0.75;0.25;0.5;-0.220703;0.040527;0.983887;-0.77;-1.05;0.56;239.0;-0.164225;-0.118607
2.67;4.0;2.0;2.75;2.25;2.5;1.75;0.25;1.0;0.5;0.25;0.25;0.25;1.5;1.5;0.25;0.25;-0.179688;0.027344;0.993652;-0.56;0.56;0.56;246.0;-0.148612;-0.059624;3.0;3.75;2.25;2.5;2.0;2.75;0.0;1.0;0.25;0.25;0.25;0.75;1.75;0.75;0.25;0.5;-0.21875;0.03418;0.980469;-0.84;-0.91;0.56;250.0;-0.166517;-0.120597
2.68;4.0;2.25;3.0;2.5;2.5;1.75;0.25;1.0;0.75;0.25;0.25;0.5;1.75;1.75;0.25;0.25;-0.184082;0.025391;0.992676;-0.49;0.49;0.49;265.0;-0.137;-0.060344;2.5;3.75;2.25;2.75;2.0;2.75;0.0;1.0;0.5;0.25;0.25;0.5;1.5;0.75;0.0;0.25;-0.217285;0.033691;0.979004;-0.77;-0.91;0.63;241.0;-0.174023;-0.11527
2.69;4.0;2.25;3.0;2.5;2.5;1.75;0.25;0.75;0.75;0.25;0.25;0.25;1.75;1.25;0.25;0.25;-0.182129;0.025391;0.998047;-0.49;0.63;0.56;254.0;-0.153034;-0.056587;2.25;3.25;2.0;2.75;2.0;2.75;0.0;1.0;0.5;0.25;0.25;0.5;1.5;0.75;0.25;0.25;-0.218262;0.03125;0.980957;-0.84;-0.91;0.63;233.0;-0.157638;-0.119161
2.7;3.75;2.25;3.0;2.5;2.5;1.75;0.25;1.0;0.75;0.25;0.25;0.25;1.5;1.25;0.25;0.25;-0.181641;0.024902;0.995117;-0.63;0.49;0.56;253.0;-0.150919;-0.060189;2.25;3.5;2.25;2.75;2.0;2.75;0.0;1.0;0.75;0.25;0.25;0.5;1.75;0.5;0.25;0.25;-0.222168;0.036621;0.984375;-0.7;-0.98;0.7;242.0;-0.157864;-0.117389
2.71;3.75;2.25;3.0;2.5;2.5;1.75;0.25;1.0;0.75;0.0;0.25;0.5;1.75;1.25;0.25;0.25;-0.180176;0.030273;0.993164;-0.63;0.42;0.56;255.0;-0.148259;-0.067938;2.0;3.75;2.25;2.5;2.25;2.75;0.0;1.0;0.25;0.5;0.5;0.75;2.0;0.5;0.0;0.25;-0.217773;0.034668;0.983398;-0.77;-0.98;0.56;243.0;-0.157857;-0.132262
2.72;3.75;2.25;2.75;2.25;2.25;1.75;0.25;0.75;0.75;0.0;0.25;0.5;1.5;1.5;0.25;0.0;-0.180176;0.030273;0.991211;-0.7;0.56;0.56;240.0;-0.148506;-0.056236;2.25;3.75;2.25;2.5;2.0;2.75;0.0;1.0;0.25;0.5;0.5;0.5;1.75;0.5;0.0;0.25;-0.21582;0.03418;0.98291;-0.84;-0.91;0.63;237.0;-0.16889;-0.126589
2.73;3.25;2.25;2.75;2.5;2.25;1.75;0.25;0.75;1.0;0.25;0.25;0.5;1.5;1.5;0.25;0.25;-0.175293;0.03125;0.990723;-0.56;0.56;0.56;246.0;-0.130866;-0.057446;2.5;3.75;2.25;2.5;2.0;2.75;0.0;1.0;0.25;0.5;0.5;0.5;1.5;0.75;0.25;0.5;-0.217773;0.03418;0.98291;-0.84;-0.91;0.49;245.0;-0.159376;-0.118362
2.74;3.25;2.25;3.0;2.25;2.5;1.75;0.25;1.0;0.75;0.25;0.25;0.5;1.5;1.5;0.0;0.25;-0.180176;0.028809;0.995605;-0.49;0.49;0.63;246.0;-0.140442;-0.062324;2.25;3.75;2.25;2.5;2.0;2.75;0.0;1.0;0.5;0.5;0.5;0.75;1.5;0.75;0.25;0.5;-0.222168;0.033691;0.981934;-0.77;-0.91;0.63;248.0;-0.146331;-0.117348
2.75;3.75;2.25;3.0;2.5;2.5;1.75;0.25;1.0;0.75;0.25;0.25;0.5;1.75;1.25;0.25;0.25;-0.183105;0.024414;0.994141;-0.63;0.56;0.56;258.0;-0.143975;-0.066486;2.0;3.75;2.25;3.0;2.0;2.75;0.0;1.0;0.25;0.25;0.5;0.5;1.5;0.75;0.0;0.5;-0.220215;0.032715;0.983887;-0.84;-0.98;0.63;239.0;-0.168366;-0.129006
2.76;4.0;2.25;2.75;2.5;2.5;1.75;0.25;0.75;0.75;0.25;0.25;0.5;1.75;1.5;0.25;0.25;-0.185547;0.023926;0.995605;-0.56;0.63;0.56;256.0;-0.142485;-0.058894;2.0;3.5;2.25;2.5;2.0;2.75;0.0;1.0;0.25;0.25;0.5;0.75;1.5;0.5;0.25;0.5;-0.217285;0.033203;0.986328;-0.84;-0.98;0.7;234.0;-0.156707;-0.130665
2.77;3.75;2.25;3.0;2.5;2.5;1.75;0.25;0.75;0.5;0.25;0.25;0.5;1.75;1.5;0.0;0.0;-0.18457;0.026367;0.998047;-0.56;0.63;0.49;248.0;-0.156131;-0.061999;2.25;3.5;2.25;2.5;2.0;2.75;0.0;1.0;0.25;0.25;0.5;1.0;1.75;0.75;0.25;0.25;-0.21582;0.036621;0.981445;-0.7;-0.91;0.56;243.0;-0.149796;-0.128979
2.78;3.25;2.25;3.0;2.25;2.25;1.75;0.25;0.5;0.75;0.25;0.25;0.5;1.5;1.5;0.0;0.0;-0.17627;0.027832;0.999023;-0.63;0.56;0.49;234.0;-0.148382;-0.050572;2.5;3.5;2.25;2.5;2.0;2.75;0.0;1.25;0.5;0.25;0.5;0.75;1.75;0.75;0.25;0.5;-0.223633;0.029785;0.987793;-0.7;-0.91;0.56;252.0;-0.14571;-0.124112
2.79;3.25;2.25;3.0;2.25;2.25;1.5;0.25;0.5;0.5;0.25;0.25;0.5;1.5;1.75;0.25;0.25;-0.177734;0.032715;0.993164;-0.7;0.63;0.49;234.0;-0.138908;-0.052502;2.75;3.75;2.25;2.5;2.0;2.75;0.0;1.0;0.25;0.25;0.5;0.75;1.5;0.75;0.25;0.25;-0.215332;0.037598;0.983398;-0.84;-0.91;0.63;246.0;-0.165619;-0.118755
2.8;3.25;2.0;3.0;2.5;2.25;1.75;0.25;1.0;0.5;0.25;0.25;0.25;1.75;1.75;0.5;0.25;-0.180176;0.022461;0.997559;-0.63;0.63;0.56;248.0;-0.128573;-0.068886;2.5;3.75;2.0;2.5;2.0;2.75;0.0;1.25;0.25;0.25;0.5;0.75;1.75;0.75;0.0;0.25;-0.212402;0.033203;0.980957;-0.77;-0.91;0.63;244.0;-0.162496;-0.132408
2.81;3.25;2.0;3.0;2.5;2.25;1.75;0.25;1.0;0.75;0.25;0.25;0.25;1.75;1.75;0.5;0.25;-0.181152;0.023926;0.996582;-0.63;0.56;0.49;251.0;-0.123096;-0.064001;2.25;3.75;2.25;2.75;2.0;2.75;0.0;1.0;0.5;0.25;0.5;0.5;1.5;0.75;0.0;0.5;-0.21875;0.037598;0.984375;-0.84;-1.12;0.63;243.0;-0.163371;-0.119101
2.82;3.75;2.25;3.0;2.25;2.5;1.75;0.25;0.75;0.75;0.25;0.25;0.25;1.75;1.5;0.25;0.25;-0.177246;0.029297;0.991699;-0.63;0.56;0.56;250.0;-0.143342;-0.054267;2.25;3.75;2.25;2.75;2.0;2.75;0.0;1.0;0.75;0.25;0.5;0.5;1.5;0.75;0.25;0.25;-0.22168;0.033691;0.987305;-0.77;-0.98;0.63;248.0;-0.153828;-0.111827
2.83;4.0;2.25;2.75;2.25;2.5;1.75;0.25;0.75;0.75;0.25;0.0;0.25;1.75;1.0;0.0;0.25;-0.17627;0.029297;0.998535;-0.63;0.49;0.56;240.0;-0.166633;-0.057594;2.5;3.75;2.25;2.75;2.0;2.75;0.0;1.0;0.25;0.5;0.5;0.25;1.75;0.75;0.25;0.25;-0.220703;0.034668;0.980957;-0.91;-0.98;0.56;246.0;-0.165243;-0.119702
2.84;3.25;2.25;2.75;2.5;2.5;1.75;0.25;0.75;0.75;0.0;0.0;0.5;1.5;1.0;0.0;0.25;-0.181152;0.029297;1.001953;-0.63;0.42;0.56;232.0;-0.163272;-0.066198;2.5;3.75;2.25;3.0;2.0;2.75;0.0;1.0;0.25;0.5;0.5;0.25;1.75;0.75;0.25;0.25;-0.217285;0.03418;0.985352;-0.77;-0.91;0.56;249.0;-0.166718;-0.120971
2.85;3.0;2.25;2.75;2.5;2.5;1.75;0.25;1.0;0.5;0.0;0.25;0.5;1.75;1.0;0.25;0.0;-0.179688;0.033691;0.992676;-0.56;0.63;0.49;236.0;-0.152412;-0.082382;2.5;3.75;2.25;2.5;2.0;2.75;0.0;1.0;0.25;0.5;0.5;0.5;1.5;0.75;0.25;0.25;-0.21875;0.030273;0.978516;-0.77;-0.98;0.56;243.0;-0.162543;-0.117174
2.86;3.25;2.25;3.25;2.25;2.5;1.75;0.25;1.0;0.75;0.0;0.25;0.5;1.75;1.25;0.25;0.25;-0.182129;0.030762;0.989258;-0.56;0.49;0.56;249.0;-0.142235;-0.06814;2.0;3.75;2.25;2.5;2.0;2.75;0.0;1.0;0.5;0.25;0.25;0.5;1.25;1.0;0.25;0.25;-0.214844;0.033691;0.980469;-0.77;-0.84;0.56;235.0;-0.157623;-0.112503
2.87;3.75;2.0;3.0;2.25;2.25;1.75;0.25;1.0;0.5;0.0;0.25;0.5;1.75;1.25;0.0;0.25;-0.186035;0.033203;0.992188;-0.56;0.49;0.56;240.0;-0.156655;-0.071492;2.0;3.5;2.25;2.5;2.25;2.75;0.0;1.0;0.25;0.25;0.5;0.5;1.5;0.75;0.25;0.25;-0.220703;0.035645;0.987305;-0.84;-1.05;0.56;235.0;-0.15842;-0.122
2.88;3.75;2.25;3.0;2.5;2.25;1.75;0.25;0.75;0.75;0.25;0.25;0.25;1.5;2.0;0.0;0.25;-0.181152;0.027344;0.992188;-0.56;0.49;0.56;250.0;-0.144229;-0.049228;2.25;3.75;2.25;2.75;2.0;2.75;0.0;1.0;0.25;0.25;0.5;0.5;1.75;1.0;0.25;0.25;-0.217285;0.037598;0.980957;-0.84;-0.98;0.63;245.0;-0.157328;-0.123719
2.89;3.25;2.25;3.0;2.25;2.5;1.75;0.25;1.0;1.0;0.25;0.0;0.25;1.5;1.75;0.0;0.25;-0.179199;0.03125;0.997559;-0.56;0.56;0.56;246.0;-0.137808;-0.05183;2.5;3.75;2.25;2.5;1.75;2.75;0.0;1.0;0.25;0.25;0.5;0.5;1.75;0.75;0.25;0.5;-0.223145;0.030762;0.989746;-0.84;-0.84;0.63;241.0;-0.161303;-0.126101
2.9;3.25;2.25;2.75;2.5;2.5;1.75;0.25;1.0;0.5;0.0;0.25;0.5;1.5;1.25;0.25;0.25;-0.183105;0.025879;1.000488;-0.56;0.49;0.63;240.0;-0.149902;-0.07533;2.5;3.5;2.0;2.5;2.0;2.75;0.0;1.0;0.25;0.25;0.5;0.5;1.75;0.75;0.25;0.5;-0.216309;0.030762;0.984863;-0.7;-0.91;0.63;238.0;-0.156818;-0.126075
2.91;3.75;2.25;3.0;2.5;2.5;1.75;0.25;1.0;0.5;0.0;0.25;0.5;1.75;1.25;0.0;0.25;-0.181641;0.027832;0.994629;-0.56;0.49;0.56;249.0;-0.16049;-0.072698;2.5;3.5;2.25;2.5;2.0;2.75;0.0;1.0;0.25;0.25;0.5;0.5;1.75;0.75;0.25;0.5;-0.22168;0.036133;0.981934;-0.84;-0.91;0.63;242.0;-0.15819;-0.123355
2.92;3.75;2.25;3.0;2.5;2.5;1.75;0.25;0.75;0.5;0.0;0.25;0.5;1.75;1.25;0.0;0.25;-0.179688;0.022949;0.997559;-0.56;0.35;0.49;244.0;-0.163014;-0.067263;2.5;3.75;2.25;2.5;1.75;2.25;0.0;1.0;0.25;0.25;0.5;0.5;1.75;1.0;0.0;0.5;-0.216797;0.032715;0.981445;-0.84;-0.91;0.63;235.0;-0.162805;-0.119909
2.93;3.75;2.0;3.25;2.5;2.25;1.75;0.25;0.75;0.5;0.0;0.25;0.5;1.5;1.0;0.25;0.25;-0.181152;0.023926;0.999023;-0.63;0.56;0.56;240.0;-0.164139;-0.064523;2.25;3.5;2.25;2.5;2.0;2.75;0.0;1.0;0.25;0.25;0.5;0.75;1.5;0.75;0.0;0.5;-0.217773;0.036133;0.986816;-0.84;-0.91;0.63;236.0;-0.16091;-0.125359
2.94;3.25;2.25;3.0;2.5;2.25;1.75;0.25;0.75;0.5;0.25;0.25;0.5;1.5;1.0;0.25;0.25;-0.179199;0.027344;0.996094;-0.56;0.63;0.49;237.0;-0.154951;-0.070187;2.25;3.5;2.25;2.5;2.0;2.75;0.0;1.0;0.25;0.25;0.5;0.5;1.5;0.75;0.0;0.5;-0.215332;0.03418;0.983398;-0.77;-0.91;0.7;233.0;-0.165472;-0.123261
2.95;3.75;2.25;3.0;2.5;2.25;1.75;0.25;1.0;0.5;0.0;0.25;0.5;1.5;1.25;0.25;0.25;-0.186035;0.033691;0.999512;-0.63;0.56;0.56;246.0;-0.157459;-0.070722;2.5;3.5;2.25;2.75;2.0;2.75;0.0;1.0;0.25;0.25;0.5;0.5;1.0;0.5;0.0;0.25;-0.217773;0.030273;0.986816;-0.77;-0.98;0.56;231.0;-0.185995;-0.116638
2.96;3.75;2.25;3.0;2.5;2.5;1.75;0.25;1.0;0.5;0.0;0.25;0.5;1.5;1.25;0.25;0.25;-0.178711;0.032227;0.990723;-0.56;0.63;0.49;249.0;-0.157072;-0.069131;2.0;3.5;2.25;2.75;2.0;2.5;0.0;1.0;0.25;0.25;0.25;0.5;1.5;0.5;0.25;0.25;-0.219727;0.03418;0.983887;-0.84;-0.91;0.63;227.0;-0.171334;-0.126948
2.97;3.75;2.25;2.75;2.5;2.25;1.75;0.25;1.0;0.75;0.25;0.25;0.5;1.5;1.5;0.25;0.25;-0.175293;0.030273;0.994629;-0.63;0.42;0.56;252.0;-0.140526;-0.06395;2.5;3.5;2.25;2.75;2.0;3.0;0.0;1.0;0.25;0.25;0.25;0.5;1.75;0.5;0.25;0.25;-0.215332;0.033203;0.98291;-0.77;-0.84;0.63;241.0;-0.17298;-0.128287
2.98;4.0;2.25;3.0;2.5;2.25;1.75;0.25;1.0;0.75;0.25;0.25;0.5;1.5;1.5;0.25;0.0;-0.181152;0.025879;0.999023;-0.56;0.49;0.63;256.0;-0.14781;-0.058774;2.5;3.75;2.25;2.75;2.0;2.75;0.0;1.0;0.5;0.25;0.25;0.25;1.75;0.75;0.0;0.25;-0.21875;0.036133;0.984375;-0.84;-0.91;0.63;241.0;-0.175247;-0.116504
2.99;3.75;2.25;3.0;2.5;2.25;1.75;0.25;1.0;0.75;0.25;0.25;0.5;1.75;1.25;0.25;0.0;-0.183105;0.02832;0.991211;-0.56;0.42;0.56;253.0;-0.147144;-0.066555;2.5;3.75;2.5;2.75;2.0;2.5;0.0;1.0;0.5;0.25;0.25;0.25;1.75;0.5;0.25;0.25;-0.225586;0.031738;0.986816;-0.84;-0.98;0.7;241.0;-0.175403;-0.114395
3.0;3.25;2.25;3.0;2.75;2.5;1.75;0.25;1.0;1.0;0.25;0.0;0.5;1.75;1.25;0.0;0.25;-0.177734;0.029785;0.994629;-0.63;0.49;0.56;253.0;-0.14465;-0.06673;2.5;3.0;2.25;2.75;2.0;2.5;0.0;1.0;0.5;0.25;0.25;0.5;1.75;0.5;0.25;0.25;-0.216309;0.03418;0.983887;-0.84;-0.98;0.56;233.0;-0.161669;-0.117615
3.01;3.25;2.25;3.0;2.5;2.5;1.75;0.25;1.0;1.0;0.25;0.0;0.5;1.5;1.5;0.25;0.25;-0.185547;0.029297;0.993652;-0.63;0.42;0.56;253.0;-0.134506;-0.05911;2.75;3.25;2.25;2.5;2.0;2.5;0.0;1.0;0.5;0.25;0.25;0.75;1.75;0.5;0.0;0.25;-0.210938;0.03418;0.984863;-0.84;-1.05;0.63;236.0;-0.168086;-0.116656
3.02;3.75;2.25;3.0;2.5;2.25;1.75;0.25;1.0;0.5;0.25;0.25;0.5;1.5;1.5;0.25;0.25;-0.175293;0.027832;0.996582;-0.63;0.63;0.63;251.0;-0.147692;-0.066905;2.25;3.5;2.25;2.5;2.0;2.5;0.0;1.0;0.75;0.25;0.5;0.75;1.75;0.75;0.0;0.25;-0.216797;0.035645;0.986816;-0.7;-0.98;0.63;241.0;-0.14863;-0.113826
3.03;3.75;2.25;3.0;2.25;2.25;1.75;0.25;1.0;0.5;0.25;0.25;0.25;1.75;1.5;0.25;0.25;-0.174805;0.025879;0.993164;-0.7;0.42;0.49;248.0;-0.14713;-0.066084;2.25;3.75;2.25;2.75;2.0;2.75;0.0;1.0;0.5;0.25;0.25;0.75;1.5;0.75;0.0;0.25;-0.210449;0.03418;0.984863;-0.77;-0.91;0.63;241.0;-0.166759;-0.120052
3.04;3.75;2.25;3.25;2.5;2.5;1.75;0.25;1.0;0.75;0.0;0.25;0.25;1.5;1.5;0.25;0.25;-0.183594;0.025879;0.993164;-0.49;0.56;0.63;255.0;-0.151521;-0.057621;2.5;3.75;2.5;3.0;2.0;2.75;0.0;1.0;0.5;0.25;0.25;0.75;1.5;0.75;0.0;0.25;-0.216309;0.033691;0.986816;-0.77;-0.98;0.63;250.0;-0.172088;-0.116165
3.05;3.25;2.25;3.0;2.5;2.5;1.75;0.25;1.0;1.0;0.0;0.25;0.5;1.5;1.25;0.0;0.25;-0.180176;0.030273;0.993164;-0.63;0.56;0.63;248.0;-0.146047;-0.063128;2.25;3.5;2.25;2.5;2.25;2.75;0.0;1.0;0.5;0.25;0.25;0.5;1.5;0.75;0.25;0.25;-0.220703;0.033203;0.983887;-0.84;-0.98;0.63;239.0;-0.159713;-0.113394
3.06;3.75;2.25;2.75;2.5;2.0;1.75;0.25;1.0;0.5;0.25;0.0;0.5;1.5;1.25;0.0;0.25;-0.181641;0.029297;0.999023;-0.49;0.7;0.63;237.0;-0.163162;-0.072154;2.25;3.25;2.25;2.5;2.0;2.75;0.0;1.0;0.5;0.25;0.25;0.5;1.5;0.75;0.25;0.25;-0.214355;0.036133;0.987305;-0.77;-0.98;0.7;233.0;-0.157379;-0.115073
3.07;3.75;2.25;3.0;2.5;2.25;1.75;0.25;1.0;0.5;0.25;0.0;0.5;1.5;1.0;0.25;0.25;-0.179199;0.026855;1.000488;-0.63;0.63;0.56;244.0;-0.162747;-0.070988;2.0;3.75;2.25;2.5;2.0;2.75;0.0;1.0;0.25;0.25;0.25;0.25;1.5;0.5;0.25;0.25;-0.22168;0.032715;0.984863;-0.84;-0.84;0.7;226.0;-0.177111;-0.125862
3.08;3.75;2.25;3.0;2.5;2.5;1.75;0.25;1.0;0.75;0.25;0.25;0.5;1.5;1.5;0.25;0.5;-0.186035;0.027344;0.992676;-0.42;0.56;0.63;259.0;-0.138959;-0.062123;2.0;3.75;2.25;2.5;2.0;2.5;0.0;1.0;0.25;0.25;0.25;0.25;1.75;0.75;0.25;0.25;-0.219238;0.032715;0.984863;-0.84;-0.84;0.56;228.0;-0.167859;-0.124323
3.09;3.75;2.25;3.0;2.5;2.25;1.75;0.25;1.0;0.75;0.25;0.25;0.5;1.75;1.75;0.0;0.25;-0.180664;0.025879;0.990723;-0.63;0.56;0.49;257.0;-0.140286;-0.063388;2.0;3.5;2.25;2.5;2.0;2.5;0.0;1.0;0.25;0.25;0.25;0.25;1.5;0.75;0.25;0.25;-0.219727;0.035645;0.983398;-0.7;-0.77;0.63;223.0;-0.168608;-0.120294
3.1;3.75;2.25;3.0;2.5;2.5;1.75;0.25;1.0;1.0;0.0;0.25;0.25;1.75;1.5;0.0;0.25;-0.178223;0.029297;0.99707;-0.56;0.56;0.42;255.0;-0.147761;-0.058176;2.25;3.75;2.25;2.75;2.0;2.75;0.0;1.0;0.5;0.25;0.5;0.5;1.5;0.75;0.25;0.25;-0.217773;0.035156;0.983398;-0.84;-0.98;0.56;244.0;-0.159841;-0.117488
3.11;4.0;2.25;3.0;2.5;2.5;1.75;0.25;1.0;1.0;0.25;0.25;0.25;1.5;1.75;0.0;0.25;-0.178223;0.029297;0.994141;-0.49;0.7;0.56;261.0;-0.144178;-0.049293;2.5;3.75;2.25;2.5;2.0;2.5;0.0;1.0;0.25;0.25;0.25;0.5;1.5;0.75;0.0;0.25;-0.217773;0.033691;0.980469;-0.91;-1.05;0.56;232.0;-0.179482;-0.117844
3.12;3.5;2.0;3.0;2.75;2.5;1.75;0.25;1.0;0.75;0.25;0.25;0.5;1.5;1.25;0.25;0.25;-0.183594;0.027832;0.988281;-0.7;0.56;0.49;253.0;-0.142979;-0.065654;2.0;3.5;2.25;2.75;2.0;2.75;0.0;1.0;0.25;0.25;0.25;0.75;1.75;1.0;0.0;0.25;-0.215332;0.03418;0.986328;-0.77;-0.98;0.56;237.0;-0.158644;-0.128728
3.13;4.0;2.25;3.0;2.75;2.5;1.75;0.25;1.0;0.75;0.25;0.25;0.5;1.5;1.5;0.25;0.25;-0.182129;0.027344;1.000488;-0.63;0.42;0.49;264.0;-0.146288;-0.060727;2.0;3.5;2.25;2.75;2.0;2.75;0.0;1.25;0.25;0.25;0.25;0.75;1.5;0.75;0.25;0.25;-0.221191;0.032227;0.981445;-0.77;-0.91;0.63;239.0;-0.158085;-0.132445
3.14;4.0;2.25;3.0;2.5;2.5;1.75;0.25;1.0;1.0;0.25;0.25;0.5;1.5;1.75;0.0;0.5;-0.182617;0.027832;0.995117;-0.63;0.28;0.56;265.0;-0.137527;-0.053446;2.25;3.25;2.25;2.75;2.0;2.75;0.0;1.0;0.25;0.25;0.5;0.5;1.5;0.75;0.25;0.25;-0.22168;0.029297;0.981934;-0.77;-0.98;0.63;235.0;-0.160666;-0.1224
3.15;3.5;2.25;3.0;2.5;2.5;1.75;0.25;1.0;1.0;0.25;0.25;0.5;1.75;1.5;0.0;0.5;-0.179688;0.029785;0.993652;-0.63;0.42;0.56;260.0;-0.13387;-0.062753;2.5;3.75;2.25;2.75;2.0;2.75;0.0;1.0;0.5;0.25;0.5;0.5;1.5;0.75;0.25;0.25;-0.217773;0.03418;0.981445;-0.84;-1.05;0.56;247.0;-0.162632;-0.114894
3.16;4.0;2.25;3.0;2.5;2.5;1.75;0.25;0.75;1.0;0.25;0.25;0.5;1.75;1.75;0.25;0.25;-0.182617;0.03125;0.993164;-0.56;0.28;0.63;265.0;-0.133648;-0.050611;2.0;3.75;2.25;2.75;2.0;2.75;0.0;1.0;0.25;0.5;0.25;0.25;1.5;0.75;0.0;0.25;-0.21582;0.037598;0.986816;-0.84;-1.19;0.63;232.0;-0.174744;-0.122317
3.17;3.75;2.25;3.0;2.5;2.5;1.75;0.25;1.0;1.0;0.25;0.25;0.5;1.5;1.0;0.25;0.25;-0.176758;0.025391;0.997559;-0.56;0.28;0.49;257.0;-0.146306;-0.060323;2.75;3.75;2.25;3.0;2.0;2.5;0.0;1.0;0.25;0.5;0.5;0.25;1.75;0.75;0.25;0.25;-0.219238;0.033203;0.979492;-0.84;-1.19;0.63;248.0;-0.169586;-0.116534
3.18;3.75;2.5;3.25;2.25;2.5;1.75;0.25;0.75;1.0;0.25;0.25;0.5;1.5;1.5;0.25;0.25;-0.178711;0.029297;0.986816;-0.56;0.49;0.56;260.0;-0.140857;-0.048131;2.75;3.75;2.25;3.0;2.0;2.5;0.0;1.0;0.25;0.5;0.25;0.5;1.5;0.75;0.0;0.25;-0.217285;0.039062;0.983887;-0.7;-1.19;0.7;243.0;-0.179842;-0.115724
3.19;4.0;2.5;3.25;2.5;2.5;1.75;0.25;0.75;1.0;0.25;0.25;0.5;1.5;1.25;0.25;0.25;-0.180664;0.02832;0.996582;-0.56;0.56;0.63;263.0;-0.150225;-0.050447;2.5;3.75;2.5;2.75;2.0;2.75;0.0;1.0;0.5;0.5;0.25;0.5;1.5;0.75;0.0;0.25;-0.218262;0.033203;0.977539;-0.84;-1.19;0.56;247.0;-0.170383;-0.110682
3.2;3.25;2.25;3.25;2.75;2.5;1.75;0.25;1.0;1.0;0.25;0.25;0.25;1.5;1.25;0.25;0.5;-0.185547;0.026855;0.993164;-0.63;0.49;0.63;258.0;-0.13975;-0.06086;2.25;3.75;2.5;2.5;2.25;2.5;0.0;1.0;0.5;0.5;0.25;0.25;1.5;1.0;0.0;0.5;-0.220703;0.028809;0.983887;-0.84;-0.98;0.63;242.0;-0.161548;-0.103984
3.21;3.75;2.25;3.25;2.75;2.5;1.75;0.25;1.0;0.5;0.25;0.25;0.25;1.75;1.5;0.25;0.5;-0.184082;0.030273;0.988281;-0.7;0.56;0.56;261.0;-0.148606;-0.067854;2.75;3.75;2.25;3.0;2.0;2.5;0.0;1.0;0.5;0.5;0.25;0.25;1.75;1.25;0.25;0.25;-0.212402;0.034668;0.984863;-0.77;-0.98;0.63;254.0;-0.157386;-0.105649
3.22;4.0;2.5;3.25;2.5;2.5;1.75;0.25;1.0;0.5;0.25;0.25;0.5;1.75;1.5;0.25;0.5;-0.183105;0.026367;0.996094;-0.7;0.49;0.63;267.0;-0.148418;-0.067604;2.75;3.75;2.25;3.0;2.25;2.75;0.0;1.25;0.5;0.5;0.25;0.5;1.5;0.75;0.25;0.25;-0.219727;0.032227;0.979004;-0.91;-0.98;0.63;260.0;-0.163721;-0.114163
3.23;3.25;2.5;3.0;2.5;2.5;1.75;0.25;1.0;0.75;0.25;0.25;0.5;1.5;1.5;0.25;0.5;-0.181152;0.026367;0.995117;-0.63;0.42;0.56;256.0;-0.135853;-0.066922;2.5;3.75;2.25;3.0;2.0;2.75;0.0;1.0;0.5;0.5;0.0;0.5;1.5;0.75;0.25;0.25;-0.223145;0.035645;0.983887;-0.77;-1.05;0.63;247.0;-0.16851;-0.114148
3.24;3.75;2.5;3.0;2.5;2.25;1.75;0.25;1.0;0.5;0.25;0.25;0.5;1.5;1.5;0.25;0.25;-0.178711;0.03125;0.996094;-0.7;0.42;0.49;254.0;-0.150362;-0.06789;2.5;3.75;2.25;2.75;2.0;2.5;0.0;1.25;0.5;0.25;0.25;0.5;1.5;0.75;0.25;0.25;-0.212402;0.036133;0.97998;-0.84;-1.12;0.63;245.0;-0.164739;-0.117668
3.25;4.0;2.5;3.25;2.75;2.5;1.75;0.25;1.0;0.5;0.25;0.25;0.5;1.75;1.5;0.25;0.25;-0.181152;0.024414;0.993164;-0.7;0.42;0.49;268.0;-0.152786;-0.068005;2.5;3.25;2.25;2.5;2.0;2.5;0.0;1.0;0.5;0.25;0.25;0.75;1.5;0.75;0.25;0.25;-0.217285;0.037109;0.983887;-0.7;-1.12;0.63;236.0;-0.15592;-0.1126
3.26;3.75;2.5;3.25;2.75;2.5;1.75;0.25;1.0;0.5;0.25;0.25;0.5;1.5;1.75;0.25;0.0;-0.180664;0.029297;0.993164;-0.63;0.42;0.56;264.0;-0.15088;-0.062845;2.5;3.25;2.5;2.75;2.25;3.0;0.0;1.0;0.5;0.5;0.25;0.5;1.5;0.75;0.25;0.25;-0.217285;0.030762;0.983398;-0.7;-1.05;0.63;251.0;-0.15807;-0.109108
3.27;3.25;2.5;3.25;3.0;2.5;1.75;0.25;1.0;0.5;0.25;0.25;0.5;1.5;1.75;0.25;0.25;-0.178223;0.023926;0.994141;-0.7;0.49;0.42;263.0;-0.144117;-0.069811;2.5;3.5;2.25;3.0;2.25;2.75;0.0;1.0;0.25;0.25;0.5;0.5;1.75;0.75;0.25;0.25;-0.219238;0.032227;0.982422;-0.77;-1.05;0.63;249.0;-0.163992;-0.122445
3.28;3.25;2.5;3.5;3.0;2.5;1.75;0.25;1.0;1.0;0.0;0.25;0.25;1.5;1.75;0.0;0.25;-0.179199;0.026855;0.996582;-0.7;0.63;0.56;264.0;-0.148649;-0.057494;2.75;3.75;2.25;3.0;2.25;2.75;0.0;1.0;0.25;0.25;0.5;0.5;1.5;0.75;0.25;0.25;-0.217285;0.033203;0.981445;-0.7;-0.98;0.63;252.0;-0.17232;-0.117117
3.29;3.25;2.5;3.25;2.75;2.5;1.75;0.25;1.0;0.5;0.0;0.25;0.25;1.5;1.5;0.0;0.0;-0.182617;0.027344;0.995117;-0.56;0.42;0.42;247.0;-0.165569;-0.067555;3.0;3.75;2.75;2.75;2.0;3.0;0.0;1.25;0.25;0.25;0.5;0.25;1.5;1.0;0.25;0.25;-0.21582;0.029785;0.986328;-0.7;-1.05;0.63;262.0;-0.172441;-0.112234
3.3;4.0;2.5;3.5;2.75;2.5;1.75;0.25;0.75;0.25;0.25;0.0;0.5;1.75;1.75;0.25;0.25;-0.178711;0.030273;0.994629;-0.63;0.49;0.56;263.0;-0.161015;-0.063017;2.5;4.0;2.75;3.0;2.0;2.75;0.0;1.0;0.5;0.25;0.25;0.25;1.75;1.0;0.25;0.25;-0.219727;0.035645;0.984375;-0.77;-0.98;0.56;257.0;-0.169263;-0.110339
3.31;3.5;2.5;3.5;2.75;2.5;1.75;0.25;0.75;0.5;0.25;0.25;0.25;1.75;1.25;0.25;0.25;-0.180176;0.027344;0.996582;-0.77;0.42;0.56;256.0;-0.160072;-0.06444;2.75;4.0;2.25;3.0;2.0;3.0;0.0;1.0;0.75;0.25;0.25;0.25;1.5;0.75;0.0;0.25;-0.217285;0.033203;0.982422;-0.77;-1.12;0.63;253.0;-0.178367;-0.108866
3.32;4.25;2.5;3.25;2.75;2.5;1.75;0.25;1.0;0.5;0.0;0.25;0.25;1.5;1.75;0.25;0.25;-0.185059;0.027344;0.994629;-0.7;0.42;0.49;265.0;-0.161516;-0.059409;2.75;3.75;2.25;3.0;2.0;2.75;0.0;1.0;0.25;0.25;0.5;0.25;1.75;0.75;0.0;0.25;-0.217285;0.036621;0.980957;-0.84;-0.98;0.63;246.0;-0.180857;-0.120916
3.33;3.5;2.5;3.25;2.75;2.5;1.75;0.25;1.0;0.75;0.0;0.25;0.25;1.75;1.5;0.25;0.25;-0.177734;0.03125;0.996094;-0.56;0.56;0.56;260.0;-0.150014;-0.066065;2.75;3.75;2.25;3.0;2.0;2.75;0.0;1.0;0.25;0.25;0.25;0.5;1.5;0.75;0.0;0.5;-0.216797;0.035156;0.988281;-0.77;-1.05;0.63;245.0;-0.181117;-0.120914
3.34;3.25;2.5;3.25;2.75;2.5;1.75;0.25;1.0;0.75;0.0;0.25;0.25;1.75;1.25;0.25;0.25;-0.182617;0.028809;0.991211;-0.56;0.63;0.56;255.0;-0.152326;-0.070223;2.5;4.0;2.25;3.0;2.25;2.75;0.0;1.0;0.25;0.25;0.25;0.25;1.5;0.75;0.0;0.25;-0.216797;0.032715;0.978516;-0.77;-1.05;0.7;243.0;-0.188205;-0.118567
3.35;3.5;2.5;3.25;3.0;2.5;1.75;0.25;1.0;0.75;0.0;0.25;0.25;1.5;1.75;0.25;0.5;-0.186523;0.029297;1.000488;-0.56;0.84;0.56;265.0;-0.146623;-0.063592;2.5;3.75;2.5;3.0;2.0;2.75;0.0;1.0;0.25;0.25;0.25;0.25;1.5;0.75;0.25;0.25;-0.21875;0.029785;0.983398;-0.77;-0.98;0.7;244.0;-0.180571;-0.11726
3.36;3.25;2.5;3.5;2.5;2.5;1.75;0.25;1.0;0.75;0.0;0.0;0.5;1.5;1.75;0.0;0.25;-0.175293;0.024414;0.996582;-0.56;0.7;0.56;255.0;-0.151231;-0.060253;2.5;4.0;2.75;3.0;2.0;2.75;0.0;1.0;0.25;0.25;0.25;0.25;1.75;0.5;0.25;0.25;-0.211426;0.031738;0.983887;-0.77;-0.84;0.63;249.0;-0.186218;-0.121229
3.37;3.25;2.5;3.25;2.5;2.5;1.75;0.25;0.75;1.0;0.0;0.0;0.5;1.5;1.75;0.0;0.0;-0.180176;0.026367;0.991699;-0.7;0.63;0.49;249.0;-0.149346;-0.050247;3.0;3.75;2.5;3.0;2.0;2.75;0.0;1.0;0.5;0.25;0.25;0.5;1.5;0.5;0.0;0.5;-0.211914;0.034668;0.977051;-0.7;-0.84;0.56;252.0;-0.183894;-0.112929
3.38;3.25;2.75;3.25;2.75;2.5;1.75;0.25;0.75;1.0;0.25;0.25;0.5;1.5;1.5;0.0;0.25;-0.180176;0.029785;0.995605;-0.56;0.56;0.56;260.0;-0.147254;-0.056397;2.5;3.75;2.25;3.0;2.0;2.75;0.0;1.0;0.5;0.0;0.5;0.5;1.75;0.75;0.25;0.5;-0.217773;0.02832;0.980957;-0.91;-0.84;0.63;251.0;-0.162487;-0.122663
3.39;3.5;2.5;3.0;2.75;2.5;1.75;0.25;0.75;0.75;0.25;0.25;0.5;1.5;1.75;0.25;0.0;-0.175293;0.028809;0.998047;-0.56;0.56;0.42;257.0;-0.143326;-0.056525;2.5;3.75;2.25;3.0;2.0;2.75;0.0;1.0;0.25;0.25;0.5;0.5;1.75;0.75;0.25;0.5;-0.216309;0.031738;0.984863;-0.77;-0.84;0.63;250.0;-0.163897;-0.126222
3.4;3.25;2.25;3.25;2.5;2.5;1.75;0.25;0.75;0.75;0.0;0.0;0.5;1.5;1.75;0.5;0.25;-0.179688;0.025391;0.992188;-0.7;0.56;0.49;251.0;-0.136692;-0.056001;2.75;3.75;2.75;2.75;2.25;2.75;0.0;1.0;0.25;0.25;0.25;0.5;1.75;0.75;0.25;0.5;-0.21875;0.033203;0.982422;-0.77;-0.84;0.56;256.0;-0.171415;-0.115255
3.41;3.25;2.5;3.0;2.5;2.5;1.75;0.25;0.75;1.0;0.25;0.0;0.5;1.5;1.75;0.25;0.25;-0.184082;0.028809;0.991699;-0.56;0.56;0.49;254.0;-0.134307;-0.052544;3.0;3.75;2.5;2.75;2.0;3.0;0.0;1.0;0.25;0.5;0.5;0.5;1.75;0.75;0.25;0.5;-0.220703;0.031738;0.978516;-0.7;-0.7;0.56;262.0;-0.164316;-0.117096
3.42;3.5;2.25;3.0;2.5;2.5;1.75;0.25;0.75;0.75;0.0;0.0;0.25;1.5;1.75;0.0;0.0;-0.184082;0.030762;0.996094;-0.63;0.7;0.56;240.0;-0.158391;-0.050817;2.75;3.75;2.25;2.75;2.0;3.0;0.0;1.0;0.25;0.25;0.5;0.5;1.75;0.75;0.25;0.5;-0.216309;0.032227;0.980469;-0.84;-0.84;0.56;253.0;-0.164972;-0.124147
3.43;3.25;2.5;3.25;2.5;2.5;1.75;0.25;0.75;1.0;0.0;0.0;0.25;1.5;1.5;0.25;0.0;-0.185059;0.023438;0.998535;-0.63;0.77;0.56;247.0;-0.152339;-0.049896;2.75;3.75;2.25;2.75;2.0;2.75;0.0;1.0;0.25;0.25;0.5;0.5;1.75;0.75;0.0;0.5;-0.22168;0.03418;0.988281;-0.77;-0.63;0.63;247.0;-0.171771;-0.122843
3.44;4.0;2.5;3.0;2.5;2.5;1.75;0.25;1.0;1.0;0.0;0.25;0.25;1.5;1.25;0.0;0.0;-0.176758;0.022949;1.001465;-0.56;0.84;0.56;254.0;-0.164276;-0.054319;2.5;3.75;2.25;2.5;2.0;2.5;0.0;1.0;0.25;0.25;0.5;0.5;1.5;0.75;0.0;0.25;-0.215332;0.035645;0.979004;-0.77;-0.77;0.63;234.0;-0.174534;-0.117821
3.45;4.0;2.25;3.25;2.5;2.5;1.75;0.25;0.75;1.0;0.0;0.25;0.5;1.5;1.0;0.0;0.25;-0.177246;0.025391;0.994629;-0.56;0.56;0.49;253.0;-0.163456;-0.052314;2.75;3.75;2.25;2.75;2.0;2.75;0.0;1.0;0.25;0.5;0.5;0.75;1.5;0.75;0.25;0.25;-0.217285;0.032227;0.987305;-0.91;-0.7;0.56;252.0;-0.162487;-0.117957
3.46;4.0;2.5;3.25;2.75;2.5;1.75;0.25;0.75;0.75;0.0;0.25;0.5;1.5;1.0;0.0;0.25;-0.179688;0.029297;0.993652;-0.56;0.63;0.63;255.0;-0.173315;-0.060057;2.5;3.75;2.25;2.75;1.75;2.5;0.0;1.0;0.25;0.25;0.25;0.5;1.5;1.0;0.25;0.25;-0.213379;0.030273;0.97998;-0.7;-0.77;0.63;237.0;-0.168621;-0.118142
3.47;4.0;2.5;3.25;2.75;2.5;1.75;0.25;0.75;0.75;0.0;0.25;0.5;1.5;1.0;0.25;0.25;-0.186523;0.025391;0.995117;-0.63;0.7;0.56;258.0;-0.166851;-0.060303;2.25;3.5;2.25;2.75;2.0;2.75;0.0;1.0;0.25;0.25;0.25;0.5;1.5;1.0;0.25;0.25;-0.220215;0.030762;0.981934;-0.77;-0.77;0.49;237.0;-0.162436;-0.120009
3.48;4.0;2.5;3.5;2.5;2.5;1.75;0.25;0.75;0.75;0.25;0.25;0.5;1.5;1.0;0.0;0.25;-0.18457;0.023926;0.991211;-0.63;0.7;0.63;258.0;-0.168513;-0.055004;2.25;3.75;2.25;2.75;2.0;2.5;0.0;1.0;0.25;0.25;0.25;0.75;1.5;1.0;0.25;0.25;-0.219727;0.034668;0.980469;-0.77;-0.84;0.56;240.0;-0.160774;-0.120705
3.49;3.5;2.25;3.0;2.5;2.5;1.75;0.25;0.75;1.0;0.25;0.25;0.5;1.75;1.75;0.25;0.25;-0.179199;0.027344;0.994141;-0.35;0.63;0.56;259.0;-0.127761;-0.054094;2.5;3.0;2.25;2.75;2.0;2.75;0.0;1.0;0.25;0.25;0.25;0.5;1.5;1.0;0.0;0.25;-0.217285;0.028809;0.980469;-0.84;-0.7;0.49;232.0;-0.166889;-0.116686
3.5;4.0;2.25;3.0;2.5;2.5;1.75;0.25;1.0;1.0;0.25;0.25;0.5;1.75;1.75;0.25;0.25;-0.182129;0.028809;0.989258;-0.7;0.77;0.56;269.0;-0.131769;-0.055894;2.5;3.5;2.25;2.5;2.0;2.75;0.0;1.0;0.5;0.25;0.5;0.5;1.5;1.0;0.0;0.25;-0.217773;0.033691;0.98584;-0.84;-0.7;0.56;241.0;-0.15966;-0.110555
3.51;4.0;2.25;3.0;2.25;2.5;1.75;0.25;0.75;0.75;0.25;0.25;0.25;1.75;1.75;0.0;0.25;-0.180176;0.024414;0.996094;-0.63;0.7;0.56;252.0;-0.147399;-0.049989;2.5;3.75;2.25;2.5;2.0;2.5;0.0;1.0;0.75;0.25;0.5;0.75;1.5;1.0;0.0;0.25;-0.214355;0.030273;0.988281;-0.7;-0.84;0.63;247.0;-0.152042;-0.105746
3.52;3.5;2.25;3.0;2.5;2.5;1.75;0.25;0.75;0.75;0.0;0.25;0.25;1.5;1.0;0.25;0.25;-0.183594;0.037109;0.993652;-0.7;0.7;0.63;240.0;-0.160415;-0.060199;2.25;3.75;2.25;2.5;2.0;2.5;0.0;1.0;0.25;0.25;0.25;0.75;1.75;1.0;0.25;0.25;-0.21875;0.033203;0.989746;-0.84;-0.77;0.56;239.0;-0.155932;-0.122756
3.53;4.0;2.25;3.0;2.5;2.5;1.75;0.25;0.75;0.75;0.25;0.25;0.5;1.5;1.5;0.25;0.5;-0.179688;0.02832;0.994629;-0.84;0.77;0.63;258.0;-0.1439;-0.054928;2.25;3.5;2.25;2.5;2.0;2.5;0.0;1.0;0.25;0.25;0.25;0.75;1.5;1.0;0.25;0.25;-0.211914;0.031738;0.986816;-0.84;-0.84;0.56;234.0;-0.156398;-0.118882
3.54;3.75;2.25;2.75;2.5;2.25;1.5;0.25;1.0;0.75;0.25;0.25;0.5;1.5;2.0;0.25;0.25;-0.176758;0.029785;0.99707;-0.56;0.63;0.56;253.0;-0.130256;-0.057072;2.0;3.25;2.0;2.75;2.0;2.75;0.0;1.0;0.25;0.5;0.5;0.5;1.5;1.0;0.25;0.25;-0.217285;0.034668;0.984375;-0.84;-0.91;0.63;235.0;-0.145847;-0.122716
3.55;4.0;2.25;3.0;2.5;2.25;1.75;0.25;1.0;0.75;0.25;0.25;0.25;1.5;2.0;0.25;0.5;-0.183594;0.026367;0.998047;-0.63;0.7;0.63;261.0;-0.136005;-0.054843;2.0;3.25;2.0;2.5;1.75;2.75;0.0;1.0;0.25;0.25;0.25;0.5;1.5;0.75;0.0;0.25;-0.216309;0.037109;0.984863;-0.84;-0.91;0.63;218.0;-0.167346;-0.130104
3.56;3.75;2.25;3.25;2.5;2.25;1.75;0.25;0.75;0.5;0.25;0.25;0.25;1.5;1.75;0.5;0.25;-0.179199;0.027832;0.994629;-0.7;0.7;0.49;252.0;-0.143957;-0.054973;1.75;3.25;2.0;2.5;1.75;2.75;0.0;1.0;0.25;0.25;0.5;0.5;1.5;0.75;0.0;0.25;-0.220703;0.032227;0.981445;-0.77;-0.91;0.63;218.0;-0.159116;-0.133021
3.57;3.75;2.25;3.25;2.5;2.25;1.75;0.25;0.75;0.5;0.25;0.25;0.25;1.75;1.75;0.25;0.25;-0.176758;0.026367;0.995605;-0.7;0.63;0.49;252.0;-0.147304;-0.058465;1.75;3.25;2.0;2.5;2.0;2.75;0.0;1.0;0.5;0.25;0.25;0.5;1.75;0.75;0.25;0.25;-0.216309;0.036133;0.985352;-0.84;-0.91;0.63;227.0;-0.146393;-0.12701
3.58;3.75;2.25;3.0;2.5;2.25;1.75;0.25;0.75;0.5;0.25;0.25;0.25;1.5;1.75;0.25;0.25;-0.180664;0.020508;0.995605;-0.63;0.7;0.49;247.0;-0.148867;-0.056442;2.0;3.5;2.0;2.5;2.0;2.75;0.0;1.0;0.5;0.5;0.5;0.75;1.75;0.75;0.25;0.5;-0.216797;0.038086;0.980957;-0.84;-0.84;0.56;242.0;-0.135943;-0.125434
3.59;3.75;2.0;3.0;2.5;2.25;1.75;0.25;0.5;0.75;0.25;0.25;0.25;1.5;1.75;0.25;0.25;-0.176758;0.026367;0.991699;-0.77;0.77;0.42;243.0;-0.142477;-0.044711;2.0;3.25;2.0;2.5;2.0;2.5;0.0;1.0;0.5;0.25;0.25;0.75;1.75;0.75;0.25;0.5;-0.214844;0.034668;0.978027;-0.77;-0.91;0.56;231.0;-0.141784;-0.125538
3.6;3.25;2.0;3.0;2.25;2.25;1.75;0.25;0.75;0.5;0.0;0.25;0.25;1.5;1.5;0.25;0.0;-0.182129;0.026367;0.993164;-0.63;0.49;0.49;229.0;-0.15164;-0.059321;2.0;3.25;2.0;2.5;2.0;2.5;0.0;1.0;0.5;0.25;0.25;0.75;1.75;0.75;0.0;0.5;-0.223145;0.03125;0.988281;-0.77;-1.05;0.56;228.0;-0.14869;-0.126082
3.61;3.0;2.25;3.0;2.25;2.25;1.75;0.25;1.0;0.5;0.25;0.25;0.25;1.5;1.75;0.25;0.25;-0.183594;0.023926;0.987793;-0.7;0.49;0.49;239.0;-0.135727;-0.066032;2.25;3.25;2.0;2.5;2.0;2.5;0.0;1.0;0.75;0.25;0.5;0.75;1.75;0.75;0.0;0.25;-0.216797;0.036133;0.987793;-0.84;-1.05;0.63;236.0;-0.144255;-0.115893
3.62;3.75;2.25;2.75;2.25;2.25;1.75;0.25;0.75;0.5;0.25;0.25;0.25;1.5;1.75;0.25;0.25;-0.181641;0.028809;0.996094;-0.7;0.63;0.49;240.0;-0.145659;-0.05619;2.0;3.25;2.25;2.5;1.75;2.5;0.0;1.0;0.5;0.25;0.5;0.5;1.5;0.75;0.0;0.25;-0.217285;0.027832;0.983887;-0.77;-1.05;0.63;224.0;-0.157109;-0.118595
3.63;3.75;2.0;3.25;2.25;2.5;1.75;0.25;0.5;0.75;0.0;0.25;0.25;1.5;2.0;0.0;0.25;-0.185059;0.028809;0.994629;-0.56;0.63;0.56;243.0;-0.147682;-0.038203;2.25;3.25;2.0;2.5;2.0;2.5;0.0;1.0;0.25;0.25;0.5;0.5;1.75;1.0;0.25;0.25;-0.215332;0.034668;0.989258;-0.84;-0.91;0.63;231.0;-0.148617;-0.122371
3.64;3.75;2.0;3.0;2.5;2.5;1.75;0.25;0.75;0.75;0.0;0.25;0.5;1.5;1.75;0.25;0.0;-0.187012;0.028809;0.993164;-0.63;0.56;0.56;249.0;-0.143391;-0.051777;2.5;3.5;2.0;2.5;2.0;2.75;0.0;1.0;0.25;0.25;0.5;0.75;1.5;1.0;0.0;0.25;-0.21582;0.032227;0.984863;-0.77;-0.91;0.63;237.0;-0.160097;-0.121184
3.65;3.0;2.25;2.75;2.5;2.5;1.5;0.25;0.75;0.75;0.0;0.25;0.25;1.5;1.75;0.25;0.25;-0.179199;0.026855;0.986328;-0.63;0.42;0.56;236.0;-0.136404;-0.05648;2.25;3.0;2.25;2.5;2.0;2.75;0.0;1.0;0.5;0.25;0.25;0.5;1.5;1.0;0.0;0.5;-0.21875;0.029297;0.98877;-0.63;-0.98;0.63;231.0;-0.152524;-0.113257
3.66;3.25;2.25;3.25;2.25;2.5;1.5;0.25;0.75;0.75;0.0;0.25;0.25;1.5;1.75;0.0;0.25;-0.177734;0.027344;0.996094;-0.56;0.42;0.56;239.0;-0.147495;-0.048377;2.0;3.0;2.25;2.5;2.0;2.5;0.0;1.0;0.5;0.25;0.25;0.5;1.75;1.0;0.0;0.5;-0.211914;0.040039;0.984863;-0.63;-1.05;0.56;228.0;-0.146092;-0.117528
3.67;3.75;2.25;3.0;2.25;2.25;1.5;0.25;0.75;1.0;0.0;0.25;0.25;1.5;2.0;0.5;0.25;-0.176758;0.02832;0.995605;-0.77;0.63;0.49;250.0;-0.128406;-0.041875;2.0;3.5;2.25;2.5;2.0;2.75;0.0;1.0;0.25;0.25;0.25;0.75;1.75;0.75;0.0;0.5;-0.220703;0.036133;0.98584;-0.63;-1.12;0.63;233.0;-0.159378;-0.131716
3.68;3.75;2.0;2.75;2.25;2.25;1.5;0.25;0.75;1.0;0.0;0.25;0.25;1.5;1.25;0.25;0.25;-0.179688;0.026855;0.993652;-0.7;0.49;0.49;235.0;-0.146134;-0.048269;2.25;3.75;2.25;2.5;2.0;2.75;0.0;1.0;0.5;0.25;0.25;0.75;1.75;0.5;0.25;0.5;-0.219238;0.03125;0.977051;-0.77;-1.12;0.7;243.0;-0.157538;-0.125655
3.69;3.0;2.0;2.75;2.25;2.25;1.75;0.25;0.75;1.0;0.25;0.25;0.25;1.5;1.25;0.0;0.5;-0.179199;0.027344;0.990234;-0.56;0.56;0.56;231.0;-0.135616;-0.056849;2.25;3.5;2.25;2.5;2.0;2.75;0.0;1.0;0.75;0.25;0.5;0.5;1.75;0.75;0.0;0.5;-0.212891;0.032227;0.98291;-0.7;-0.98;0.56;243.0;-0.149809;-0.114836
3.7;2.75;2.0;2.75;2.25;2.25;1.75;0.25;1.0;1.0;0.0;0.25;0.5;1.5;1.75;0.25;0.25;-0.180664;0.025391;0.995605;-0.63;0.56;0.56;238.0;-0.116452;-0.063143;2.0;3.25;2.25;2.75;2.0;2.5;0.0;1.25;0.5;0.25;0.5;0.5;1.75;0.75;0.0;0.5;-0.216797;0.035645;0.987793;-0.7;-0.91;0.63;238.0;-0.149374;-0.127043
3.71;3.75;2.0;2.75;2.25;2.25;1.5;0.25;0.75;0.75;0.0;0.25;0.5;1.5;1.0;0.25;0.25;-0.179199;0.022461;0.996094;-0.56;0.56;0.56;232.0;-0.153534;-0.058591;2.0;3.5;2.25;2.5;2.0;2.75;0.0;1.0;0.5;0.25;0.5;0.75;1.75;0.75;0.25;0.5;-0.219238;0.030762;0.98291;-0.56;-0.91;0.63;242.0;-0.141988;-0.124951
3.72;3.75;2.0;2.75;2.25;2.5;1.75;0.25;0.75;1.0;0.25;0.25;0.5;1.5;1.0;0.25;0.25;-0.182617;0.026367;0.995605;-0.56;0.63;0.49;244.0;-0.142575;-0.053423;1.75;3.5;2.0;2.75;2.0;2.5;0.0;1.0;0.25;0.25;0.25;0.75;1.5;0.75;0.25;0.5;-0.221191;0.033691;0.984375;-0.7;-0.84;0.7;228.0;-0.152969;-0.133012
3.73;3.25;2.0;2.75;2.5;2.5;1.5;0.25;0.5;0.5;0.25;0.0;0.25;1.5;1.0;0.25;0.25;-0.183594;0.026855;0.996582;-0.7;0.42;0.49;221.0;-0.16242;-0.05721;2.0;3.25;2.0;2.5;2.0;2.75;0.0;1.0;0.25;0.25;0.25;0.75;1.75;0.75;0.0;0.25;-0.21875;0.028809;0.982422;-0.63;-0.91;0.63;226.0;-0.158482;-0.133124
3.74;2.75;2.0;3.0;2.25;2.5;1.5;0.25;0.75;0.5;0.25;0.25;0.25;1.5;1.25;0.0;0.25;-0.181152;0.029297;0.99707;-0.77;0.28;0.49;222.0;-0.149551;-0.061414;2.25;3.0;2.25;2.5;2.0;2.75;0.0;1.0;0.5;0.25;0.25;0.75;1.75;0.75;0.25;0.25;-0.219238;0.035645;0.987793;-0.7;-1.05;0.63;236.0;-0.14687;-0.120192
3.75;3.25;2.0;2.75;2.25;2.5;1.75;0.25;0.75;0.5;0.25;0.25;0.25;1.5;1.5;0.25;0.25;-0.181641;0.024902;0.997559;-0.77;0.42;0.56;233.0;-0.141772;-0.059825;2.25;3.25;2.25;2.5;2.0;2.5;0.0;1.0;0.5;0.5;0.5;0.75;1.75;0.75;0.25;0.5;-0.21582;0.035645;0.983887;-0.7;-1.05;0.7;243.0;-0.137574;-0.117769
3.76;2.75;2.0;2.75;2.25;2.25;1.75;0.25;0.75;0.75;0.25;0.25;0.25;1.5;1.75;0.25;0.25;-0.182129;0.027832;0.992188;-0.56;0.42;0.56;230.0;-0.123787;-0.057964;1.75;3.25;2.25;2.5;2.0;2.5;0.0;1.0;0.5;0.25;0.5;0.75;1.75;1.0;0.25;0.5;-0.219238;0.036133;0.981445;-0.77;-0.98;0.7;236.0;-0.130356;-0.122476
3.77;3.0;2.0;3.0;2.25;2.5;1.75;0.25;0.75;0.5;0.25;0.25;0.5;1.5;1.75;0.25;0.25;-0.174805;0.029297;0.994629;-0.63;0.42;0.56;238.0;-0.13062;-0.060457;2.0;3.25;2.25;2.5;2.0;2.5;0.0;1.25;0.25;0.25;0.5;0.5;1.75;1.0;0.0;0.5;-0.21582;0.035156;0.984863;-0.7;-0.91;0.63;234.0;-0.14823;-0.128902
3.78;3.25;2.0;3.0;2.25;2.25;1.75;0.25;0.75;0.5;0.25;0.25;0.5;1.5;1.75;0.25;0.25;-0.17334;0.027344;0.98877;-0.63;0.63;0.49;238.0;-0.133924;-0.05998;2.0;3.25;2.0;2.5;2.0;2.25;0.0;1.25;0.25;0.5;0.75;0.5;1.75;0.75;0.0;0.5;-0.220703;0.034668;0.980957;-0.7;-0.77;0.56;231.0;-0.142859;-0.130474
3.79;4.0;2.25;3.0;2.25;2.25;1.75;0.25;0.75;0.75;0.25;0.25;0.25;1.5;1.75;0.25;0.25;-0.186035;0.024902;0.996582;-0.7;0.56;0.49;250.0;-0.144284;-0.047817;2.25;3.5;2.25;2.5;2.0;2.25;0.0;1.25;0.25;0.25;0.5;0.75;1.75;0.75;0.25;0.5;-0.224609;0.037598;0.982422;-0.77;-0.84;0.63;240.0;-0.148506;-0.129112
3.8;4.0;2.25;2.75;2.25;2.5;1.75;0.25;0.5;0.5;0.25;0.0;0.25;1.5;1.75;0.25;0.25;-0.186523;0.027832;0.996582;-0.63;0.56;0.56;239.0;-0.15521;-0.046212;1.75;3.25;2.25;2.5;2.0;2.75;0.0;1.0;0.5;0.25;0.5;0.75;1.75;0.75;0.25;0.25;-0.215332;0.037109;0.976562;-0.63;-0.91;0.56;236.0;-0.13907;-0.126134
3.81;3.25;2.25;2.5;2.25;2.5;1.75;0.25;0.75;0.5;0.5;0.0;0.25;1.5;1.75;0.0;0.25;-0.180664;0.030273;0.991699;-0.63;0.21;0.49;232.0;-0.144223;-0.05808;2.25;3.0;2.0;2.5;2.0;2.75;0.0;1.0;0.5;0.25;0.5;0.5;1.75;0.75;0.25;0.25;-0.213379;0.03125;0.98291;-0.77;-0.84;0.63;233.0;-0.145135;-0.120716
3.82;3.25;2.25;3.25;2.25;2.5;1.75;0.25;0.75;0.75;0.25;0.25;0.5;1.5;1.5;0.25;0.25;-0.176758;0.026855;0.991211;-0.7;0.49;0.49;248.0;-0.137797;-0.055161;2.25;3.25;2.25;2.5;2.0;2.5;0.0;1.0;0.25;0.25;0.25;0.75;1.75;1.0;0.0;0.5;-0.217285;0.030273;0.987305;-0.84;-0.98;0.63;233.0;-0.153941;-0.123528
3.83;4.0;2.25;3.25;2.5;2.5;1.75;0.25;0.5;0.75;0.0;0.25;0.5;1.5;1.5;0.25;0.25;-0.182617;0.030273;0.999512;-0.63;0.42;0.49;253.0;-0.154821;-0.047454;2.25;3.5;2.25;2.75;2.0;2.5;0.0;1.25;0.25;0.25;0.25;0.75;2.0;1.0;0.0;0.25;-0.218262;0.033691;0.984863;-0.77;-0.91;0.63;243.0;-0.155887;-0.131929
3.84;4.0;2.25;3.0;2.5;2.5;1.75;0.25;0.75;0.75;0.0;0.25;0.5;1.5;1.5;0.0;0.25;-0.178711;0.03125;0.993652;-0.63;0.56;0.56;251.0;-0.157537;-0.054436;1.75;3.25;2.25;2.5;2.0;2.5;0.0;1.25;0.5;0.0;0.5;0.75;1.75;1.0;0.0;0.25;-0.219238;0.033203;0.97998;-0.77;-0.98;0.7;233.0;-0.142491;-0.128835
3.85;3.75;2.25;3.0;2.5;2.5;1.75;0.25;0.75;0.5;0.0;0.0;0.5;1.5;1.75;0.0;0.25;-0.182617;0.031738;0.991699;-0.56;0.63;0.56;244.0;-0.159826;-0.058222;2.25;3.0;2.25;2.5;2.0;2.75;0.0;1.25;0.5;0.25;0.5;0.75;1.75;1.25;0.25;0.25;-0.212891;0.032227;0.983398;-0.7;-0.84;0.63;247.0;-0.129799;-0.119125
3.86;3.75;2.25;3.0;2.5;2.5;1.75;0.25;0.75;0.5;0.0;0.25;0.5;1.5;1.75;0.0;0.25;-0.179688;0.025391;0.994141;-0.63;0.49;0.49;247.0;-0.155355;-0.058891;2.0;3.0;2.25;2.5;2.0;2.5;0.0;1.25;0.75;0.5;0.5;1.0;1.75;0.75;0.25;0.25;-0.22168;0.032715;0.98584;-0.84;-0.91;0.63;246.0;-0.122775;-0.119716
3.87;3.25;2.25;2.75;2.25;2.5;1.75;0.25;1.0;0.75;0.25;0.25;0.5;1.5;1.0;0.25;0.25;-0.180664;0.026855;0.994629;-0.63;0.35;0.56;242.0;-0.14299;-0.069088;2.0;3.25;2.0;2.5;2.0;2.5;0.0;1.0;0.25;0.25;0.5;1.0;1.5;0.75;0.25;0.25;-0.220215;0.037598;0.977539;-0.84;-0.91;0.63;229.0;-0.145444;-0.129124
3.88;3.75;2.25;3.0;2.5;2.5;1.75;0.25;0.75;0.75;0.0;0.25;0.5;1.5;1.25;0.0;0.25;-0.181641;0.032715;0.994141;-0.56;0.49;0.56;246.0;-0.160095;-0.05851;2.0;3.25;2.25;2.5;2.0;2.5;0.0;1.0;0.25;0.25;0.5;0.75;1.75;0.75;0.25;0.5;-0.222168;0.037109;0.978516;-0.91;-0.91;0.56;233.0;-0.144998;-0.128741
3.89;3.75;2.25;3.25;2.5;2.25;1.75;0.25;0.5;0.75;0.0;0.25;0.5;1.5;1.25;0.25;0.25;-0.179199;0.026855;0.99707;-0.49;0.56;0.49;244.0;-0.157697;-0.052738;2.0;3.25;2.0;2.5;2.0;2.75;0.0;1.25;0.25;0.25;0.75;0.75;1.75;0.75;0.25;0.5;-0.217773;0.032227;0.982422;-0.84;-0.98;0.56;240.0;-0.136841;-0.137702
3.9;3.25;2.25;3.0;2.5;2.5;1.75;0.25;0.75;0.75;0.25;0.25;0.5;1.5;1.75;0.25;0.25;-0.180664;0.027344;0.993164;-0.49;0.63;0.56;250.0;-0.132931;-0.056794;2.25;3.25;2.25;2.5;2.0;2.75;0.0;1.0;0.25;0.25;0.5;0.75;1.75;1.0;0.25;0.25;-0.21582;0.036621;0.983398;-0.84;-0.98;0.7;240.0;-0.145857;-0.123624
3.91;3.75;2.25;3.0;2.5;2.25;1.75;0.25;0.75;1.0;0.25;0.25;0.5;1.5;1.0;0.0;0.5;-0.182129;0.026367;0.999512;-0.49;0.49;0.56;248.0;-0.152181;-0.057492;2.0;3.25;2.25;2.5;2.25;2.75;0.0;1.0;0.25;0.25;0.5;0.75;2.0;0.75;0.25;0.25;-0.214355;0.032227;0.981445;-0.84;-0.77;0.63;240.0;-0.144874;-0.130279
3.92;3.75;2.25;3.0;2.5;2.5;1.75;0.25;0.75;1.0;0.25;0.25;0.5;1.5;1.25;0.0;0.25;-0.180176;0.023926;0.996582;-0.56;0.42;0.63;252.0;-0.149671;-0.052408;2.0;3.25;2.25;2.75;2.25;2.75;0.0;1.25;0.25;0.25;0.5;0.5;1.75;0.75;0.0;0.5;-0.217773;0.032715;0.981445;-0.84;-0.91;0.63;241.0;-0.155139;-0.132462
3.93;4.0;2.5;2.75;2.5;2.5;1.75;0.25;0.75;0.75;0.25;0.25;0.25;1.5;1.75;0.25;0.0;-0.18457;0.027344;0.993164;-0.7;0.56;0.49;254.0;-0.149941;-0.049889;2.25;3.25;2.0;2.5;2.0;2.5;0.0;1.0;0.5;0.25;0.5;0.5;1.75;0.75;0.0;0.5;-0.215332;0.035645;0.981445;-0.91;-0.98;0.63;231.0;-0.151629;-0.120965
3.94;4.0;2.25;3.25;2.25;2.5;1.75;0.25;0.75;0.5;0.25;0.25;0.25;1.5;1.25;0.5;0.25;-0.185059;0.029785;0.989746;-0.56;0.49;0.56;251.0;-0.155253;-0.054009;2.0;3.25;2.0;2.5;2.0;2.5;0.0;1.0;0.5;0.25;0.5;0.5;1.5;0.75;0.0;0.5;-0.21582;0.030273;0.981934;-0.91;-0.98;0.7;226.0;-0.151824;-0.120291
3.95;4.0;2.25;3.25;2.5;2.25;1.75;0.25;0.75;0.5;0.25;0.25;0.25;1.5;1.0;0.25;0.25;-0.180176;0.027832;0.991699;-0.49;0.42;0.56;245.0;-0.16918;-0.059368;2.0;3.25;2.0;2.5;2.0;2.5;0.0;1.0;0.5;0.25;0.5;0.5;1.5;0.75;0.0;0.25;-0.218262;0.034668;0.987793;-0.77;-1.05;0.56;224.0;-0.155208;-0.119015
3.96;4.0;2.25;3.0;2.5;2.5;1.75;0.25;0.75;0.5;0.0;0.25;0.5;1.5;1.25;0.0;0.25;-0.182617;0.03125;0.992676;-0.49;0.42;0.56;245.0;-0.168986;-0.061437;1.75;3.25;2.25;2.5;2.0;2.5;0.0;1.0;0.5;0.25;0.75;0.75;1.5;1.0;0.0;0.25;-0.212891;0.033691;0.983398;-0.84;-1.05;0.56;233.0;-0.138768;-0.118241
3.97;3.75;2.25;3.25;2.5;2.5;1.75;0.25;0.75;0.5;0.0;0.25;0.5;1.5;1.0;0.0;0.25;-0.181641;0.02832;0.994629;-0.56;0.49;0.56;243.0;-0.173029;-0.063814;2.25;3.0;2.25;2.5;2.0;2.75;0.0;1.0;0.25;0.25;0.25;0.75;1.75;0.75;0.25;0.25;-0.214355;0.036621;0.983398;-0.77;-0.98;0.56;232.0;-0.15308;-0.126268
3.98;3.75;2.25;3.25;2.5;2.5;1.75;0.25;0.75;0.75;0.25;0.25;0.5;1.5;1.5;0.25;0.25;-0.18457;0.028809;0.990723;-0.56;0.49;0.49;257.0;-0.145396;-0.053528;2.25;3.0;2.25;2.5;2.0;2.75;0.0;1.0;0.5;0.25;0.25;0.75;1.75;0.75;0.25;0.25;-0.217285;0.03125;0.983398;-0.84;-1.05;0.63;236.0;-0.14687;-0.120192
3.99;3.75;2.25;3.25;2.25;2.25;1.75;0.25;0.75;0.75;0.0;0.25;0.5;1.5;1.5;0.25;0.0;-0.182129;0.029297;0.991699;-0.56;0.49;0.56;246.0;-0.151402;-0.052634;2.0;3.25;2.25;2.75;2.0;2.75;0.0;1.0;0.75;0.5;0.5;0.75;1.75;0.5;0.25;0.25;-0.217285;0.03418;0.98877;-0.84;-1.05;0.63;245.0;-0.13899;-0.119469
4.0;4.0;2.25;3.0;2.5;2.25;1.75;0.25;0.75;0.75;0.0;0.25;0.5;1.5;1.75;0.25;0.25;-0.182617;0.029297;0.997559;-0.49;0.42;0.56;253.0;-0.146285;-0.053994;2.0;3.25;2.25;2.5;2.5;2.75;0.0;1.0;0.25;0.25;0.25;0.75;1.75;0.5;0.25;0.25;-0.213867;0.035156;0.983887;-0.77;-0.91;0.56;236.0;-0.157761;-0.127734
4.01;3.75;2.25;3.25;2.5;2.5;1.75;0.25;1.0;0.5;0.0;0.25;0.5;1.5;1.5;0.0;0.25;-0.183594;0.032715;0.991699;-0.63;0.35;0.56;252.0;-0.159563;-0.064785;2.0;3.25;2.25;2.5;2.25;2.75;0.0;1.0;0.25;0.25;0.25;0.75;1.5;0.75;0.25;0.25;-0.214844;0.032227;0.985352;-0.84;-1.05;0.56;233.0;-0.1558;-0.123744
4.02;3.25;2.0;3.0;2.5;2.5;1.75;0.25;0.75;0.5;0.25;0.25;0.5;1.5;1.5;0.25;0.25;-0.177734;0.025391;0.999512;-0.56;0.42;0.56;242.0;-0.140965;-0.0628;2.0;3.25;2.25;2.5;2.0;2.5;0.0;1.0;0.5;0.25;0.5;1.0;1.5;0.75;0.0;0.25;-0.223145;0.037598;0.983887;-0.84;-1.19;0.7;233.0;-0.147652;-0.12065
4.03;4.0;2.25;3.0;2.5;2.25;1.75;0.25;0.75;0.75;0.25;0.25;0.5;1.5;1.75;0.25;0.5;-0.180176;0.030273;0.997559;-0.56;0.42;0.63;257.0;-0.139097;-0.054186;2.0;3.25;2.25;2.5;2.0;2.5;0.0;1.0;0.5;0.0;0.5;1.0;1.5;0.5;0.0;0.25;-0.219238;0.038086;0.98291;-0.77;-1.05;0.63;228.0;-0.1582;-0.12599
4.04;3.75;2.25;3.0;2.5;2.25;1.75;0.25;0.75;0.75;0.25;0.25;0.5;1.5;1.5;0.25;0.25;-0.179688;0.025391;0.989258;-0.56;0.7;0.56;251.0;-0.144176;-0.056641;2.0;3.25;2.5;2.5;2.0;2.5;0.0;1.0;0.75;0.25;0.5;0.75;1.5;0.75;0.0;0.25;-0.216309;0.035156;0.983398;-0.77;-1.05;0.56;237.0;-0.147404;-0.109853
4.05;3.75;2.25;3.25;2.5;2.25;1.75;0.25;0.75;0.75;0.25;0.25;0.5;1.5;1.75;0.0;0.0;-0.180176;0.032715;0.992188;-0.56;0.77;0.56;252.0;-0.149763;-0.050909;2.5;3.75;2.5;3.0;2.0;2.75;0.0;1.0;0.75;0.25;0.5;0.75;1.5;0.75;0.0;0.25;-0.217773;0.03418;0.979004;-0.77;-0.98;0.63;256.0;-0.161674;-0.110716
4.06;3.0;2.25;3.0;2.5;2.5;1.75;0.25;0.75;0.75;0.0;0.25;0.5;1.75;2.0;0.0;0.0;-0.177246;0.036621;0.996094;-0.49;0.56;0.56;245.0;-0.135371;-0.059927;2.25;3.25;2.0;2.5;2.0;2.75;0.0;1.25;0.5;0.25;0.5;0.75;1.5;0.75;0.25;0.5;-0.219727;0.029297;0.98291;-0.77;-0.91;0.7;241.0;-0.141424;-0.125807
4.07;4.0;2.5;3.0;2.5;2.25;1.75;0.25;1.0;1.0;0.0;0.25;0.5;1.5;1.5;0.0;0.0;-0.178711;0.026855;0.996094;-0.63;0.56;0.56;257.0;-0.155323;-0.056283;2.0;3.25;2.0;2.5;2.0;2.75;0.0;1.25;0.5;0.25;0.5;0.75;1.75;1.0;0.25;0.5;-0.217285;0.033691;0.98291;-0.7;-0.91;0.56;243.0;-0.130082;-0.128891
4.08;3.25;2.25;3.0;2.5;2.25;1.75;0.25;0.75;1.0;0.0;0.25;0.25;1.5;1.0;0.25;0.25;-0.182617;0.032715;0.991211;-0.63;0.63;0.49;238.0;-0.151718;-0.058716;2.25;3.25;2.0;2.5;2.0;2.5;0.0;1.25;0.5;0.5;0.25;0.75;1.75;0.5;0.0;0.5;-0.220215;0.035645;0.984375;-0.77;-0.91;0.63;236.0;-0.150173;-0.128658
