Time;left pressure 1[N/cm²];left pressure 2[N/cm²];left pressure 3[N/cm²];left pressure 4[N/cm²];left pressure 5[N/cm²];left pressure 6[N/cm²];left pressure 7[N/cm²];left pressure 8[N/cm²];left pressure 9[N/cm²];left pressure 10[N/cm²];left pressure 11[N/cm²];left pressure 12[N/cm²];left pressure 13[N/cm²];left pressure 14[N/cm²];left pressure 15[N/cm²];left pressure 16[N/cm²];left acceleration X[g];left acceleration Y[g];left acceleration Z[g];left angular X[dps];left angular Y[dps];left angular Z[dps];left total force[N];left center of pressure X[-0.5...+0.5];left center of pressure Y[-0.5...+0.5];right pressure 1[N/cm²];right pressure 2[N/cm²];right pressure 3[N/cm²];right pressure 4[N/cm²];right pressure 5[N/cm²];right pressure 6[N/cm²];right pressure 7[N/cm²];right pressure 8[N/cm²];right pressure 9[N/cm²];right pressure 10[N/cm²];right pressure 11[N/cm²];right pressure 12[N/cm²];right pressure 13[N/cm²];right pressure 14[N/cm²];right pressure 15[N/cm²];right pressure 16[N/cm²];right acceleration X[g];right acceleration Y[g];right acceleration Z[g];right angular X[dps];right angular Y[dps];right angular Z[dps];right total force[N];right center of pressure X[-0.5...+0.5];right center of pressure Y[-0.5...+0.5]
0.0;4.0;3.25;5.25;5.5;6.25;7.25;0.75;4.0;3.0;1.25;0.75;1.25;1.5;8.0;0.75;1.25;-0.162598;0.023926;1.005859;-0.56;0.35;0.42;633.0;-0.049993;-0.064154;0.0;0.0;0.0;0.0;0.0;0.0;0.0;0.0;0.0;0.0;0.0;0.0;0.0;0.0;0.0;0.0;-0.061523;-0.134766;1.054688;-0.14;-10.57;-31.780001;0.0;0.0;0.0
0.01;3.5;3.0;5.0;5.5;6.25;7.0;1.0;4.25;3.0;1.5;1.0;1.0;1.5;8.25;0.75;1.25;-0.160156;0.015625;1.001953;-0.35;0.56;0.49;632.0;-0.039671;-0.062929;0.0;0.0;0.0;0.0;0.0;0.0;0.0;0.0;0.0;0.0;0.0;0.0;0.0;0.0;0.0;0.0;-0.061523;-0.134766;1.054688;-0.14;-10.57;-31.780001;0.0;0.0;0.0
0.02;3.5;2.75;5.0;5.5;6.0;7.0;1.0;4.25;3.0;1.0;1.0;1.0;1.5;8.75;0.75;1.25;-0.162109;0.018066;1.000977;-0.49;1.05;0.42;625.0;-0.03693;-0.062476;0.0;0.0;0.0;0.0;0.0;0.0;0.0;0.0;0.0;0.0;0.0;0.0;0.0;0.0;0.0;0.0;-0.061523;-0.134766;1.054688;-0.14;-10.57;-31.780001;0.0;0.0;0.0
0.03;3.0;2.5;5.0;5.25;6.25;7.0;1.0;4.25;3.0;1.5;1.0;1.25;2.0;8.75;0.75;1.25;-0.166992;0.026367;1.00293;-0.35;1.33;0.21;630.0;-0.02619;-0.065145;0.0;0.0;0.0;0.0;0.0;0.0;0.0;0.0;0.0;0.0;0.0;0.0;0.0;0.0;0.0;0.0;-0.061523;-0.134766;1.054688;-0.14;-10.57;-31.780001;0.0;0.0;0.0
0.04;3.0;2.25;4.5;5.25;6.25;6.25;1.0;4.5;3.5;1.5;1.0;1.25;2.0;9.0;0.75;1.25;-0.16748;0.029785;1.003906;-0.84;1.19;0.21;627.0;-0.01555;-0.060679;0.0;0.0;0.0;0.0;0.0;0.0;0.0;0.0;0.0;0.0;0.0;0.0;0.0;0.0;0.0;0.0;-0.061523;-0.134766;1.054688;-0.14;-10.57;-31.780001;0.0;0.0;0.0
0.05;2.75;2.25;4.25;5.0;6.25;6.5;1.0;4.5;3.5;1.25;1.0;1.25;2.0;9.5;0.75;1.25;-0.162598;0.026855;0.999512;-0.77;1.12;0.28;622.0;-0.009881;-0.061198;0.0;0.0;0.0;0.0;0.0;0.0;0.0;0.0;0.0;0.0;0.0;0.0;0.0;0.0;0.0;0.0;-0.061523;-0.134766;1.054688;-0.14;-10.57;-31.780001;0.0;0.0;0.0
0.06;2.25;1.75;4.25;4.75;6.0;7.0;1.0;4.5;3.5;1.25;1.0;1.25;2.25;10.0;0.75;1.25;-0.170898;0.026855;1.000488;-0.63;1.19;0.42;619.0;0.001419;-0.063467;0.0;0.0;0.0;0.0;0.0;0.0;0.0;0.0;0.0;0.0;0.0;0.0;0.0;0.0;0.0;0.0;-0.061523;-0.134766;1.054688;-0.14;-10.57;-31.780001;0.0;0.0;0.0
0.07;2.5;1.75;4.0;4.25;6.0;6.5;1.0;4.5;3.5;1.75;1.0;1.5;2.25;10.5;0.25;1.25;-0.172363;0.025391;1.00293;-0.49;1.05;0.42;614.0;0.007691;-0.057739;0.0;0.0;0.0;0.0;0.0;0.0;0.0;0.0;0.0;0.0;0.0;0.0;0.0;0.0;0.0;0.0;-0.061523;-0.134766;1.054688;-0.14;-10.57;-31.780001;0.0;0.0;0.0
0.08;2.5;1.5;4.0;4.25;6.0;6.25;1.0;4.75;3.5;1.75;1.0;1.75;2.0;10.5;0.25;1.25;-0.16748;0.022949;0.997559;-0.42;0.91;0.42;613.0;0.010394;-0.058085;0.0;0.0;0.0;0.0;0.0;0.0;0.0;0.0;0.0;0.0;0.0;0.0;0.0;0.0;0.0;0.0;-0.061523;-0.134766;1.054688;-0.14;-10.57;-31.780001;0.0;0.0;0.0
0.09;2.5;1.5;3.75;4.5;6.0;6.5;1.0;4.75;3.5;1.75;1.25;1.5;2.5;10.5;0.5;1.5;-0.17041;0.02832;1.000488;-0.35;0.63;0.56;625.0;0.013463;-0.06355;0.0;0.0;0.0;0.0;0.0;0.0;0.0;0.0;0.0;0.0;0.0;0.0;0.0;0.0;0.0;0.0;-0.061523;-0.134766;1.054688;-0.14;-10.57;-31.780001;0.0;0.0;0.0
0.1;2.0;1.75;4.0;4.5;6.0;6.5;1.25;4.75;3.5;1.75;1.25;1.25;2.0;10.5;0.25;1.5;-0.174805;0.025879;1.001465;-0.14;0.28;0.49;619.0;0.01067;-0.058557;0.0;0.0;0.0;0.0;0.0;0.0;0.0;0.0;0.0;0.0;0.0;0.0;0.0;0.0;0.0;0.0;-0.061523;-0.134766;1.054688;-0.14;-10.57;-31.780001;0.0;0.0;0.0
0.11;2.0;1.75;3.75;4.5;6.0;7.0;1.0;4.75;3.25;1.75;1.25;1.25;2.25;10.25;0.25;1.25;-0.174805;0.027344;0.997559;0.07;0.35;0.49;613.0;0.006803;-0.067172;0.0;0.0;0.0;0.0;0.0;0.0;0.0;0.0;0.0;0.0;0.0;0.0;0.0;0.0;0.0;0.0;-0.061523;-0.134766;1.054688;-0.14;-10.57;-31.780001;0.0;0.0;0.0
0.12;1.5;1.5;4.0;4.5;6.0;7.25;1.0;4.75;3.25;1.75;1.25;1.75;2.5;10.25;0.75;1.5;-0.163574;0.020996;1.00293;0.21;-0.0;0.63;626.0;0.017106;-0.072889;0.0;0.0;0.0;0.0;0.0;0.0;0.0;0.0;0.0;0.0;0.0;0.0;0.0;0.0;0.0;0.0;-0.044434;-0.129883;1.088379;-0.77;-12.53;-32.41;0.0;0.0;0.0
0.13;2.25;1.75;4.25;4.5;6.25;7.25;1.0;4.75;3.25;1.75;1.25;1.75;3.0;10.0;0.75;1.5;-0.169922;0.018555;0.991211;0.49;0.14;0.91;645.0;0.007575;-0.073211;0.0;0.0;0.0;0.0;0.0;0.0;0.0;0.0;0.0;0.0;0.0;0.0;0.0;0.0;0.0;0.0;-0.044922;-0.114258;1.09375;-1.96;-13.86;-31.43;0.0;0.0;0.0
0.14;2.75;1.75;4.5;4.75;6.25;7.25;1.0;4.75;3.25;1.25;1.0;1.25;2.5;9.75;0.25;1.25;-0.17041;0.030762;0.99707;0.63;0.28;0.77;628.0;-0.010991;-0.06788;0.0;0.0;0.0;0.0;0.0;0.0;0.0;0.0;0.0;0.0;0.0;0.0;0.0;0.0;0.0;0.0;-0.03418;-0.0625;1.086914;-6.79;-17.710001;-23.66;0.0;0.0;0.0
0.15;2.5;2.0;4.25;5.0;6.0;7.5;0.75;4.75;3.25;1.25;0.75;1.25;2.5;9.5;0.25;1.25;-0.17041;0.027832;1.000977;0.91;0.14;0.77;619.0;-0.014355;-0.075003;0.0;0.0;0.0;0.0;0.0;0.0;0.0;0.0;0.0;0.0;0.0;0.0;0.0;0.0;0.0;0.0;-0.041992;-0.025879;1.055176;-8.82;-19.950001;-15.47;0.0;0.0;0.0
0.16;2.75;2.0;4.25;4.75;6.0;7.5;0.75;5.0;3.0;1.5;0.75;1.25;2.5;9.0;0.5;1.25;-0.166992;0.027344;1.0;0.84;-0.07;0.56;620.0;-0.016434;-0.07887;0.0;0.0;0.0;0.0;0.0;0.0;0.0;0.0;0.0;0.0;0.0;0.0;0.0;0.0;0.0;0.0;-0.053223;-0.013184;1.035645;-10.36;-21.559999;-7.63;0.0;0.0;0.0
0.17;2.5;2.25;4.25;5.0;6.0;7.75;0.75;5.0;3.25;1.5;1.0;1.25;3.0;9.25;0.5;1.5;-0.166992;0.026855;1.001953;0.63;-0.0;0.42;641.0;-0.011802;-0.082246;0.0;0.0;0.0;0.0;0.0;0.0;0.0;0.0;0.0;0.0;0.0;0.0;0.0;0.0;0.0;0.0;-0.071777;-0.004883;1.024902;-10.57;-21.98;-1.26;0.0;0.0;0.0
0.18;2.75;1.75;4.0;5.0;6.25;7.75;0.75;5.25;3.25;1.25;1.0;1.25;3.0;9.5;0.75;1.25;-0.168457;0.027344;0.997559;0.56;-0.14;0.35;643.0;-0.00825;-0.08207;0.0;0.0;0.0;0.0;0.0;0.0;0.0;0.0;0.0;0.0;0.0;0.0;0.0;0.0;0.0;0.0;-0.076172;-0.019043;1.030273;-9.87;-21.629999;4.83;0.0;0.0;0.0
0.19;2.75;2.0;4.0;5.0;6.25;8.0;0.75;5.25;2.75;1.25;1.0;1.5;2.5;9.75;0.75;1.25;-0.165527;0.029297;0.99707;0.49;-0.07;0.35;642.0;-0.012278;-0.084489;0.0;0.0;0.0;0.0;0.0;0.0;0.0;0.0;0.0;0.0;0.0;0.0;0.0;0.0;0.0;0.0;-0.092773;-0.036621;1.033691;-10.78;-21.559999;10.85;0.0;0.0;0.0
0.2;2.75;2.25;4.25;5.0;6.25;7.75;0.75;5.25;2.5;1.25;1.25;1.75;3.0;9.75;0.5;1.25;-0.169922;0.025391;0.999023;0.35;0.56;0.21;649.0;-0.014384;-0.088927;0.0;0.0;0.0;0.0;0.0;0.0;0.0;0.0;0.0;0.0;0.0;0.0;0.0;0.0;0.0;0.0;-0.109375;-0.041016;1.029785;-13.440001;-22.26;18.83;0.0;0.0;0.0
0.21;2.75;2.25;4.25;5.0;6.25;7.5;0.75;5.25;3.0;1.75;1.25;1.75;3.0;9.75;0.5;1.25;-0.177246;0.028809;0.99707;0.28;0.49;0.28;659.0;-0.008623;-0.082833;0.0;0.0;0.0;0.0;0.0;0.0;0.0;0.0;0.0;0.0;0.0;0.0;0.0;0.0;0.0;0.0;-0.124023;-0.048828;1.0;-14.28;-22.540001;21.629999;0.0;0.0;0.0
0.22;2.5;2.0;4.5;5.0;6.25;7.75;0.75;5.5;2.5;1.75;1.0;1.75;3.25;9.75;0.75;1.25;-0.165527;0.029785;1.004395;0.21;0.28;0.28;659.0;-0.008676;-0.090437;0.0;0.0;0.0;0.0;0.0;0.0;0.0;0.0;0.0;0.0;0.0;0.0;0.0;0.0;0.0;0.0;-0.146973;-0.04834;0.983398;-12.18;-21.91;21.77;0.0;0.0;0.0
0.23;2.5;2.0;4.5;5.0;6.25;8.0;0.75;5.25;2.25;1.25;1.25;1.75;3.0;9.75;0.75;1.25;-0.169922;0.026855;1.002441;0.07;0.28;0.28;649.0;-0.012567;-0.091467;0.0;0.0;0.0;0.0;0.0;0.0;0.0;0.0;0.0;0.0;0.0;0.0;0.0;0.0;0.0;0.0;-0.161133;-0.054688;0.955566;-7.98;-20.09;20.23;0.0;0.0;0.0
0.24;2.5;2.25;4.5;5.25;6.25;8.0;0.75;5.25;2.5;1.25;0.75;1.75;3.0;9.5;0.5;1.25;-0.162598;0.029297;1.003906;0.07;0.42;0.14;647.0;-0.019425;-0.091145;0.0;0.0;0.0;0.0;0.0;0.0;0.0;0.0;0.0;0.0;0.0;0.0;0.0;0.0;0.0;0.0;-0.183105;-0.07373;0.951172;-4.62;-17.360001;18.34;0.0;0.0;0.0
0.25;2.5;2.0;4.75;5.0;6.25;7.75;0.75;5.5;2.5;1.25;0.75;2.25;3.25;9.25;0.5;1.25;-0.171387;0.026855;1.005371;-0.14;0.42;0.21;652.0;-0.016;-0.09459;0.0;0.0;0.0;0.0;0.0;0.0;0.0;0.0;0.0;0.0;0.0;0.0;0.0;0.0;0.0;0.0;-0.195801;-0.092773;0.980957;-6.37;-13.86;16.73;0.0;0.0;0.0
0.26;2.75;2.0;4.5;5.25;6.25;7.75;0.75;5.5;2.5;1.25;1.0;2.0;3.25;9.25;0.75;1.25;-0.16748;0.029785;1.002441;-0.21;0.56;0.07;657.0;-0.015828;-0.09432;0.0;0.0;0.0;0.0;0.0;0.0;0.0;0.0;0.0;0.0;0.0;0.0;0.0;0.0;0.0;0.0;-0.188477;-0.083008;1.007812;-11.48;-14.07;16.799999;0.0;0.0;0.0
0.27;3.0;2.25;4.5;5.25;6.25;7.75;0.75;5.25;2.25;1.25;0.75;1.75;3.0;8.75;0.5;1.25;-0.175293;0.023926;1.000977;-0.42;0.7;0.21;639.0;-0.028455;-0.093502;0.0;0.0;0.0;0.0;0.0;0.0;0.0;0.0;0.0;0.0;0.0;0.0;0.0;0.0;0.0;0.0;-0.196289;-0.054688;1.02002;-15.68;-16.17;17.43;0.0;0.0;0.0
0.28;3.0;2.25;4.5;5.25;6.25;7.75;0.75;5.25;2.25;1.25;0.75;2.0;3.25;8.75;0.5;1.0;-0.169922;0.027832;0.998047;-0.42;0.35;0.28;643.0;-0.027564;-0.095249;0.0;0.0;0.0;0.0;0.0;0.0;0.0;0.0;0.0;0.0;0.0;0.0;0.0;0.0;0.0;0.0;-0.206055;-0.020996;0.998047;-16.870001;-19.040001;18.48;0.0;0.0;0.0
0.29;3.0;2.25;5.0;5.25;6.5;8.0;0.75;5.25;2.25;1.25;0.75;1.75;3.0;8.75;0.5;0.75;-0.168945;0.029785;0.998535;-0.56;0.56;0.28;648.0;-0.033476;-0.090884;0.0;0.0;0.0;0.0;0.0;0.0;0.0;0.0;0.0;0.0;0.0;0.0;0.0;0.0;0.0;0.0;-0.225098;0.007324;0.975098;-15.47;-21.559999;19.6;0.0;0.0;0.0
0.3;3.0;2.25;5.0;5.5;6.5;8.0;0.75;5.0;2.0;1.25;0.75;1.75;2.5;9.25;0.5;0.75;-0.166504;0.030762;0.993164;-0.56;0.42;0.35;644.0;-0.034674;-0.08694;0.0;0.0;0.0;0.0;0.0;0.0;0.0;0.0;0.0;0.0;0.0;0.0;0.0;0.0;0.0;0.0;-0.239746;0.024902;0.941406;-13.16;-23.17;21.07;0.0;0.0;0.0
0.31;3.0;2.25;5.0;5.25;6.5;7.75;0.75;5.0;2.25;1.0;0.75;1.75;2.5;8.5;0.75;1.0;-0.165527;0.024414;1.001465;-0.77;0.42;0.07;636.0;-0.034512;-0.087466;0.0;0.0;0.0;0.0;0.0;0.0;0.0;0.0;0.0;0.0;0.0;0.0;0.0;0.0;0.0;0.0;-0.265625;0.043457;0.899414;-11.06;-23.73;24.57;0.0;0.0;0.0
0.32;3.5;2.25;5.0;5.25;6.5;8.0;0.75;5.0;2.25;1.25;0.75;1.5;2.5;8.5;0.5;1.0;-0.16748;0.029785;1.0;-0.7;0.42;0.14;641.0;-0.040158;-0.085013;0.0;0.0;0.0;0.0;0.0;0.0;0.0;0.0;0.0;0.0;0.0;0.0;0.0;0.0;0.0;0.0;-0.28418;0.068848;0.874512;-10.99;-23.24;27.58;0.0;0.0;0.0
0.33;3.0;2.5;5.25;5.5;6.5;8.0;0.75;4.75;2.25;1.25;1.25;1.25;2.75;8.25;0.75;1.0;-0.166992;0.030762;0.991699;-0.98;0.7;0.07;646.0;-0.038466;-0.086515;0.0;0.0;0.0;0.0;0.0;0.0;0.0;0.0;0.0;0.0;0.0;0.0;0.0;0.0;0.0;0.0;-0.306641;0.094727;0.863281;-11.34;-21.629999;31.92;0.0;0.0;0.0
0.34;3.0;2.75;5.25;5.5;6.5;7.75;0.75;4.75;2.0;1.25;1.25;1.25;2.75;8.25;0.5;1.0;-0.163574;0.023438;0.998535;-0.91;0.63;0.21;639.0;-0.043079;-0.088001;0.0;0.0;0.0;0.0;0.0;0.0;0.0;0.0;0.0;0.0;0.0;0.0;0.0;0.0;0.0;0.0;-0.338379;0.125;0.836426;-12.88;-19.32;37.170002;0.0;0.0;0.0
0.35;3.5;2.5;5.25;5.25;6.75;8.0;0.75;4.75;2.0;1.25;1.0;1.75;2.5;8.25;0.5;0.75;-0.174805;0.021973;1.00293;-1.12;0.77;0.14;644.0;-0.045181;-0.085336;0.0;0.0;0.0;0.0;0.0;0.0;0.0;0.0;0.0;0.0;0.0;0.0;0.0;0.0;0.0;0.0;-0.341797;0.181641;0.820312;-16.24;-13.79;44.029999;0.0;0.0;0.0
0.36;4.0;2.75;5.25;5.5;6.5;7.75;0.5;4.75;1.75;1.25;1.0;1.5;2.25;7.75;0.5;1.0;-0.160645;0.025879;1.000977;-1.19;0.63;0.14;633.0;-0.057003;-0.088667;0.0;0.0;0.0;0.0;0.0;0.0;0.0;0.0;0.0;0.0;0.0;0.0;0.0;0.0;0.0;0.0;-0.397461;0.216797;0.82373;-22.75;-10.01;56.209999;0.0;0.0;0.0
0.37;3.75;2.75;5.25;5.5;6.25;7.75;0.75;4.75;1.75;1.5;0.75;1.5;2.5;7.5;0.25;1.25;-0.169922;0.025879;0.99707;-1.4;0.84;0.0;630.0;-0.056186;-0.090224;0.0;0.0;0.0;0.0;0.0;0.0;0.0;0.0;0.0;0.0;0.0;0.0;0.0;0.0;0.0;0.0;-0.419434;0.249023;0.825195;-22.75;-6.44;64.540001;0.0;0.0;0.0
0.38;3.5;2.75;5.5;5.5;6.5;8.0;0.75;4.5;1.75;1.5;0.75;1.5;2.5;7.5;0.25;0.75;-0.166992;0.027344;0.997559;-1.26;0.7;0.07;629.0;-0.058674;-0.087343;0.0;0.0;0.0;0.0;0.0;0.0;0.0;0.0;0.0;0.0;0.0;0.0;0.0;0.0;0.0;0.0;-0.455078;0.27002;0.840332;-20.23;-5.25;71.889999;0.0;0.0;0.0
0.39;4.25;2.75;5.5;5.5;6.75;7.75;0.75;4.5;1.5;1.5;0.75;1.75;2.5;7.25;0.5;0.75;-0.169922;0.022461;1.001465;-1.33;0.56;0.07;638.0;-0.063316;-0.087078;0.0;0.0;0.0;0.0;0.0;0.0;0.0;0.0;0.0;0.0;0.0;0.0;0.0;0.0;0.0;0.0;-0.489746;0.266602;0.866211;-15.96;-4.97;77.629997;0.0;0.0;0.0
0.4;4.25;2.75;5.75;5.5;6.75;7.75;0.75;4.75;1.5;1.5;0.75;1.5;2.5;7.25;0.25;1.0;-0.16748;0.02832;0.999023;-1.12;0.49;0.07;641.0;-0.066298;-0.087826;0.0;0.0;0.0;0.0;0.0;0.0;0.0;0.0;0.0;0.0;0.0;0.0;0.0;0.0;0.0;0.0;-0.558594;0.233887;0.928223;-12.67;-7.42;80.709999;0.0;0.0;0.0
0.41;4.25;2.75;5.75;5.5;7.25;7.75;0.75;4.5;1.75;1.5;1.0;1.5;2.25;7.0;0.5;0.75;-0.165039;0.027344;1.001465;-1.33;0.42;0.14;646.0;-0.065568;-0.081645;0.0;0.0;0.0;0.0;0.0;0.0;0.0;0.0;0.0;0.0;0.0;0.0;0.0;0.0;0.0;0.0;-0.570801;0.223633;0.946289;-12.67;-9.1;80.010002;0.0;0.0;0.0
0.42;4.25;2.75;5.5;5.5;7.25;7.75;0.75;4.5;1.75;1.25;0.75;1.5;2.25;6.75;0.5;0.75;-0.168945;0.027344;0.999512;-1.4;0.42;-0.07;634.0;-0.069042;-0.083913;0.0;0.0;0.0;0.0;0.0;0.0;0.0;0.0;0.0;0.0;0.0;0.0;0.0;0.0;0.0;0.0;-0.585449;0.193848;0.978516;-13.02;-14.84;75.389999;0.0;0.0;0.0
0.43;4.25;2.75;5.75;5.5;7.25;7.5;0.75;4.25;2.0;1.25;0.75;1.5;2.0;6.75;0.75;0.75;-0.163086;0.025879;0.998047;-1.33;0.35;0.0;634.0;-0.066867;-0.076745;0.0;0.0;0.0;0.0;0.0;0.0;0.0;0.0;0.0;0.0;0.0;0.0;0.0;0.0;0.0;0.0;-0.577148;0.161621;0.952637;-8.75;-28.559999;59.779999;0.0;0.0;0.0
0.44;4.75;2.75;5.75;5.5;7.5;7.25;0.75;4.5;1.75;1.25;0.75;1.25;2.25;7.0;0.5;0.75;-0.167969;0.026367;1.003418;-1.54;0.28;-0.07;640.0;-0.071926;-0.077041;0.0;0.0;0.0;0.0;0.0;0.0;0.0;0.0;0.0;0.0;0.0;0.0;0.0;0.0;0.0;0.0;-0.594238;0.135254;0.87793;2.38;-35.84;43.889999;0.0;0.0;0.0
0.45;5.0;2.75;5.75;5.5;7.75;7.5;0.75;4.25;2.0;1.5;0.75;1.25;2.5;6.75;0.5;0.75;-0.164062;0.027832;1.0;-1.61;0.14;0.0;651.0;-0.072047;-0.07423;0.0;0.0;0.0;0.0;0.0;0.0;0.0;0.0;0.0;0.0;0.0;0.0;0.0;0.0;0.0;0.0;-0.616699;0.098145;0.797363;16.52;-39.200001;25.27;0.0;0.0;0.0
0.46;4.5;2.75;5.75;5.5;7.75;7.5;0.75;4.25;2.0;1.5;0.75;1.75;2.25;6.75;0.5;0.75;-0.164062;0.029297;0.996094;-1.75;0.07;0.0;649.0;-0.067543;-0.076387;0.0;0.0;0.0;0.0;0.0;0.0;0.0;0.0;0.0;0.0;0.0;0.0;0.0;0.0;0.0;0.0;-0.635742;0.058594;0.733887;28.210001;-38.220001;6.93;0.0;0.0;0.0
0.47;4.25;2.75;5.75;5.5;8.0;7.25;0.75;4.25;2.0;1.75;1.0;1.5;2.25;6.5;0.5;0.75;-0.164551;0.023438;0.99707;-1.68;0.28;0.0;646.0;-0.066253;-0.075148;0.0;0.0;0.0;0.0;0.0;0.0;0.0;0.0;0.0;0.0;0.0;0.0;0.0;0.0;0.0;0.0;-0.638184;0.05127;0.689453;35.07;-33.389999;-8.89;0.0;0.0;0.0
0.48;4.5;2.75;5.75;5.5;8.0;7.25;0.75;4.25;2.5;1.75;0.75;1.5;2.25;6.5;0.5;0.75;-0.162109;0.023438;0.997559;-1.61;0.35;0.14;653.0;-0.06546;-0.070346;0.0;0.0;0.0;0.0;0.0;0.0;0.0;0.0;0.0;0.0;0.0;0.0;0.0;0.0;0.0;0.0;-1.317383;-0.786621;0.523438;38.5;-23.030001;-23.940001;0.0;0.0;0.0
0.49;4.25;2.75;5.75;5.25;8.0;7.25;0.75;4.25;2.5;1.75;0.75;1.5;2.0;6.75;0.25;0.75;-0.166016;0.026367;0.994141;-1.68;0.42;0.0;645.0;-0.064185;-0.068039;0.0;0.0;0.0;0.0;0.0;0.0;0.0;0.0;0.0;0.0;0.0;0.0;0.0;0.0;0.0;0.0;-0.645508;0.164551;0.657715;92.959999;35.630001;-14.63;0.0;0.0;0.0
0.5;4.0;2.5;5.75;5.25;8.0;7.0;0.75;4.25;2.75;1.75;0.75;1.5;2.0;7.0;0.25;0.75;-0.164551;0.025879;1.000977;-1.75;0.56;0.0;642.0;-0.057392;-0.064689;0.0;0.0;0.0;0.0;0.0;0.0;0.0;0.0;0.0;0.0;0.0;0.0;0.0;0.0;0.0;0.0;-1.956055;-0.60498;1.481934;165.619995;27.02;-6.93;0.0;0.0;0.0
0.51;4.25;2.5;5.75;5.0;8.0;7.0;0.75;4.0;2.75;1.75;0.5;1.25;2.0;7.0;0.5;0.75;-0.170898;0.024902;0.998535;-1.61;0.56;0.07;635.0;-0.058524;-0.059815;0.0;0.0;0.0;0.0;0.0;0.0;0.0;0.0;0.0;0.0;0.0;0.0;0.0;0.0;0.0;0.0;-0.215332;-0.192383;0.15918;2.45;-23.1;-30.66;0.0;0.0;0.0
0.52;4.25;2.25;5.75;5.0;8.25;6.5;0.75;4.0;2.5;1.75;0.5;1.25;2.0;7.5;0.5;0.75;-0.16748;0.025391;1.000488;-1.82;1.12;0.0;631.0;-0.054842;-0.05695;0.0;0.0;0.0;0.0;0.0;0.0;0.0;0.0;0.0;0.0;0.0;0.0;0.0;0.0;0.0;0.0;-0.842285;-0.173828;1.141602;18.620001;-17.5;-20.299999;0.0;0.0;0.0
0.53;4.0;2.25;5.75;5.0;8.0;6.5;0.75;4.0;2.75;1.75;0.75;1.5;2.0;7.5;0.5;0.75;-0.166504;0.028809;1.005859;-1.82;1.12;-0.07;634.0;-0.048737;-0.057732;0.0;0.0;0.0;0.25;0.0;0.0;0.0;0.0;0.0;0.0;0.0;0.0;0.0;0.0;0.0;0.0;-0.179199;0.161133;0.916504;8.96;-16.59;-5.53;3.0;0.0;0.0
0.54;3.75;2.0;5.75;4.5;8.0;7.0;1.0;4.0;3.25;2.0;0.75;1.5;2.0;8.0;0.75;0.75;-0.169434;0.020996;0.99707;-2.03;1.4;0.0;650.0;-0.03377;-0.050804;0.0;0.25;0.25;0.25;0.0;0.0;0.0;0.0;0.0;0.0;0.0;0.0;0.0;0.25;0.0;0.0;-0.188965;-0.005859;1.037109;9.03;-15.96;2.03;11.0;0.0;0.0
0.55;3.75;1.75;5.75;4.0;8.0;6.25;1.0;3.75;3.25;2.5;0.25;1.25;2.0;8.5;0.5;0.75;-0.163574;0.033691;1.000488;-2.03;1.68;-0.14;628.0;-0.027973;-0.038667;0.0;0.5;0.25;0.25;0.25;0.25;0.0;0.0;0.0;0.0;0.0;0.0;0.0;0.5;0.0;0.0;-0.121094;0.0;0.89502;9.87;-18.200001;1.61;22.0;0.0;0.0
0.56;3.5;1.75;5.75;3.5;7.75;5.75;1.0;3.75;3.25;2.25;0.25;1.25;1.75;8.5;0.5;0.75;-0.174805;0.02002;1.006348;-2.03;2.1;-0.14;605.0;-0.023969;-0.034536;0.0;1.5;0.5;0.75;1.25;0.5;0.0;0.25;0.0;0.0;0.0;0.0;0.0;1.0;0.0;0.0;-0.1875;0.041504;1.033691;4.34;-10.22;1.19;65.0;-0.147181;-0.072356
0.57;3.25;1.5;5.25;3.25;7.5;5.5;1.0;3.5;3.25;2.5;0.75;1.5;1.75;8.75;0.25;0.75;-0.166992;0.026855;1.0;-2.1;2.66;-0.07;591.0;-0.011126;-0.032267;0.25;2.0;1.5;1.25;2.25;1.5;0.0;0.25;0.0;0.0;0.0;0.0;0.0;1.0;0.0;0.0;-0.200684;0.046387;1.021484;-0.07;-5.95;0.35;115.0;-0.183536;-0.0696
0.58;2.75;1.25;5.0;2.75;7.25;5.25;1.0;3.5;3.5;2.5;1.25;1.5;1.75;9.25;0.5;0.75;-0.168457;0.020996;1.0;-1.96;3.15;0.0;584.0;0.009263;-0.02849;0.25;2.75;2.5;1.75;2.75;2.0;0.0;0.5;0.0;0.25;0.0;0.0;0.0;1.25;0.0;0.0;-0.198242;0.006348;1.025391;0.49;-2.52;-0.14;162.0;-0.180741;-0.072908
0.59;2.25;1.0;4.5;2.75;7.0;5.25;1.0;3.5;3.5;2.5;1.25;1.25;1.5;9.25;0.75;0.75;-0.171387;0.022461;1.005371;-1.89;3.64;0.14;565.0;0.019316;-0.028104;0.5;2.75;2.5;2.25;3.75;3.0;0.0;1.0;0.0;0.25;0.0;0.0;0.0;1.75;0.0;0.0;-0.208008;0.01709;1.024902;2.17;-2.31;1.26;207.0;-0.161962;-0.085729
0.6;2.25;0.75;4.25;2.25;6.75;4.75;1.0;3.0;3.5;2.75;0.75;1.25;1.5;8.75;0.5;1.0;-0.169922;0.026855;1.004395;-1.89;5.04;0.07;527.0;0.024126;-0.018758;0.75;3.0;2.75;2.5;4.0;3.5;0.0;1.25;0.25;0.0;0.0;0.0;0.25;2.5;0.0;0.0;-0.202637;0.032227;1.006836;2.17;-1.4;2.52;242.0;-0.145799;-0.084367
0.61;1.5;0.5;3.5;1.75;6.25;3.75;1.0;2.5;4.0;2.75;0.75;1.25;1.5;8.75;0.5;0.75;-0.180176;0.022461;1.010254;-1.89;6.3;0.0;480.0;0.05268;-0.002692;0.75;3.0;3.0;2.5;4.0;3.5;0.0;1.25;0.0;0.25;0.0;0.0;0.25;3.25;0.0;0.0;-0.20166;0.037109;0.98877;1.47;0.21;1.75;251.0;-0.13312;-0.078422
0.62;1.25;0.25;3.0;1.25;5.5;3.25;0.75;2.25;4.0;2.75;0.75;1.25;1.25;9.5;0.5;0.75;-0.17041;0.019531;1.008789;-1.61;7.84;-0.07;444.0;0.078926;0.008212;0.75;3.0;2.75;2.75;4.0;3.75;0.0;1.75;0.0;0.25;0.0;0.0;0.25;3.5;0.0;0.0;-0.205566;0.030762;0.994141;0.84;0.91;1.05;265.0;-0.12497;-0.091813
0.63;1.0;0.25;2.5;0.5;4.5;2.5;0.75;1.75;3.75;3.0;1.0;1.25;1.0;9.5;0.5;1.0;-0.175781;0.022461;1.006836;-1.47;9.38;-0.14;398.0;0.11025;0.02327;0.75;2.5;2.5;2.25;3.75;3.5;0.0;1.75;0.25;0.25;0.0;0.0;0.25;4.25;0.0;0.0;-0.208008;0.022949;0.991699;0.14;0.35;0.84;255.0;-0.093365;-0.076584
0.64;0.5;0.0;1.75;0.25;3.0;2.0;0.5;1.5;3.75;3.25;0.75;1.0;1.0;9.75;0.75;0.75;-0.167969;0.020508;1.016113;-1.33;11.13;-0.28;347.0;0.1571;0.034875;0.75;2.75;2.25;2.5;4.0;3.75;0.25;2.0;0.25;0.25;0.0;0.0;0.25;4.25;0.0;0.0;-0.204102;0.021973;0.989746;-0.07;-0.7;1.19;272.0;-0.093694;-0.081529
0.65;0.25;0.0;1.0;0.25;2.0;1.0;0.5;1.0;3.75;3.25;1.25;1.0;0.75;10.25;0.75;0.75;-0.186523;0.021484;0.99707;-1.05;12.67;-0.35;310.0;0.206969;0.057935;0.25;2.25;2.25;2.75;4.25;3.75;0.25;2.0;0.25;0.25;0.0;0.0;0.5;4.5;0.0;0.0;-0.202637;0.024902;0.986816;-0.14;-1.33;1.26;272.0;-0.077145;-0.085006
0.66;0.25;0.0;0.25;0.25;0.75;0.25;0.25;0.5;4.0;3.25;1.25;1.0;0.75;10.5;0.75;0.75;-0.190918;0.023926;1.004395;-0.28;14.14;-0.56;271.0;0.264242;0.082488;0.25;2.75;2.75;2.5;4.5;4.25;0.25;2.0;0.25;0.25;0.0;0.0;0.25;4.5;0.0;0.0;-0.199707;0.016602;0.984863;-0.14;-2.03;1.4;287.0;-0.089014;-0.080534
0.67;0.25;0.0;0.25;0.25;0.25;0.25;0.25;0.25;4.0;3.25;1.25;1.0;0.75;10.75;0.75;0.75;-0.178223;0.024902;1.005859;-0.07;15.89;-1.05;263.0;0.278815;0.091318;0.25;2.25;2.75;3.0;4.5;4.75;0.25;2.0;0.25;0.25;0.0;0.0;0.25;4.5;0.25;0.0;-0.202148;0.020996;0.995605;0.07;-2.1;1.4;296.0;-0.083924;-0.085876
0.68;0.25;0.0;0.25;0.0;0.25;0.25;0.25;0.25;4.0;3.0;1.0;1.0;0.5;11.0;0.5;0.75;-0.178223;0.021973;1.010742;0.28;18.200001;-1.89;251.0;0.287387;0.105707;0.25;2.75;3.0;3.25;4.5;5.0;0.25;2.5;0.25;0.25;0.0;0.25;0.25;4.5;0.25;0.0;-0.209961;0.021973;0.98877;0.56;-2.17;1.68;322.0;-0.088916;-0.098298
0.69;0.0;0.0;0.25;0.0;0.25;0.25;0.0;0.25;4.0;3.0;0.75;0.75;0.5;11.0;0.75;0.75;-0.202148;0.028809;1.010254;0.35;22.190001;-2.31;242.0;0.302117;0.108526;0.75;3.25;3.0;3.75;5.0;5.5;0.25;3.0;0.5;0.25;0.0;0.25;0.25;4.5;0.0;0.0;-0.203125;0.022949;0.98291;1.26;-2.24;1.82;359.0;-0.102182;-0.101547
0.7;0.25;0.0;0.0;0.0;0.25;0.25;0.0;0.0;3.75;2.75;0.75;0.75;0.25;11.0;0.5;0.75;-0.170898;0.023438;1.008789;1.19;28.91;-3.08;226.0;0.308291;0.124333;0.25;3.0;2.75;3.75;5.0;5.5;0.5;3.0;0.5;0.25;0.0;0.0;0.25;4.25;0.25;0.0;-0.202148;0.022949;0.984375;1.75;-2.31;2.1;350.0;-0.093272;-0.102194
0.71;0.0;0.0;0.0;0.0;0.25;0.25;0.0;0.0;3.75;2.25;0.5;0.75;0.25;11.0;0.25;0.75;-0.216797;0.057129;1.010742;2.52;36.75;-3.64;211.0;0.319393;0.132213;0.25;3.0;2.75;3.75;5.5;6.0;0.25;3.5;0.5;0.5;0.0;0.25;0.25;4.25;0.25;0.25;-0.206543;0.023438;0.991211;1.96;-2.38;2.17;373.0;-0.088165;-0.113617
0.72;0.25;0.0;0.25;0.0;0.0;0.25;0.0;0.0;3.75;2.25;0.25;0.75;0.25;11.0;0.5;0.75;-0.223145;0.03125;1.043945;2.87;49.209999;-6.02;214.0;0.310179;0.13273;0.25;2.75;3.0;3.75;5.75;6.25;0.5;3.5;0.5;0.5;0.0;0.25;0.5;4.5;0.25;0.25;-0.204102;0.025879;0.993164;1.89;-2.73;2.03;389.0;-0.081862;-0.108146
0.73;0.25;0.0;0.0;0.0;0.0;0.0;0.0;0.0;3.5;2.25;0.25;0.75;0.25;10.75;0.5;0.75;-0.20166;0.054199;1.029297;0.21;59.220001;-7.21;202.0;0.325435;0.136331;0.25;3.25;3.0;3.75;5.75;6.25;0.5;3.75;0.75;0.5;0.25;0.25;0.5;4.5;0.5;0.0;-0.204102;0.025391;0.992188;1.82;-2.87;1.89;406.0;-0.078309;-0.107527
0.74;0.25;0.0;0.25;0.0;0.25;0.0;0.0;0.0;3.5;1.75;0.25;0.5;0.0;10.5;0.75;0.25;-0.248047;0.051758;1.052246;-2.8;61.670002;-8.4;195.0;0.315023;0.153304;0.25;3.25;3.0;3.75;5.75;6.25;0.5;4.0;0.75;0.5;0.25;0.25;0.75;4.5;0.25;0.25;-0.19873;0.027344;0.986328;1.61;-3.08;1.75;411.0;-0.07803;-0.113359
0.75;0.0;0.0;0.0;0.0;0.25;0.25;0.0;0.0;3.25;1.75;0.25;0.25;0.25;10.25;0.5;0.25;-0.233398;0.063477;1.050293;-7.7;64.540001;-10.78;183.0;0.326511;0.148309;0.25;3.0;3.0;4.25;6.5;7.0;0.5;4.25;0.75;0.75;0.25;0.25;0.75;4.5;0.0;0.0;-0.20459;0.021973;0.98877;1.75;-3.08;1.61;435.0;-0.08344;-0.115282
0.76;0.0;0.0;0.0;0.25;0.25;0.25;0.0;0.0;3.0;1.25;0.25;0.25;0.0;10.25;0.5;0.25;-0.250488;0.055664;1.067383;-13.16;66.360001;-12.74;174.0;0.322304;0.150295;0.5;3.25;3.0;4.25;6.5;7.5;0.5;4.25;0.75;0.5;0.5;0.25;0.75;4.75;0.25;0.25;-0.205078;0.020996;0.995117;1.96;-2.8;1.54;453.0;-0.081171;-0.116301
0.77;0.0;0.0;0.0;0.0;0.0;0.0;0.0;0.0;2.5;1.0;0.25;0.0;0.0;10.25;0.5;0.25;-0.250977;0.116699;0.998047;-14.42;65.239998;-16.309999;152.0;0.359208;0.17194;0.25;3.25;2.75;4.25;6.5;7.5;0.5;4.75;0.75;0.5;0.25;0.25;1.0;5.0;0.25;0.25;-0.200195;0.027344;0.995117;1.82;-2.45;1.4;457.0;-0.074813;-0.124377
0.78;0.0;0.0;0.0;0.0;0.25;0.0;0.0;0.0;1.5;1.0;0.25;0.25;0.25;9.75;0.5;0.25;-0.299805;0.123047;1.015137;-14.07;64.050003;-21.91;142.0;0.351325;0.138995;0.25;3.25;3.0;4.25;6.5;8.25;0.5;4.75;0.75;0.75;0.25;0.5;1.25;5.0;0.25;0.25;-0.203613;0.026855;0.994141;1.47;-2.03;1.33;477.0;-0.072686;-0.127365
0.79;0.0;0.0;0.0;0.0;0.25;0.0;0.0;0.0;1.0;1.0;0.25;0.25;0.0;9.5;0.25;0.0;-0.279785;0.094238;1.004883;-12.18;61.950001;-30.59;125.0;0.357625;0.152235;0.25;3.25;3.0;4.25;6.5;8.5;0.5;5.25;1.25;1.0;0.5;0.5;1.5;5.5;0.25;0.25;-0.206543;0.025391;0.996094;1.26;-1.75;1.12;508.0;-0.05854;-0.124525
0.8;0.0;0.0;0.0;0.0;0.25;0.0;0.0;0.0;0.5;0.75;0.25;0.25;0.0;9.0;0.25;0.25;-0.294434;0.135742;0.976562;-10.29;59.709999;-36.330002;112.0;0.364767;0.139481;0.5;3.25;3.0;4.25;6.5;9.0;0.5;5.0;1.5;0.75;0.5;0.5;1.75;5.75;0.25;0.5;-0.20166;0.028809;0.995117;0.98;-1.68;1.05;520.0;-0.056996;-0.121813
0.81;0.0;0.0;0.0;0.0;0.0;0.0;0.0;0.0;0.25;0.75;0.0;0.0;0.0;8.75;0.25;0.0;-0.371582;0.140625;0.997559;-4.9;57.400002;-42.349998;96.0;0.391892;0.16363;0.75;3.25;3.0;4.25;6.5;8.75;0.5;5.25;1.25;0.75;0.25;0.5;1.5;5.75;0.25;0.75;-0.205566;0.032227;0.999023;0.77;-1.4;0.91;516.0;-0.061558;-0.123632
0.82;0.0;0.0;0.0;0.0;0.0;0.0;0.0;0.0;0.5;0.75;0.0;0.0;0.0;8.5;0.5;0.0;-0.368652;0.200684;0.974609;-0.14;55.09;-49.700001;100.0;0.38702;0.160223;0.25;2.75;2.5;4.25;6.5;8.75;0.5;5.5;1.5;0.75;0.25;0.75;2.0;5.75;0.25;0.5;-0.206055;0.033691;0.992188;0.49;-1.05;0.7;513.0;-0.046852;-0.131226
0.83;0.0;0.0;0.0;0.0;0.0;0.0;0.0;0.0;0.25;0.75;0.0;0.0;0.0;8.75;0.25;0.25;-0.393555;0.161133;1.008789;2.8;53.549999;-58.170002;98.0;0.39139;0.156381;0.25;3.0;2.5;4.25;6.25;8.25;0.5;5.5;1.5;1.0;0.75;0.75;2.0;5.75;0.25;0.5;-0.205078;0.023438;0.997559;0.14;-0.7;0.49;516.0;-0.042377;-0.129637
0.84;0.0;0.0;0.0;0.0;0.0;0.25;0.0;0.0;0.25;0.5;0.25;0.25;0.25;8.5;0.0;0.25;-0.402832;0.161133;1.036133;8.05;51.59;-71.190002;101.0;0.363432;0.11745;0.25;3.0;2.75;4.25;6.25;7.75;0.5;5.25;1.5;1.0;0.75;0.75;1.5;5.75;0.5;0.25;-0.203125;0.028809;0.995117;-0.07;-0.49;0.49;505.0;-0.043281;-0.120564
0.85;0.0;0.0;0.0;0.0;0.0;0.25;0.0;0.0;0.25;0.5;0.25;0.25;0.25;8.0;0.0;0.0;-0.37793;0.146484;0.998535;13.16;50.68;-78.610001;95.0;0.361063;0.121244;0.25;3.0;2.5;4.25;6.25;8.5;0.5;5.25;1.25;1.0;0.75;1.0;1.5;5.75;0.25;0.25;-0.204102;0.031738;0.996582;-0.07;-0.56;0.28;508.0;-0.047091;-0.128496
0.86;0.0;0.0;0.0;0.0;0.0;0.0;0.0;0.0;0.0;0.5;0.0;0.25;0.0;7.25;0.25;0.0;-0.38623;0.108887;1.012207;15.96;49.420002;-84.629997;79.0;0.392953;0.142823;0.0;2.75;2.5;4.25;6.0;8.5;0.5;5.0;1.25;1.0;0.5;1.0;1.75;5.75;0.25;0.5;-0.207031;0.030762;0.987793;-0.21;-0.56;0.35;496.0;-0.042332;-0.130803
0.87;0.0;0.0;0.0;0.0;0.0;0.0;0.0;0.0;0.0;0.75;0.25;0.25;0.0;6.5;0.25;0.0;-0.350098;0.101562;0.98584;18.9;48.23;-89.25;77.0;0.379383;0.127225;0.25;2.75;2.5;4.25;6.0;8.5;0.5;5.25;1.5;1.0;0.5;1.0;2.0;5.75;0.5;0.75;-0.196777;0.034668;0.987793;-0.35;-0.63;0.14;513.0;-0.03735;-0.130549
0.88;0.0;0.0;0.0;0.0;0.0;0.0;0.0;0.0;0.25;0.5;0.25;0.0;0.0;6.25;0.25;0.0;-0.343262;0.009766;0.999512;20.65;47.670002;-91.279999;73.0;0.384514;0.152022;0.25;2.75;2.5;4.0;6.0;8.5;0.5;5.25;1.5;1.0;0.75;0.75;1.75;5.75;0.5;0.75;-0.197754;0.025879;0.995605;-0.28;-0.77;-0.0;508.0;-0.036742;-0.12744
0.89;0.0;0.0;0.0;0.0;0.0;0.0;0.0;0.0;0.0;0.25;0.25;0.0;0.0;6.0;0.25;0.0;-0.362793;-0.005859;1.01416;18.34;46.900002;-91.840004;64.0;0.396989;0.148176;0.25;2.25;2.5;4.25;6.25;8.5;0.5;5.25;1.5;1.25;1.0;0.75;1.75;5.75;1.0;0.75;-0.202148;0.028809;0.990723;-0.14;-0.77;0.14;520.0;-0.027161;-0.124931
0.9;0.0;0.0;0.0;0.0;0.0;0.0;0.0;0.0;0.25;0.25;0.0;0.0;0.0;5.25;0.0;0.0;-0.363281;0.015137;1.015625;11.62;44.939999;-91.419998;55.0;0.394106;0.178278;0.25;2.75;2.5;4.25;6.0;8.5;0.5;5.25;1.25;1.25;1.0;0.5;2.0;5.75;0.75;0.75;-0.204102;0.030762;0.993652;0.07;-0.77;0.21;515.0;-0.035202;-0.130013
0.91;0.0;0.0;0.0;0.0;0.0;0.0;0.0;0.0;0.0;0.0;0.0;0.0;0.0;4.75;0.25;0.0;-0.380859;-0.007324;1.060059;4.27;40.740002;-91.0;47.0;0.0;0.0;0.25;3.0;2.75;4.25;6.0;8.25;0.5;5.25;1.25;1.25;0.75;0.5;2.25;6.0;0.75;0.75;-0.203125;0.032227;0.994629;0.28;-0.98;0.28;520.0;-0.036242;-0.12829
0.92;0.0;0.0;0.0;0.0;0.0;0.0;0.0;0.0;0.0;0.0;0.0;0.0;0.0;3.75;0.25;0.0;-0.340332;-0.024414;0.974609;-11.27;36.330002;-89.949997;38.0;0.0;0.0;0.25;2.5;2.5;3.75;6.25;8.5;0.5;5.5;1.25;1.0;0.75;0.75;2.0;6.0;1.0;0.75;-0.201172;0.027344;0.992188;0.14;-1.26;0.35;516.0;-0.027882;-0.130153
0.93;0.0;0.0;0.0;0.0;0.0;0.0;0.0;0.0;0.25;0.0;0.0;0.0;0.0;2.25;0.25;0.0;-0.345703;0.004395;1.069336;-18.48;31.15;-87.919998;27.0;0.0;0.0;0.25;2.75;2.5;4.0;6.25;8.75;0.5;5.5;1.5;1.25;1.0;1.0;2.5;6.0;0.75;1.0;-0.202148;0.029785;0.989746;0.21;-1.47;0.21;540.0;-0.025452;-0.132387
0.94;0.0;0.0;0.0;0.0;0.0;0.0;0.0;0.0;0.25;0.0;0.0;0.0;0.0;1.0;0.0;0.0;-0.346191;-0.095215;1.228027;-40.670002;17.639999;-86.449997;13.0;0.0;0.0;0.25;2.75;2.5;3.75;6.25;9.0;0.5;5.5;1.5;1.25;1.0;1.0;2.0;6.0;1.0;0.75;-0.203125;0.032715;0.984863;0.07;-1.82;0.14;537.0;-0.025152;-0.128993
0.95;0.0;0.0;0.0;0.0;0.0;0.0;0.0;0.0;0.0;0.0;0.0;0.0;0.0;1.0;0.25;0.0;-0.311523;-0.143066;1.052734;-74.760002;4.34;-83.019997;12.0;0.0;0.0;0.25;2.75;2.75;4.0;6.25;9.0;0.5;5.5;1.5;1.25;1.0;1.0;2.25;6.25;0.75;0.75;-0.194824;0.028809;0.997559;0.14;-2.03;0.07;545.0;-0.027512;-0.128677
0.96;0.0;0.0;0.0;0.0;0.0;0.0;0.0;0.0;0.0;0.25;0.0;0.0;0.0;1.0;0.25;0.0;-0.333984;-0.015137;0.941406;-103.040001;-9.31;-72.730003;15.0;0.0;0.0;0.5;2.75;3.0;4.0;6.25;9.0;0.5;5.5;1.25;1.25;0.75;1.0;2.5;6.25;0.5;1.0;-0.20459;0.028809;0.995117;0.21;-1.82;0.14;545.0;-0.034368;-0.13112
0.97;0.0;0.0;0.0;0.0;0.0;0.0;0.0;0.0;0.0;0.25;0.0;0.0;0.0;0.5;0.25;0.0;-0.305664;0.256836;0.899414;-107.029999;-12.6;-67.199997;10.0;0.0;0.0;0.5;2.75;3.0;4.0;6.5;9.0;0.5;5.5;1.25;1.0;1.0;1.0;2.5;6.25;0.75;1.0;-0.204102;0.030762;1.002441;0.28;-1.68;0.21;551.0;-0.03263;-0.130744
0.98;0.0;0.0;0.0;0.0;0.0;0.0;0.0;0.0;0.0;0.0;0.0;0.0;0.0;0.25;0.0;0.0;-0.232422;0.685059;0.749512;-84.699997;-15.33;-16.450001;2.0;0.0;0.0;0.25;2.75;3.0;4.25;6.5;9.0;0.5;5.75;1.0;1.25;1.25;1.25;2.5;6.75;1.0;1.0;-0.200195;0.030762;0.995605;0.35;-1.4;0.35;568.0;-0.024047;-0.13392
0.99;0.0;0.0;0.0;0.0;0.0;0.0;0.0;0.0;0.0;0.0;0.0;0.0;0.0;0.25;0.0;0.0;-0.203125;0.748535;0.635254;-60.970001;-13.440001;26.110001;2.0;0.0;0.0;0.25;2.5;3.0;4.25;6.25;9.0;0.5;5.75;1.25;1.25;1.0;1.25;2.25;6.75;0.75;1.0;-0.20459;0.032715;0.991699;0.49;-1.12;0.49;558.0;-0.024249;-0.131182
1.0;0.0;0.0;0.0;0.0;0.0;0.0;0.0;0.0;0.0;0.0;0.0;0.0;0.0;0.25;0.0;0.0;-0.166016;0.665527;0.744141;-36.889999;-11.48;65.870003;2.0;0.0;0.0;0.25;3.0;2.75;4.25;6.25;9.0;0.5;5.75;1.0;1.0;1.0;1.25;2.5;6.75;1.0;1.0;-0.20166;0.028809;0.996094;0.77;-0.7;0.42;559.0;-0.026581;-0.137431
1.01;0.0;0.0;0.0;0.0;0.0;0.0;0.0;0.0;0.0;0.0;0.0;0.0;0.0;0.25;0.0;0.0;-0.125977;0.49707;0.972168;-11.69;-18.76;94.360001;2.0;0.0;0.0;0.25;3.0;2.5;4.25;6.0;9.0;0.5;6.25;1.0;1.0;1.0;1.25;2.75;6.75;1.0;1.0;-0.207031;0.02832;0.993652;0.91;-0.49;0.56;563.0;-0.023731;-0.144832
1.02;0.0;0.0;0.0;0.0;0.0;0.0;0.0;0.0;0.0;0.0;0.0;0.0;0.0;0.25;0.0;0.0;-0.105957;0.347656;0.994629;4.76;-34.509998;108.5;2.0;0.0;0.0;0.5;3.0;2.5;4.25;6.0;9.0;0.5;6.25;1.25;1.25;1.0;1.25;3.0;6.75;1.0;1.25;-0.20166;0.03125;0.994141;1.05;-0.42;0.49;576.0;-0.020777;-0.141685
1.03;0.0;0.0;0.0;0.0;0.0;0.0;0.0;0.0;0.0;0.0;0.0;0.0;0.0;0.25;0.0;0.0;-0.107422;0.198242;0.870605;10.01;-48.23;113.330002;2.0;0.0;0.0;0.25;3.0;2.5;4.25;6.0;9.0;0.5;6.25;1.25;1.25;1.0;1.25;3.0;6.75;1.0;1.5;-0.200684;0.028809;0.993164;1.19;-0.35;0.42;575.0;-0.017915;-0.143359
1.04;0.0;0.0;0.0;0.0;0.0;0.0;0.0;0.0;0.0;0.0;0.0;0.0;0.0;0.25;0.0;0.0;-0.17627;0.218262;0.658691;21.210001;-54.040001;111.160004;2.0;0.0;0.0;0.25;2.0;2.5;4.25;6.0;9.25;0.5;6.25;1.25;1.0;1.25;1.25;3.0;6.75;1.0;1.25;-0.196289;0.033203;0.995117;1.26;-0.42;0.49;567.0;-0.01258;-0.14409
1.05;0.0;0.0;0.0;0.0;0.0;0.0;0.0;0.0;0.0;0.0;0.0;0.0;0.0;0.0;0.0;0.0;-0.183594;0.285156;0.70459;42.700001;-51.450001;107.449997;0.0;0.0;0.0;0.25;2.5;2.5;4.0;5.75;9.25;0.5;6.25;1.0;1.0;1.25;1.5;3.0;6.75;1.0;1.5;-0.201172;0.032715;0.992676;1.4;-0.42;0.49;566.0;-0.013725;-0.148801
1.06;0.0;0.0;0.0;0.0;0.0;0.0;0.0;0.0;0.0;0.0;0.0;0.0;0.0;0.25;0.0;0.0;-0.219727;0.328613;0.711426;65.029999;-49.420002;106.120003;2.0;0.0;0.0;0.25;2.5;2.5;4.0;5.75;9.25;0.25;6.5;1.0;1.25;1.25;1.75;3.5;6.75;1.0;1.5;-0.202148;0.033203;0.986328;1.68;-0.56;0.63;577.0;-0.010529;-0.155586
1.07;0.0;0.0;0.0;0.0;0.0;0.0;0.0;0.0;0.0;0.0;0.0;0.0;0.0;0.25;0.0;0.0;-0.272949;0.226074;0.535645;71.889999;-45.779999;111.020004;2.0;0.0;0.0;0.5;2.5;2.5;4.5;5.75;9.5;0.25;6.75;0.75;1.25;1.25;1.75;3.75;6.75;1.0;1.75;-0.207031;0.032227;0.998535;1.82;-0.63;0.63;593.0;-0.015894;-0.161475
1.08;0.0;0.0;0.0;0.0;0.0;0.0;0.0;0.0;0.0;0.0;0.0;0.0;0.0;0.25;0.0;0.0;-0.257812;-0.049316;0.516113;87.360001;-33.529999;112.0;2.0;0.0;0.0;0.25;2.25;2.5;4.25;5.25;9.5;0.25;6.75;1.0;1.25;1.25;2.25;4.0;6.75;1.0;1.5;-0.202148;0.033203;0.994141;1.96;-0.63;0.63;589.0;-0.006182;-0.16418
1.09;0.0;0.0;0.0;0.0;0.0;0.0;0.0;0.0;0.0;0.0;0.0;0.0;0.0;0.25;0.0;0.0;-0.359375;-0.111328;0.714355;103.389999;-19.879999;104.019997;2.0;0.0;0.0;0.25;2.5;2.5;4.25;5.0;9.75;0.25;6.75;1.0;1.0;1.25;2.25;4.0;6.75;1.0;1.5;-0.202637;0.037109;0.991211;1.89;-0.7;0.63;589.0;-0.009262;-0.166988
1.1;0.0;0.0;0.0;0.0;0.0;0.0;0.0;0.0;0.0;0.0;0.0;0.0;0.0;0.0;0.0;0.0;-0.36084;-0.291504;0.898926;96.669998;-10.64;93.239998;0.0;0.0;0.0;0.25;2.75;2.0;4.25;5.25;9.75;0.25;6.75;1.0;1.25;1.0;2.25;4.0;6.75;1.0;1.75;-0.200684;0.032715;0.991699;2.17;-0.84;0.84;590.0;-0.007951;-0.167977
1.11;0.0;0.0;0.0;0.0;0.0;0.0;0.0;0.0;0.0;0.0;0.0;0.0;0.0;0.0;0.0;0.0;-0.311035;-0.451172;1.04248;60.34;-10.08;80.709999;0.0;0.0;0.0;0.25;2.5;2.25;4.25;4.75;9.5;0.25;6.75;0.75;1.25;1.25;1.75;4.25;6.75;1.25;1.75;-0.203125;0.035156;0.995117;2.31;-0.84;0.91;580.0;-0.005423;-0.170443
1.12;0.0;0.0;0.0;0.0;0.0;0.0;0.0;0.0;0.0;0.0;0.0;0.0;0.0;0.25;0.0;0.0;-0.366211;-0.46875;1.018555;28.35;-13.51;70.209999;2.0;0.0;0.0;0.5;2.25;2.0;3.75;4.75;9.5;0.25;7.0;0.75;1.25;1.25;2.0;4.25;6.25;1.5;1.75;-0.204102;0.041504;0.99707;1.75;-0.91;0.91;576.0;-0.001562;-0.174487
1.13;0.0;0.0;0.0;0.0;0.0;0.0;0.0;0.0;0.0;0.0;0.0;0.0;0.0;0.25;0.25;0.0;-0.490723;-0.507812;1.338867;-11.76;-18.549999;44.029999;5.0;0.0;0.0;0.5;2.25;2.0;3.75;5.0;10.0;0.25;7.25;0.75;1.25;1.5;2.25;4.5;6.75;1.25;1.75;-0.201172;0.041016;1.001465;1.26;-1.05;0.56;599.0;0.000268;-0.174936
1.14;0.0;0.0;0.0;0.0;0.0;0.0;0.0;0.0;0.0;0.0;0.0;0.0;0.0;0.5;0.0;0.0;-0.450195;-0.530273;1.224121;3.71;-49.279999;20.09;5.0;0.0;0.0;0.5;2.5;2.0;4.0;5.0;9.75;0.25;7.5;0.75;1.25;1.5;2.5;4.5;6.75;1.0;1.75;-0.209473;0.04248;0.990723;0.77;-1.33;0.28;606.0;-0.003167;-0.177166
1.15;0.0;0.0;0.0;0.0;0.0;0.0;0.0;0.0;0.0;0.0;0.0;0.0;0.0;0.75;0.0;0.0;-0.672852;-0.660645;0.919922;-11.06;-55.369999;-3.71;7.0;0.0;0.0;0.75;2.75;2.25;4.0;5.25;10.0;0.25;7.25;0.75;1.0;1.5;2.25;4.5;6.75;1.25;1.75;-0.20459;0.032715;0.999023;0.42;-1.33;0.35;613.0;-0.009474;-0.172437
1.16;0.0;0.0;0.0;0.0;0.0;0.0;0.0;0.0;0.0;0.0;0.0;0.0;0.0;1.0;0.0;0.0;-0.756348;-0.480469;0.905273;-28.42;-35.0;-25.129999;9.0;0.0;0.0;0.5;2.25;2.25;4.0;5.25;9.75;0.25;7.5;0.75;1.25;1.75;2.5;4.5;6.25;1.5;1.5;-0.202637;0.035645;0.991699;0.21;-1.05;0.35;612.0;-0.002485;-0.175901
1.17;0.0;0.0;0.0;0.0;0.0;0.0;0.0;0.0;0.0;0.0;0.0;0.0;0.0;1.25;0.0;0.0;-0.854492;-0.444824;1.103027;-27.93;-26.530001;-36.82;12.0;0.0;0.0;0.5;2.75;2.25;4.0;5.25;10.0;0.25;7.25;0.75;1.25;1.75;2.5;4.5;6.25;1.5;1.5;-0.200195;0.04248;0.993164;0.07;-0.84;0.35;616.0;-0.006531;-0.17483
1.18;0.0;0.0;0.0;0.0;0.0;0.0;0.0;0.0;0.0;0.0;0.0;0.0;0.0;2.0;0.0;0.0;-0.895996;-0.471191;1.039062;-20.370001;-22.120001;-48.790001;19.0;0.0;0.0;0.75;2.25;2.0;4.0;5.25;9.75;0.25;7.5;0.75;1.0;1.25;2.5;4.75;6.25;1.5;1.75;-0.202637;0.03418;0.98584;-0.0;-0.56;0.28;607.0;-0.004768;-0.179038
1.19;0.0;0.0;0.0;0.0;0.0;0.0;0.0;0.0;0.0;0.0;0.0;0.0;0.0;2.75;0.0;0.0;-0.890625;-0.5;0.974609;-17.99;-12.53;-58.66;26.0;0.0;0.0;0.5;2.5;2.25;4.75;5.0;9.75;0.25;7.5;0.75;1.25;1.5;2.5;4.75;6.25;1.5;1.75;-0.20166;0.033691;0.995605;-0.0;-0.56;0.35;622.0;-0.007232;-0.179401
1.2;0.0;0.0;0.0;0.0;0.0;0.0;0.0;0.0;0.0;0.0;0.0;0.0;0.0;3.25;0.0;0.0;-0.745117;-0.412109;1.050293;-16.870001;-2.45;-62.580002;30.0;0.0;0.0;1.0;2.25;2.25;4.25;5.25;10.0;0.25;7.25;0.75;1.25;1.75;2.75;4.75;6.75;1.25;1.75;-0.199219;0.035645;0.99707;-0.07;-0.42;0.35;628.0;-0.004436;-0.172355
1.21;0.0;0.0;0.0;0.0;0.0;0.0;0.0;0.0;0.0;0.0;0.0;0.0;0.0;3.25;0.0;0.0;-0.363281;-0.141602;1.124512;-12.81;1.26;-60.200001;30.0;0.0;0.0;0.75;2.5;2.25;3.75;5.25;10.0;0.25;7.25;0.75;1.5;1.75;2.75;4.75;7.5;1.0;1.75;-0.200195;0.041016;0.996582;-0.35;-0.14;0.14;629.0;0.002256;-0.16856
1.22;0.0;0.0;0.0;0.0;0.0;0.0;0.0;0.0;0.0;0.25;0.0;0.0;0.0;3.5;0.0;0.0;-0.26416;-0.100586;0.980469;0.07;1.68;-52.57;35.0;0.0;0.0;0.75;2.5;2.0;4.0;5.0;9.5;0.25;7.25;0.75;1.25;1.25;2.75;4.75;7.5;1.5;1.75;-0.197266;0.036133;0.992188;-0.77;-0.28;0.07;617.0;0.004878;-0.170978
1.23;0.0;0.0;0.0;0.0;0.0;0.0;0.0;0.0;0.0;0.0;0.0;0.0;0.0;3.5;0.0;0.0;-0.174316;-0.158203;0.973145;5.46;6.79;-44.450001;32.0;0.0;0.0;1.0;2.5;2.0;3.75;4.75;9.5;0.25;7.25;0.75;1.25;1.25;2.75;4.5;7.75;1.5;1.75;-0.197754;0.035645;0.994629;-0.91;-0.21;-0.0;614.0;0.005972;-0.168126
1.24;0.0;0.0;0.0;0.0;0.0;0.0;0.0;0.0;0.0;0.0;0.0;0.0;0.0;3.5;0.0;0.0;-0.087402;-0.246094;1.103027;-2.66;12.32;-29.4;32.0;0.0;0.0;0.75;2.25;2.0;3.75;5.0;9.5;0.25;7.25;0.75;1.25;1.5;2.75;4.5;7.5;1.75;1.75;-0.209473;0.044434;0.988281;-1.05;-0.21;0.07;615.0;0.010309;-0.168951
1.25;0.0;0.0;0.0;0.0;0.0;0.0;0.0;0.0;0.0;0.0;0.0;0.0;0.0;3.5;0.0;0.0;-0.20459;-0.173828;1.054688;-12.04;13.440001;-20.23;32.0;0.0;0.0;0.75;2.25;2.25;3.75;5.0;9.75;0.25;7.0;0.75;1.25;2.0;2.5;4.75;7.5;1.75;1.75;-0.19873;0.036133;0.991699;-1.12;-0.42;-0.0;622.0;0.01;-0.166725
1.26;0.0;0.0;0.0;0.0;0.0;0.0;0.0;0.0;0.0;0.0;0.0;0.0;0.0;3.25;0.0;0.0;-0.260742;-0.141602;1.026855;-18.200001;17.57;-12.11;30.0;0.0;0.0;0.75;2.25;2.0;3.75;5.0;9.75;0.25;7.25;0.75;1.25;1.25;2.5;4.75;7.75;1.5;1.75;-0.19873;0.040039;0.986816;-0.91;-0.49;0.07;614.0;0.007865;-0.169327
1.27;0.0;0.0;0.0;0.0;0.0;0.0;0.0;0.0;0.0;0.0;0.0;0.0;0.0;3.25;0.0;0.0;-0.297363;-0.121582;1.024414;-16.450001;21.139999;-5.25;30.0;0.0;0.0;1.0;2.5;2.0;4.0;5.0;9.75;0.25;7.25;0.75;1.25;1.5;2.5;4.75;7.75;1.75;1.75;-0.195312;0.033691;0.995605;-0.77;-0.7;0.07;628.0;0.005718;-0.167686
1.28;0.0;0.0;0.0;0.0;0.0;0.0;0.0;0.0;0.0;0.0;0.0;0.0;0.0;3.25;0.0;0.0;-0.303711;-0.102539;1.03125;-12.81;23.24;0.42;30.0;0.0;0.0;0.75;2.5;2.0;3.75;4.75;9.75;0.25;7.0;1.0;1.25;1.25;2.5;4.5;7.75;1.5;2.0;-0.20459;0.036621;0.986328;-0.63;-0.56;0.07;612.0;0.008588;-0.16556
1.29;0.0;0.0;0.0;0.0;0.0;0.0;0.0;0.0;0.25;0.0;0.0;0.0;0.0;3.25;0.0;0.0;-0.291992;-0.097656;1.038086;-10.64;24.219999;5.32;34.0;0.0;0.0;0.75;1.75;1.75;3.25;4.75;9.5;0.25;7.0;1.0;1.25;1.5;2.75;4.25;8.25;1.5;2.0;-0.20166;0.038086;0.992188;-0.7;-0.35;-0.07;600.0;0.02358;-0.162292
1.3;0.0;0.0;0.0;0.0;0.0;0.0;0.0;0.0;0.0;0.0;0.0;0.0;0.0;3.25;0.0;0.0;-0.288086;-0.075195;1.067871;-12.46;24.43;11.27;30.0;0.0;0.0;0.75;2.25;2.0;3.5;5.0;9.5;0.25;7.0;1.0;1.25;1.75;2.75;4.5;8.25;1.75;1.75;-0.208008;0.041992;0.992676;-0.77;-0.42;0.07;621.0;0.018823;-0.160502
1.31;0.0;0.0;0.0;0.0;0.0;0.0;0.0;0.0;0.0;0.0;0.0;0.0;0.0;2.5;0.0;0.0;-0.288574;-0.081055;1.041992;-16.66;23.030001;14.35;23.0;0.0;0.0;1.0;2.25;2.0;3.75;5.25;9.5;0.25;7.0;1.0;1.25;1.75;2.75;4.5;8.25;1.75;1.75;-0.200684;0.037109;0.998047;-0.91;-0.7;-0.07;630.0;0.014783;-0.158542
1.32;0.0;0.0;0.0;0.0;0.0;0.0;0.0;0.0;0.0;0.0;0.0;0.0;0.0;1.75;0.0;0.0;-0.289551;-0.056641;1.025879;-22.540001;20.860001;17.01;16.0;0.0;0.0;0.75;2.25;2.0;3.75;5.25;9.5;0.25;7.0;1.0;1.25;2.0;2.75;4.75;8.5;1.75;2.0;-0.205078;0.039062;0.995117;-0.91;-0.77;-0.0;636.0;0.020422;-0.159796
1.33;0.0;0.0;0.0;0.0;0.0;0.0;0.0;0.0;0.0;0.0;0.0;0.0;0.0;0.75;0.0;0.0;-0.303223;-0.022949;1.083496;-23.66;16.1;19.530001;7.0;0.0;0.0;0.75;1.75;2.25;3.75;5.25;9.5;0.25;7.0;1.0;1.5;2.0;3.0;4.75;8.75;2.0;1.75;-0.200684;0.038086;0.993164;-0.91;-0.77;-0.21;643.0;0.026662;-0.156267
1.34;0.0;0.0;0.0;0.0;0.0;0.0;0.0;0.0;0.0;0.0;0.0;0.0;0.0;0.5;0.0;0.0;-0.304688;-0.037109;1.084473;-29.610001;8.26;21.280001;5.0;0.0;0.0;0.75;1.75;2.25;3.0;5.0;9.5;0.25;7.0;1.0;1.5;2.0;3.0;4.75;9.0;1.75;2.0;-0.200684;0.038086;0.987793;-0.7;-0.84;-0.21;632.0;0.032321;-0.155801
1.35;0.0;0.0;0.0;0.0;0.0;0.0;0.0;0.0;0.0;0.0;0.0;0.0;0.0;0.25;0.0;0.0;-0.286133;-0.046875;0.996582;-39.970001;0.7;24.08;2.0;0.0;0.0;0.75;1.75;2.0;3.0;5.0;9.5;0.25;7.0;1.25;1.75;1.75;3.0;5.0;9.5;2.0;2.0;-0.203125;0.041016;0.991699;-0.49;-0.77;-0.21;643.0;0.039967;-0.152161
1.36;0.0;0.0;0.0;0.0;0.0;0.0;0.0;0.0;0.0;0.0;0.0;0.0;0.0;0.25;0.0;0.0;-0.228516;0.134277;0.894043;-44.73;-4.62;30.799999;2.0;0.0;0.0;0.75;1.75;2.0;3.25;4.75;9.75;0.25;7.25;1.0;1.75;1.75;3.0;5.0;9.75;2.0;2.0;-0.20166;0.04248;0.991211;-0.42;-0.63;-0.14;649.0;0.038142;-0.156749
1.37;0.0;0.0;0.0;0.0;0.0;0.0;0.0;0.0;0.0;0.0;0.0;0.0;0.0;0.25;0.0;0.0;-0.248047;0.237793;0.816406;-32.549999;-6.51;35.700001;2.0;0.0;0.0;1.0;1.75;2.0;3.75;5.25;9.75;0.25;7.0;1.0;1.25;1.5;3.0;5.0;9.5;2.0;2.0;-0.203613;0.041016;0.993652;-0.63;-0.7;-0.14;648.0;0.028072;-0.156004
1.38;0.0;0.0;0.0;0.0;0.0;0.0;0.0;0.0;0.0;0.0;0.0;0.0;0.0;0.25;0.0;0.0;-0.239746;0.269043;0.751953;-16.450001;-5.46;40.810001;2.0;0.0;0.0;1.0;2.0;2.0;3.25;5.25;9.75;0.0;7.25;1.0;1.75;1.75;3.5;4.75;9.25;2.0;1.75;-0.20752;0.038574;0.995605;-0.84;-0.63;-0.07;653.0;0.030339;-0.158293
1.39;0.0;0.0;0.0;0.0;0.0;0.0;0.0;0.0;0.0;0.0;0.0;0.0;0.0;0.25;0.0;0.0;-0.255371;0.228027;0.739258;-0.21;-1.47;45.990002;2.0;0.0;0.0;1.0;2.0;2.0;3.0;5.5;9.75;0.0;7.25;1.5;2.0;1.75;3.0;5.0;9.25;2.25;2.0;-0.199707;0.040039;0.994629;-0.91;-0.56;-0.21;664.0;0.035723;-0.151293
1.4;0.0;0.0;0.0;0.0;0.0;0.0;0.0;0.0;0.0;0.0;0.0;0.0;0.0;0.0;0.0;0.0;-0.221191;0.199219;0.88623;16.940001;-0.35;48.16;0.0;0.0;0.0;1.0;2.0;2.0;3.25;5.5;9.75;0.25;7.25;1.5;1.75;1.75;3.25;4.75;8.5;2.25;2.25;-0.200195;0.019043;0.991699;-1.26;-0.56;-0.28;663.0;0.030699;-0.153441
1.41;0.0;0.0;0.0;0.0;0.0;0.0;0.0;0.0;0.0;0.0;0.0;0.0;0.0;0.0;0.0;0.0;-0.226562;0.15918;1.014648;30.309999;-6.79;44.66;0.0;0.0;0.0;1.0;1.75;2.0;3.25;5.5;9.75;0.25;7.25;1.0;1.75;1.75;3.0;4.75;9.0;1.75;2.5;-0.209961;0.032227;0.994629;-1.19;-0.49;-0.14;651.0;0.029321;-0.156093
1.42;0.0;0.0;0.0;0.0;0.0;0.0;0.0;0.0;0.0;0.0;0.0;0.0;0.0;0.25;0.0;0.0;-0.279297;0.002441;0.971191;30.030001;-14.21;37.73;2.0;0.0;0.0;0.75;1.75;2.25;3.0;5.5;9.75;0.25;7.25;1.0;1.75;1.75;3.0;4.75;9.0;2.0;2.0;-0.205566;0.039551;0.996094;-1.19;-0.49;-0.14;648.0;0.031449;-0.154732
1.43;0.0;0.0;0.0;0.0;0.0;0.0;0.0;0.0;0.0;0.0;0.0;0.0;0.0;0.25;0.0;0.0;-0.319824;-0.068848;0.937988;17.85;-21.98;23.030001;2.0;0.0;0.0;0.75;1.75;2.0;2.5;5.5;9.75;0.25;7.25;1.0;2.0;2.0;3.0;5.25;8.75;2.25;1.75;-0.20166;0.040039;0.999023;-1.05;-0.42;-0.0;649.0;0.038119;-0.156837
1.44;0.0;0.0;0.0;0.0;0.0;0.0;0.0;0.0;0.0;0.0;0.0;0.0;0.0;0.25;0.0;0.0;-0.36377;-0.03418;0.896484;10.85;-25.83;11.06;2.0;0.0;0.0;1.0;2.0;2.0;2.75;5.25;9.75;0.25;6.75;1.25;1.75;2.0;3.0;5.25;9.0;2.0;1.75;-0.205078;0.037598;0.990723;-1.05;-0.42;0.21;646.0;0.034333;-0.151723
1.45;0.0;0.0;0.0;0.0;0.0;0.0;0.0;0.0;0.0;0.0;0.0;0.0;0.0;0.25;0.0;0.0;-0.393066;0.028809;0.880859;11.13;-27.440001;-0.91;2.0;0.0;0.0;1.0;2.0;2.0;2.75;5.5;9.5;0.25;7.0;1.25;1.5;2.0;3.0;4.75;9.0;2.0;2.25;-0.203125;0.040039;0.985352;-1.05;-0.49;0.21;646.0;0.033749;-0.151152
1.46;0.0;0.0;0.0;0.0;0.0;0.0;0.0;0.0;0.0;0.0;0.0;0.0;0.0;0.0;0.0;0.0;-0.428223;0.100586;0.883301;15.190001;-28.210001;-11.55;0.0;0.0;0.0;0.75;2.0;2.0;3.5;5.5;9.5;0.25;6.75;1.25;1.5;2.0;3.0;4.75;9.0;1.75;2.0;-0.198242;0.041504;0.995117;-1.12;-0.63;0.21;643.0;0.029058;-0.151703
1.47;0.0;0.0;0.0;0.0;0.0;0.0;0.0;0.0;0.0;0.0;0.0;0.0;0.0;0.25;0.0;0.0;-0.464844;0.137207;0.864258;17.85;-28.280001;-18.969999;2.0;0.0;0.0;0.75;2.0;2.0;3.25;5.5;9.5;0.25;7.0;1.25;1.5;2.0;3.0;4.75;9.0;1.75;1.75;-0.206055;0.03418;0.992676;-1.05;-0.63;0.28;643.0;0.029505;-0.152544
1.48;0.0;0.0;0.0;0.0;0.0;0.0;0.0;0.0;0.0;0.0;0.0;0.0;0.0;0.0;0.0;0.0;-0.527832;0.17627;0.788574;17.92;-23.59;-25.129999;0.0;0.0;0.0;0.75;1.75;2.0;3.0;5.5;9.5;0.25;7.0;1.25;1.5;2.0;2.75;4.75;9.0;2.0;1.75;-0.203613;0.041992;0.992676;-1.19;-0.7;0.21;637.0;0.033655;-0.151189
1.49;0.0;0.0;0.0;0.0;0.0;0.0;0.0;0.0;0.0;0.0;0.0;0.0;0.0;0.0;0.0;0.0;-0.543457;0.203125;0.801758;19.6;-18.48;-27.440001;0.0;0.0;0.0;0.75;1.5;2.0;2.75;5.25;9.5;0.25;6.75;1.5;1.75;1.75;3.0;4.75;9.0;2.25;1.75;-0.208008;0.038574;0.994141;-0.98;-0.77;0.35;634.0;0.041816;-0.147343
1.5;0.0;0.0;0.0;0.0;0.0;0.0;0.0;0.0;0.0;0.0;0.0;0.0;0.0;0.0;0.0;0.0;-0.528809;0.206543;0.813477;23.799999;-14.0;-29.120001;0.0;0.0;0.0;0.75;1.5;2.0;2.75;5.25;9.5;0.25;6.75;1.25;1.5;2.0;3.0;4.75;9.0;2.0;2.5;-0.206055;0.036133;0.996094;-0.91;-0.91;0.56;632.0;0.041118;-0.151999
1.51;0.0;0.0;0.0;0.0;0.0;0.0;0.0;0.0;0.0;0.0;0.0;0.0;0.0;0.0;0.0;0.0;-0.509277;0.183105;0.811523;28.42;-10.08;-30.17;0.0;0.0;0.0;0.25;1.75;2.0;3.0;5.5;9.25;0.25;6.75;1.0;1.5;1.5;3.0;4.75;8.75;2.25;2.25;-0.209473;0.039062;0.998535;-0.77;-0.91;0.63;622.0;0.038447;-0.156483
1.52;0.0;0.0;0.0;0.0;0.0;0.0;0.0;0.0;0.0;0.0;0.0;0.0;0.0;0.0;0.0;0.0;-0.48291;0.161621;0.851074;32.900002;-6.51;-30.940001;0.0;0.0;0.0;0.25;2.0;2.25;3.0;5.5;9.25;0.25;7.0;1.5;1.75;1.75;3.0;4.75;9.0;2.25;2.0;-0.204102;0.037598;0.992676;-0.91;-1.12;0.63;645.0;0.039652;-0.149388
1.53;0.0;0.0;0.0;0.0;0.0;0.0;0.0;0.0;0.0;0.0;0.0;0.0;0.0;0.0;0.0;0.0;-0.439453;0.134766;0.890625;37.240002;-4.97;-32.619999;0.0;0.0;0.0;0.25;1.75;2.0;2.75;5.5;9.5;0.25;7.0;1.25;1.75;2.0;2.75;4.5;8.5;2.25;2.25;-0.20166;0.037598;0.990234;-0.84;-1.26;0.63;630.0;0.039969;-0.153912
1.54;0.0;0.0;0.0;0.0;0.0;0.0;0.0;0.0;0.0;0.0;0.0;0.0;0.0;0.0;0.0;0.0;-0.388184;0.091309;0.890137;41.299999;-5.39;-35.91;0.0;0.0;0.0;0.25;1.75;2.0;2.75;5.5;9.5;0.25;6.75;1.25;1.5;1.75;3.0;4.5;9.5;2.25;1.75;-0.206055;0.038086;0.994141;-0.84;-1.54;0.63;630.0;0.043326;-0.148503
1.55;0.0;0.0;0.0;0.0;0.0;0.0;0.0;0.0;0.0;0.0;0.0;0.0;0.0;0.0;0.0;0.0;-0.352051;0.033691;0.868164;45.43;-5.6;-40.670002;0.0;0.0;0.0;0.25;1.75;2.0;2.75;5.75;9.5;0.25;6.75;1.0;1.75;1.75;3.0;4.5;9.5;2.0;1.75;-0.205078;0.036133;0.991211;-0.77;-1.75;0.63;629.0;0.040542;-0.149249
1.56;0.0;0.0;0.0;0.0;0.0;0.0;0.0;0.0;0.0;0.0;0.0;0.0;0.0;0.0;0.0;0.0;-0.280273;-0.002441;0.848145;49.0;-4.83;-47.459999;0.0;0.0;0.0;0.5;2.0;2.0;3.0;5.75;9.75;0.25;7.0;1.0;1.75;2.25;3.0;4.5;9.5;2.25;1.75;-0.206055;0.040527;0.995117;-0.77;-1.75;0.7;653.0;0.037372;-0.150067
1.57;0.0;0.0;0.0;0.0;0.0;0.0;0.0;0.0;0.0;0.0;0.0;0.0;0.0;0.25;0.0;0.0;-0.237305;0.022461;0.831055;49.700001;-3.36;-49.0;2.0;0.0;0.0;0.75;2.0;2.25;2.75;6.0;9.5;0.25;7.0;1.25;1.5;2.0;3.0;4.25;9.5;2.0;1.75;-0.203613;0.036621;0.994629;-0.77;-1.68;0.63;649.0;0.033014;-0.143843
1.58;0.0;0.0;0.0;0.0;0.0;0.0;0.0;0.0;0.0;0.0;0.0;0.0;0.0;0.0;0.0;0.0;-0.206543;0.064941;0.821777;49.91;-1.05;-47.740002;0.0;0.0;0.0;1.0;2.0;2.25;3.25;6.25;9.5;0.25;7.0;1.0;1.25;1.75;3.0;4.75;9.25;2.0;1.75;-0.208008;0.038574;0.991699;-0.91;-1.26;0.77;654.0;0.024127;-0.149296
1.59;0.0;0.0;0.0;0.0;0.0;0.0;0.0;0.0;0.0;0.0;0.0;0.0;0.0;0.0;0.0;0.0;-0.185547;0.095215;0.770508;51.170002;2.31;-44.099998;0.0;0.0;0.0;0.75;2.25;2.25;3.5;6.25;9.5;0.25;7.25;1.0;1.25;1.5;3.0;4.75;9.5;2.0;2.25;-0.208008;0.039062;0.995605;-1.05;-1.19;0.63;663.0;0.024627;-0.152059
1.6;0.0;0.0;0.0;0.0;0.0;0.0;0.0;0.0;0.0;0.0;0.0;0.0;0.0;0.25;0.0;0.0;0.105957;-0.291504;1.693848;6.3;-13.86;-55.510002;2.0;0.0;0.0;0.75;2.0;2.25;3.0;6.0;9.75;0.25;7.0;1.25;1.5;1.5;2.75;4.75;9.5;1.75;1.75;-0.206543;0.039062;0.992676;-1.19;-1.05;0.63;648.0;0.027535;-0.146966
1.61;0.0;0.0;0.0;0.0;0.0;0.0;0.0;0.0;0.0;0.0;0.0;0.0;0.0;0.75;0.0;0.0;0.07959;-0.380371;1.094727;27.790001;-37.799999;-63.0;7.0;0.0;0.0;0.75;2.25;2.5;4.0;6.0;9.75;0.25;6.75;1.25;1.75;1.5;2.75;4.75;9.75;2.0;1.75;-0.196289;0.036133;0.993652;-1.26;-0.77;0.56;669.0;0.022999;-0.143537
1.62;0.0;0.0;0.0;0.0;0.0;0.0;0.0;0.0;0.0;0.0;0.0;0.0;0.0;1.25;0.0;0.0;0.000488;-0.158203;0.970215;2.66;-36.610001;-82.669998;12.0;0.0;0.0;1.0;2.25;2.25;3.75;6.0;9.75;0.25;6.75;1.0;1.75;1.5;2.75;4.5;9.75;2.0;1.75;-0.208008;0.03418;0.996582;-1.19;-0.42;0.63;660.0;0.022129;-0.144291
1.63;0.0;0.0;0.0;0.0;0.0;0.0;0.0;0.0;0.0;0.0;0.0;0.0;0.0;2.25;0.0;0.0;-0.080078;-0.186035;1.243164;-18.83;-41.860001;-72.029999;21.0;0.0;0.0;1.0;2.25;2.5;3.25;5.75;9.5;0.25;6.75;1.0;1.75;1.5;2.5;4.5;9.5;1.5;1.75;-0.205566;0.036621;0.994629;-1.12;-0.07;0.84;640.0;0.019454;-0.143833
1.64;0.0;0.0;0.0;0.0;0.0;0.0;0.0;0.0;0.0;0.0;0.0;0.0;0.0;3.25;0.0;0.0;-0.149902;-0.174316;1.078125;-30.17;-46.41;-62.09;30.0;0.0;0.0;1.0;2.25;2.5;3.25;5.5;9.25;0.25;6.75;1.0;1.5;1.5;2.5;4.25;9.25;1.5;1.75;-0.208984;0.038574;0.998047;-1.33;0.28;0.77;627.0;0.017938;-0.14514
1.65;0.0;0.0;0.0;0.0;0.0;0.0;0.0;0.0;0.0;0.0;0.0;0.0;0.0;4.0;0.0;0.0;-0.275391;-0.10498;1.212891;-17.5;-46.41;-52.709999;37.0;0.0;0.0;1.0;2.25;2.0;3.0;5.5;9.0;0.25;6.5;1.0;1.5;1.5;2.5;4.0;9.0;1.75;1.75;-0.205566;0.038574;0.991699;-1.61;0.42;0.7;609.0;0.023064;-0.144495
1.66;0.0;0.0;0.0;0.0;0.0;0.0;0.0;0.0;0.0;0.0;0.0;0.25;0.0;5.25;0.0;0.0;-0.336914;-0.181641;1.162109;-8.75;-45.080002;-44.59;52.0;0.401618;0.151391;0.75;2.25;1.75;2.75;5.0;9.0;0.25;6.5;1.0;1.25;1.5;2.5;4.0;8.75;1.75;1.75;-0.209961;0.036133;0.98877;-1.68;0.7;0.63;589.0;0.027113;-0.150887
1.67;0.0;0.0;0.0;0.0;0.0;0.0;0.0;0.0;0.0;0.0;0.0;0.0;0.0;6.25;0.25;0.0;-0.271973;-0.206055;1.082031;2.52;-46.759998;-31.639999;61.0;0.412942;0.165653;1.0;2.25;2.25;2.75;5.0;9.0;0.25;6.25;1.0;1.25;1.25;2.25;4.0;8.5;1.75;1.5;-0.205078;0.039062;0.987305;-1.96;0.63;0.63;584.0;0.018009;-0.145756
1.68;0.0;0.0;0.0;0.0;0.0;0.0;0.0;0.0;0.0;0.0;0.0;0.0;0.0;7.0;0.25;0.0;-0.182617;-0.199707;1.068359;-6.51;-38.009998;-9.31;68.0;0.412967;0.16691;0.75;1.75;2.0;2.75;4.75;9.25;0.25;6.25;1.0;1.25;1.25;2.25;3.75;8.25;1.5;1.75;-0.205078;0.040039;0.991211;-2.24;0.49;0.49;567.0;0.02204;-0.150642
1.69;0.0;0.0;0.0;0.0;0.0;0.0;0.0;0.0;0.25;0.0;0.0;0.0;0.0;8.25;0.25;0.0;-0.222168;0.002441;1.058594;-1.89;-31.639999;-0.91;83.0;0.406241;0.173073;0.75;1.75;2.0;3.0;4.75;9.0;0.0;6.25;0.75;1.25;1.25;2.25;3.75;8.0;1.75;1.5;-0.20459;0.033203;0.993652;-2.31;0.56;0.56;558.0;0.018835;-0.156593
1.7;0.0;0.0;0.0;0.0;0.0;0.0;0.0;0.0;0.25;0.0;0.0;0.0;0.0;8.75;0.5;0.0;-0.211426;-0.018555;1.030273;4.69;-26.950001;1.82;90.0;0.406653;0.165239;0.75;1.75;1.75;2.75;4.75;9.0;0.0;6.25;1.0;1.25;1.25;1.75;3.5;7.5;1.5;1.25;-0.208008;0.041992;0.98584;-2.38;0.42;0.49;539.0;0.014643;-0.154773
1.71;0.0;0.0;0.0;0.0;0.0;0.0;0.0;0.0;0.5;0.25;0.0;0.0;0.0;9.25;0.25;0.0;-0.211914;0.012207;1.021484;4.83;-29.33;3.64;99.0;0.396686;0.174053;0.75;2.25;2.0;2.75;4.75;9.0;0.25;5.75;1.0;1.25;1.25;1.75;3.0;7.5;1.5;1.25;-0.205078;0.038086;0.991211;-2.52;0.49;0.35;538.0;0.008577;-0.144098
1.72;0.0;0.0;0.0;0.0;0.0;0.0;0.0;0.0;0.5;0.0;0.0;0.25;0.0;8.5;0.0;0.25;-0.208496;0.016113;1.001465;3.99;-27.860001;3.99;90.0;0.393267;0.16233;1.0;1.75;2.0;2.75;4.75;8.25;0.25;5.5;0.75;1.25;1.25;1.25;3.0;6.75;1.25;1.25;-0.20166;0.036133;0.990234;-2.52;0.7;0.35;503.0;0.001637;-0.144169
1.73;0.0;0.0;0.0;0.0;0.0;0.0;0.0;0.0;0.75;0.0;0.0;0.0;0.25;8.5;0.25;0.25;-0.194336;-0.003906;1.053223;3.92;-23.870001;3.85;96.0;0.388756;0.157697;1.0;2.0;1.5;2.25;4.5;8.25;0.25;5.5;0.5;1.0;1.25;1.5;2.75;6.25;1.25;1.0;-0.20459;0.033203;0.996094;-2.24;0.91;0.42;479.0;-0.000743;-0.15384
1.74;0.0;0.0;0.0;0.0;0.0;0.0;0.0;0.0;0.75;0.0;0.0;0.0;0.25;8.5;0.0;0.25;-0.202148;0.021973;1.016113;2.17;-18.83;3.22;93.0;0.388165;0.165052;0.75;2.0;1.5;2.25;4.0;7.25;0.0;5.5;0.75;1.0;1.0;1.25;2.5;6.0;1.5;1.0;-0.20752;0.029785;0.993164;-2.1;0.98;0.49;450.0;0.005551;-0.154414
1.75;0.0;0.0;0.0;0.0;0.0;0.0;0.0;0.0;0.75;0.25;0.0;0.0;0.0;9.25;0.25;0.25;-0.196777;0.02832;1.003906;0.49;-16.1;1.68;104.0;0.391302;0.170537;1.0;1.75;1.75;2.75;4.0;7.25;0.0;5.25;0.75;1.0;1.0;1.25;2.25;6.0;1.0;1.0;-0.209473;0.03125;0.992676;-1.96;1.05;0.42;447.0;-0.006289;-0.149063
1.76;0.0;0.0;0.0;0.0;0.0;0.0;0.0;0.25;0.75;0.25;0.0;0.25;0.0;9.0;0.25;0.0;-0.19043;0.025391;1.012207;-0.7;-13.79;1.26;107.0;0.37059;0.142621;1.0;2.0;1.75;2.75;4.0;7.25;0.0;5.25;0.25;1.0;1.0;1.25;2.0;5.25;1.0;0.75;-0.208496;0.036133;0.982422;-1.82;0.77;0.56;432.0;-0.02201;-0.159178
1.77;0.0;0.0;0.0;0.0;0.25;0.25;0.0;0.25;0.75;0.25;0.0;0.25;0.25;9.0;0.25;0.0;-0.196289;0.011719;1.005859;-1.61;-11.34;0.63;115.0;0.34011;0.117455;0.75;1.75;1.75;2.75;3.75;6.75;0.0;4.75;0.25;0.5;1.0;1.25;2.0;5.0;0.75;0.5;-0.208008;0.031738;0.987793;-1.82;0.63;0.35;397.0;-0.025093;-0.16127
1.78;0.0;0.0;0.25;0.0;0.25;0.25;0.0;0.25;0.75;0.25;0.0;0.25;0.25;8.5;0.25;0.25;-0.188965;0.024902;0.994629;-2.03;-9.52;0.42;115.0;0.321371;0.108727;0.5;1.75;1.75;2.5;3.25;6.75;0.0;4.75;0.25;0.25;1.0;1.0;1.75;4.75;0.75;0.5;-0.20459;0.03125;0.990723;-1.82;0.35;0.28;375.0;-0.02628;-0.167256
1.79;0.0;0.0;0.25;0.25;0.5;0.25;0.0;0.5;0.25;0.25;0.0;0.25;0.25;8.0;0.25;0.25;-0.184082;0.018555;0.990723;-2.03;-8.12;0.35;114.0;0.281631;0.067072;0.75;1.75;1.5;2.5;3.75;6.75;0.0;4.5;0.25;0.5;1.0;1.0;1.75;4.5;0.25;0.5;-0.207031;0.033691;0.987793;-1.82;0.07;0.35;371.0;-0.036355;-0.162744
1.8;0.0;0.0;0.25;0.25;0.75;0.5;0.0;0.5;0.25;0.25;0.0;0.25;0.25;7.75;0.0;0.25;-0.181152;0.015625;0.995605;-2.24;-6.93;0.42;114.0;0.253843;0.059572;0.75;1.75;1.5;2.5;3.75;7.0;0.0;4.25;0.25;0.75;1.0;1.0;1.75;4.0;0.25;0.5;-0.210449;0.036621;0.987305;-1.61;0.0;0.35;368.0;-0.041092;-0.163586
1.81;0.25;0.0;0.5;0.5;0.75;0.5;0.25;0.75;0.75;0.25;0.0;0.25;0.25;7.0;0.25;0.25;-0.181152;0.015137;0.997559;-1.61;-6.37;0.56;135.0;0.197841;0.048863;0.5;2.0;1.5;2.75;3.25;6.75;0.0;4.25;0.25;0.5;1.0;1.0;1.5;3.5;0.25;0.25;-0.206055;0.032227;0.990234;-1.54;-0.28;0.42;350.0;-0.052004;-0.172981
1.82;0.25;0.0;0.75;0.5;1.0;0.5;0.25;0.75;0.25;0.0;0.0;0.25;0.25;6.75;0.25;0.25;-0.179688;0.012695;0.99707;-1.05;-5.6;0.91;128.0;0.171176;0.034882;0.5;2.25;1.75;2.5;3.25;6.75;0.0;4.25;0.25;0.5;0.75;1.0;1.5;2.75;0.5;0.25;-0.202637;0.032227;0.984375;-1.4;-0.21;0.42;346.0;-0.062345;-0.176945
1.83;0.25;0.25;0.75;0.5;1.25;0.75;0.25;1.0;0.25;0.0;0.0;0.25;0.25;6.5;0.25;0.25;-0.182617;0.013184;1.001953;-0.35;-4.69;0.84;139.0;0.137589;0.009996;0.75;2.0;1.5;2.5;3.25;6.75;0.0;4.25;0.25;0.5;0.75;1.0;1.25;2.75;0.75;0.25;-0.209961;0.031738;0.993652;-1.26;-0.35;0.42;344.0;-0.058419;-0.174295
1.84;0.5;0.0;0.75;1.0;1.5;1.25;0.25;1.0;0.25;0.0;0.0;0.0;0.25;6.25;0.0;0.0;-0.178711;0.01416;1.001465;0.21;-3.85;0.98;144.0;0.088138;0.003223;0.75;2.25;1.5;2.75;3.0;6.75;0.0;4.25;0.25;0.5;0.5;0.75;1.25;2.5;0.25;0.25;-0.205566;0.032227;0.98877;-1.26;-0.49;0.49;332.0;-0.078682;-0.180315
1.85;0.75;0.25;1.25;1.25;1.5;1.25;0.25;1.0;0.25;0.0;0.0;0.25;0.25;6.25;0.25;0.0;-0.182129;0.012695;0.998047;0.63;-3.15;0.84;165.0;0.059664;-0.005247;1.0;2.0;1.5;2.5;3.25;7.0;0.0;4.25;0.0;0.5;0.5;0.75;1.25;2.25;0.25;0.25;-0.205078;0.029297;0.98877;-1.26;-0.63;0.49;330.0;-0.085163;-0.183624
1.86;0.75;0.25;1.25;1.25;1.75;1.5;0.25;1.25;0.5;0.25;0.0;0.25;0.25;6.0;0.25;0.25;-0.175293;0.008301;0.995605;0.7;-2.66;0.98;180.0;0.056101;-0.015735;1.0;2.0;1.5;2.25;3.0;6.5;0.0;4.0;0.25;0.5;0.75;0.75;1.25;1.75;0.25;0.25;-0.207031;0.033691;0.989746;-1.4;-0.77;0.56;316.0;-0.083191;-0.18064
1.87;0.75;0.25;1.5;1.25;1.75;1.75;0.25;1.25;0.5;0.25;0.0;0.25;0.5;5.75;0.25;0.25;-0.180176;0.017578;0.999023;0.84;-2.17;1.05;186.0;0.0445;-0.026166;0.75;2.25;1.5;2.75;3.25;6.5;0.0;4.0;0.25;0.5;0.75;0.75;1.25;2.0;0.25;0.25;-0.203613;0.028809;0.989258;-1.61;-1.05;0.49;327.0;-0.083605;-0.179079
1.88;1.0;0.25;1.5;1.5;1.75;2.0;0.25;1.25;0.25;0.25;0.0;0.25;0.5;5.5;0.25;0.0;-0.178223;0.022461;1.0;0.7;-1.75;1.05;188.0;0.01826;-0.037191;1.0;2.25;1.25;2.75;3.25;6.75;0.0;4.0;0.25;0.25;0.75;1.0;1.25;2.5;0.25;0.25;-0.20459;0.030762;0.984863;-1.68;-1.05;0.42;334.0;-0.078602;-0.178038
1.89;0.75;0.25;1.5;1.75;2.0;2.0;0.25;1.5;0.25;0.25;0.0;0.25;0.25;5.25;0.25;0.0;-0.17627;0.023438;0.994629;0.35;-1.54;0.98;190.0;0.010096;-0.045889;0.5;2.0;1.25;2.75;3.25;6.5;0.0;4.0;0.25;0.25;0.5;1.0;1.0;2.25;0.5;0.25;-0.204102;0.031738;0.98584;-1.82;-0.91;0.21;318.0;-0.073241;-0.182536
1.9;0.75;0.5;1.75;1.75;2.0;2.5;0.25;1.25;0.25;0.25;0.25;0.25;0.25;5.0;0.25;0.25;-0.178223;0.017578;1.000488;0.14;-1.33;0.91;200.0;-0.002859;-0.050478;0.25;1.75;1.5;2.75;3.0;6.25;0.0;3.75;0.25;0.25;0.25;0.5;1.0;2.25;0.75;0.25;-0.203613;0.029785;0.989258;-1.82;-0.77;0.21;300.0;-0.072409;-0.178809
1.91;1.25;0.5;1.75;2.0;2.0;2.5;0.25;1.25;0.25;0.0;0.0;0.0;0.5;5.0;0.25;0.25;-0.174316;0.010742;0.998047;0.28;-0.98;0.84;202.0;-0.025935;-0.050581;0.25;1.75;1.5;3.25;3.25;6.25;0.0;3.5;0.25;0.25;0.5;0.5;1.0;2.5;0.5;0.25;-0.206055;0.027344;0.983887;-1.68;-0.56;0.14;307.0;-0.075976;-0.172097
1.92;1.5;0.75;1.75;2.0;2.0;2.5;0.25;1.25;0.25;0.0;0.0;0.0;0.5;5.0;0.25;0.25;-0.179688;0.019531;0.994141;-0.0;-0.77;0.91;208.0;-0.035821;-0.049811;0.5;2.0;1.5;2.75;3.25;6.5;0.0;3.75;0.0;0.25;0.5;0.75;0.75;2.0;0.5;0.25;-0.210449;0.03125;0.984375;-1.68;-0.49;0.21;306.0;-0.088049;-0.181842
1.93;1.0;1.0;1.75;2.0;2.0;2.5;0.25;1.5;0.25;0.25;0.25;0.0;0.5;4.5;0.0;0.25;-0.179199;0.021973;0.994629;0.14;-0.35;0.84;207.0;-0.038738;-0.066467;0.5;2.0;1.5;2.25;3.25;6.25;0.0;3.25;0.25;0.25;0.5;0.75;0.75;2.25;0.25;0.25;-0.209473;0.03125;0.989258;-1.75;-0.56;0.35;292.0;-0.08212;-0.166557
1.94;1.25;1.0;1.75;2.5;2.25;2.75;0.25;1.5;0.25;0.25;0.0;0.0;0.5;4.25;0.25;0.25;-0.177246;0.021484;1.001953;-0.07;0.07;0.77;219.0;-0.055363;-0.071735;0.5;2.0;1.5;2.25;3.25;6.0;0.0;3.25;0.25;0.25;0.5;0.75;1.0;2.5;0.25;0.25;-0.203125;0.028809;0.979004;-1.68;-0.63;0.35;293.0;-0.075473;-0.165125
1.95;1.5;1.0;1.75;2.75;2.0;3.0;0.25;1.5;0.25;0.0;0.25;0.25;0.0;4.0;0.25;0.25;-0.172852;0.014648;0.995117;-0.07;0.28;0.7;221.0;-0.069762;-0.075562;0.5;2.0;1.5;2.5;3.0;6.25;0.0;3.25;0.25;0.5;0.5;0.25;0.75;2.75;0.25;0.25;-0.211914;0.027832;0.992188;-1.47;-0.56;0.49;293.0;-0.078528;-0.159279
1.96;1.75;1.25;2.0;2.75;2.0;3.0;0.25;1.5;0.25;0.0;0.0;0.0;0.25;3.75;0.25;0.25;-0.177734;0.018066;0.991211;-0.14;0.35;0.7;224.0;-0.090414;-0.075345;0.25;1.75;1.25;2.5;3.0;6.0;0.0;3.5;0.0;0.25;0.5;0.25;0.75;2.75;0.25;0.25;-0.209473;0.036133;0.98584;-1.4;-0.49;0.56;280.0;-0.075912;-0.174703
1.97;2.0;1.25;2.25;2.5;2.0;2.5;0.25;1.75;0.25;0.0;0.0;0.0;0.25;3.75;0.0;0.25;-0.17334;0.019043;0.998535;-0.21;0.14;0.77;222.0;-0.097459;-0.069264;0.25;1.75;1.5;2.5;3.0;6.0;0.0;3.25;0.25;0.25;0.5;0.5;0.75;2.75;0.25;0.25;-0.20752;0.029785;0.986328;-1.33;-0.56;0.49;285.0;-0.071829;-0.164291
1.98;2.0;1.5;2.0;2.75;2.0;2.5;0.25;1.75;0.25;0.25;0.0;0.25;0.25;3.5;0.0;0.25;-0.17334;0.019531;0.986328;-0.21;0.49;0.7;228.0;-0.098355;-0.078228;0.75;1.75;1.5;2.25;3.25;6.0;0.0;3.25;0.25;0.25;0.25;0.25;0.75;3.25;0.75;0.25;-0.209473;0.036621;0.993164;-1.26;-0.49;0.56;295.0;-0.065222;-0.148377
1.99;2.0;1.5;2.25;2.75;2.0;2.75;0.25;1.5;0.25;0.0;0.0;0.25;0.25;3.25;0.0;0.0;-0.174316;0.015625;0.998047;-0.21;0.63;0.77;223.0;-0.115655;-0.075591;0.75;2.25;1.5;2.25;3.25;6.25;0.0;3.25;0.25;0.25;0.25;0.25;1.0;2.75;0.25;0.25;-0.206055;0.026367;0.991699;-1.26;-0.49;0.42;295.0;-0.086916;-0.158841
2.0;2.0;1.25;2.25;2.5;2.0;3.0;0.25;1.25;0.25;0.0;0.0;0.25;0.25;3.25;0.0;0.0;-0.17334;0.022949;0.998047;-0.28;0.49;0.56;216.0;-0.112257;-0.069091;1.0;2.0;1.5;2.5;3.25;6.0;0.0;3.25;0.0;0.25;0.25;0.25;0.75;2.75;0.0;0.25;-0.210449;0.032227;0.98584;-1.33;-0.56;0.42;287.0;-0.099884;-0.159325
2.01;2.0;1.25;2.25;2.75;2.0;3.0;0.25;1.25;0.25;0.0;0.0;0.25;0.25;2.75;0.25;0.0;-0.179199;0.017578;0.994629;-0.28;0.35;0.42;217.0;-0.119027;-0.07668;1.0;1.75;1.5;2.5;3.25;5.75;0.0;3.0;0.25;0.25;0.25;0.5;0.75;3.25;0.0;0.0;-0.206543;0.026855;0.98584;-1.4;-0.63;0.49;287.0;-0.08437;-0.144423
2.02;2.25;1.5;2.25;3.0;2.25;3.0;0.25;1.5;0.0;0.0;0.0;0.25;0.0;3.0;0.25;0.0;-0.175781;0.015625;0.993652;-0.07;0.28;0.56;229.0;-0.129584;-0.080174;0.75;1.75;1.5;2.25;3.0;5.5;0.0;3.0;0.25;0.5;0.25;0.75;0.75;2.75;0.25;0.25;-0.20752;0.030762;0.990723;-1.4;-0.56;0.42;281.0;-0.07238;-0.15198
2.03;2.25;1.5;2.25;3.0;2.25;3.0;0.25;1.5;0.0;0.25;0.0;0.25;0.0;2.75;0.25;0.0;-0.173828;0.022461;0.996094;-0.0;0.14;0.7;230.0;-0.130484;-0.080996;0.75;1.75;1.75;2.25;3.25;5.5;0.0;3.0;0.25;0.5;0.25;0.25;0.75;2.75;0.25;0.25;-0.20752;0.02832;0.984375;-1.47;-0.49;0.49;281.0;-0.080805;-0.144139
2.04;2.25;2.0;2.0;2.75;2.0;3.0;0.25;1.5;0.25;0.0;0.0;0.25;0.0;2.25;0.25;0.0;-0.171875;0.020996;0.994629;-0.28;0.35;0.63;222.0;-0.142953;-0.08679;1.0;1.5;1.5;2.25;3.25;5.75;0.0;3.0;0.25;0.5;0.25;0.25;0.75;2.75;0.25;0.5;-0.209961;0.03125;0.984375;-1.33;-0.49;0.56;282.0;-0.077483;-0.146173
2.05;2.25;2.0;2.25;3.0;2.0;3.0;0.25;1.5;0.0;0.0;0.0;0.25;0.25;2.0;0.25;0.0;-0.173828;0.024902;0.998535;-0.07;0.14;0.7;224.0;-0.15538;-0.098663;0.25;1.75;1.5;2.25;3.0;5.5;0.0;3.0;0.25;0.25;0.25;0.5;0.75;2.75;0.25;0.25;-0.209473;0.026855;0.986328;-1.54;-0.35;0.56;269.0;-0.071734;-0.158208
2.06;2.25;1.75;2.5;3.0;2.0;3.25;0.25;1.5;0.0;0.0;0.0;0.25;0.25;2.0;0.0;0.0;-0.178223;0.017578;1.000488;-0.21;0.35;0.56;225.0;-0.161075;-0.097872;0.25;2.0;1.5;2.25;3.0;5.25;0.0;3.0;0.25;0.25;0.25;0.25;0.75;2.75;0.25;0.25;-0.209473;0.029297;0.986328;-1.4;-0.35;0.49;266.0;-0.07714;-0.155515
2.07;2.5;2.0;2.5;3.0;2.25;3.25;0.25;1.5;0.0;0.0;0.0;0.25;0.25;2.0;0.0;0.25;-0.176758;0.015625;0.996582;-0.21;0.14;0.63;235.0;-0.162988;-0.095441;0.25;2.0;1.5;2.0;2.75;5.25;0.0;2.75;0.25;0.25;0.25;0.25;0.5;3.0;0.25;0.25;-0.208984;0.030762;0.984375;-1.47;-0.21;0.42;256.0;-0.072988;-0.14755
2.08;2.75;2.25;2.5;3.25;2.25;3.5;0.25;1.75;0.25;0.0;0.0;0.0;0.25;1.75;0.25;0.25;-0.172852;0.018066;0.996094;-0.14;-0.0;0.56;252.0;-0.1642;-0.097218;0.75;1.75;1.5;2.25;2.75;5.25;0.0;2.75;0.25;0.5;0.25;0.25;0.5;2.75;0.25;0.25;-0.211914;0.033691;0.990234;-1.54;-0.28;0.49;262.0;-0.080165;-0.143312
2.09;2.5;2.25;2.75;3.25;2.25;3.5;0.25;1.75;0.25;0.0;0.25;0.0;0.25;1.75;0.25;0.25;-0.171875;0.015625;0.998535;0.14;-0.0;0.7;255.0;-0.158378;-0.097483;0.5;1.75;1.25;2.25;2.75;5.25;0.0;2.5;0.25;0.5;0.25;0.25;0.5;2.75;0.25;0.25;-0.210449;0.026367;0.987305;-1.47;-0.28;0.42;252.0;-0.07542;-0.14485
2.1;2.5;2.25;2.75;3.75;2.25;3.5;0.25;1.75;0.0;0.0;0.0;0.0;0.5;2.0;0.0;0.25;-0.17041;0.018066;0.993652;0.07;0.07;0.77;256.0;-0.169631;-0.106479;0.5;1.75;1.25;2.25;2.75;5.25;0.0;2.5;0.25;0.25;0.25;0.25;0.5;3.5;0.25;0.25;-0.212891;0.032227;0.991211;-1.47;-0.28;0.42;256.0;-0.065659;-0.138404
2.11;3.0;2.25;2.75;3.5;2.5;3.5;0.25;1.75;0.25;0.0;0.0;0.25;0.25;2.0;0.0;0.25;-0.175781;0.019043;1.003906;0.07;0.07;0.84;266.0;-0.165945;-0.092448;0.5;1.75;1.25;2.0;2.75;5.0;0.0;2.25;0.25;0.25;0.25;0.25;0.25;3.25;0.25;0.25;-0.202637;0.026367;0.98291;-1.47;-0.42;0.42;241.0;-0.069651;-0.13119
2.12;3.25;2.25;2.75;3.75;2.25;3.5;0.25;1.75;0.25;0.0;0.25;0.25;0.25;2.25;0.0;0.25;-0.17334;0.02002;0.999023;-0.07;0.28;0.84;274.0;-0.161177;-0.091459;0.5;1.5;1.25;1.75;2.75;5.0;0.0;2.5;0.25;0.5;0.25;0.25;0.25;2.75;0.25;0.25;-0.210938;0.030273;0.987305;-1.4;-0.63;0.35;238.0;-0.067937;-0.137883
2.13;3.0;2.75;2.75;4.0;2.5;3.5;0.25;1.75;0.0;0.25;0.0;0.25;0.5;2.25;0.0;0.25;-0.177734;0.021484;0.993652;-0.14;0.14;0.84;281.0;-0.166711;-0.10055;0.5;1.5;1.25;1.75;2.75;4.75;0.0;2.5;0.25;0.25;0.25;0.25;0.5;3.25;0.25;0.25;-0.208984;0.025391;0.990723;-1.47;-0.56;0.35;240.0;-0.058898;-0.135668
2.14;3.0;2.75;2.75;4.0;2.5;3.75;0.25;1.75;0.25;0.25;0.0;0.25;0.5;2.0;0.25;0.25;-0.171387;0.026855;0.99707;0.14;0.28;0.77;288.0;-0.16026;-0.099734;0.5;1.5;1.25;1.75;2.75;4.75;0.0;2.25;0.25;0.25;0.25;0.25;0.5;2.75;0.25;0.25;-0.206543;0.025879;0.993164;-1.61;-0.42;0.35;231.0;-0.06923;-0.13735
2.15;3.0;2.75;2.75;4.25;2.5;3.75;0.25;1.75;0.25;0.25;0.0;0.25;0.25;2.0;0.25;0.25;-0.175293;0.019043;0.997559;-0.14;0.35;0.77;289.0;-0.164272;-0.098082;0.5;1.5;1.5;1.75;2.75;4.75;0.0;2.25;0.25;0.5;0.25;0.25;0.75;3.25;0.25;0.25;-0.211426;0.032227;0.986328;-1.47;-0.21;0.35;244.0;-0.056581;-0.129297
2.16;3.0;2.75;2.75;4.0;2.5;3.75;0.25;1.75;0.25;0.25;0.0;0.25;0.5;2.0;0.0;0.25;-0.174316;0.020508;0.994629;-0.07;0.42;0.77;285.0;-0.16597;-0.099911;0.75;1.25;1.25;1.75;2.75;4.5;0.0;2.25;0.25;0.5;0.25;0.25;0.25;3.0;0.25;0.25;-0.208984;0.027832;0.986328;-1.47;-0.07;0.28;231.0;-0.062237;-0.12332
2.17;3.0;2.75;3.0;4.5;2.25;3.75;0.25;1.75;0.25;0.0;0.0;0.0;0.5;2.0;0.0;0.25;-0.166016;0.012207;1.0;-0.07;0.49;0.7;285.0;-0.177847;-0.101866;0.75;1.75;1.25;1.75;2.75;4.5;0.0;2.25;0.25;0.5;0.25;0.25;0.25;2.75;0.25;0.25;-0.209961;0.02002;0.987793;-1.33;-0.14;0.28;234.0;-0.074605;-0.127235
2.18;3.0;2.75;2.75;4.5;2.5;3.75;0.25;2.0;0.0;0.25;0.0;0.25;0.25;1.75;0.0;0.0;-0.174805;0.020996;0.993652;-0.07;0.35;0.7;286.0;-0.181774;-0.109646;0.25;1.75;1.25;1.75;2.5;4.5;0.0;2.0;0.25;0.5;0.0;0.25;0.25;2.75;0.25;0.0;-0.205566;0.024902;0.981934;-1.12;0.0;0.28;216.0;-0.073458;-0.129807
2.19;3.0;2.75;2.75;4.5;2.5;4.25;0.25;2.0;0.0;0.0;0.25;0.25;0.25;2.0;0.25;0.0;-0.174316;0.022461;0.995605;-0.07;0.35;0.7;297.0;-0.17095;-0.11213;0.5;1.25;1.25;1.75;2.5;3.75;0.0;2.0;0.25;0.25;0.25;0.25;0.5;3.5;0.25;0.25;-0.213379;0.027832;0.980957;-1.12;0.0;0.28;216.0;-0.045397;-0.117257
2.2;3.5;2.75;3.0;4.75;2.75;4.25;0.25;2.0;0.0;0.25;0.0;0.25;0.5;1.75;0.0;0.0;-0.175781;0.01709;0.998535;0.14;-0.07;0.84;309.0;-0.183892;-0.108965;0.5;1.0;1.25;1.75;2.5;4.25;0.0;2.0;0.25;0.25;0.25;0.25;0.25;2.75;0.25;0.25;-0.210938;0.025391;0.987793;-0.98;0.49;0.28;210.0;-0.061555;-0.126986
2.21;3.5;2.75;3.0;5.0;2.75;4.25;0.25;2.25;0.25;0.25;0.0;0.25;0.5;2.0;0.0;0.0;-0.177734;0.019043;1.003418;0.42;0.07;0.91;322.0;-0.173435;-0.107376;0.25;1.75;1.0;1.5;2.25;3.75;0.0;1.75;0.25;0.5;0.5;0.25;0.25;2.75;0.25;0.25;-0.213379;0.029785;0.989746;-1.05;0.98;0.35;201.0;-0.052682;-0.123758
2.22;3.5;3.25;3.0;5.0;2.5;4.25;0.25;2.25;0.0;0.0;0.0;0.25;0.5;1.5;0.0;0.0;-0.174805;0.015137;1.004883;0.56;0.07;0.91;313.0;-0.195207;-0.120102;0.25;1.25;0.75;1.25;2.25;3.5;0.0;1.75;0.25;0.25;0.25;0.25;0.25;2.75;0.25;0.25;-0.210449;0.026855;0.986816;-1.05;1.82;0.35;182.0;-0.042482;-0.125106
2.23;3.5;3.5;3.0;5.0;2.5;4.25;0.25;2.0;0.0;0.0;0.0;0.25;0.75;1.75;0.25;0.0;-0.179688;0.018555;1.0;0.63;0.28;1.05;318.0;-0.186797;-0.116928;0.0;1.0;0.75;1.25;2.25;3.25;0.0;1.75;0.25;0.25;0.25;0.25;0.25;3.0;0.5;0.25;-0.21582;0.026367;0.986816;-1.47;2.1;0.28;179.0;-0.016517;-0.121147
2.24;3.75;3.25;3.0;5.25;2.75;4.75;0.25;2.25;0.0;0.0;0.25;0.25;0.5;1.75;0.25;0.25;-0.17334;0.022949;0.994141;0.49;0.21;0.98;337.0;-0.181057;-0.118635;0.0;0.75;0.75;1.25;1.75;3.0;0.0;1.5;0.25;0.25;0.25;0.25;0.25;3.5;0.25;0.25;-0.212891;0.029297;0.985352;-1.54;2.66;0.21;165.0;0.000625;-0.10978
2.25;3.75;3.25;3.0;5.25;2.75;4.75;0.25;2.25;0.0;0.0;0.0;0.0;0.5;1.75;0.0;0.0;-0.178711;0.024902;0.996094;0.21;0.21;0.84;327.0;-0.195676;-0.116537;0.0;0.5;0.75;1.0;1.25;2.75;0.0;1.25;0.25;0.25;0.25;0.25;0.25;3.25;0.25;0.25;-0.216797;0.030762;0.989746;-1.61;3.29;0.28;144.0;0.016083;-0.106631
2.26;3.5;3.5;3.25;6.0;2.75;4.75;0.25;2.25;0.0;0.25;0.0;0.0;0.5;1.25;0.0;0.0;-0.172852;0.019531;0.993652;0.14;-0.28;0.91;337.0;-0.203379;-0.122365;0.0;0.5;0.5;0.75;1.25;2.25;0.0;1.25;0.25;0.25;0.25;0.25;0.25;3.75;0.25;0.25;-0.213867;0.035156;0.989258;-1.61;4.13;0.14;136.0;0.049906;-0.091483
2.27;4.0;3.75;3.5;6.0;2.75;5.5;0.25;2.5;0.25;0.25;0.0;0.0;0.5;1.5;0.0;0.0;-0.174316;0.022949;1.004395;0.28;-0.42;0.91;367.0;-0.196652;-0.118295;0.0;0.25;0.25;0.75;1.0;1.5;0.0;0.75;0.25;0.25;0.25;0.25;0.25;4.25;0.5;0.25;-0.209961;0.030762;0.991211;-1.61;5.32;0.14;118.0;0.115089;-0.05274
2.28;4.25;4.0;3.5;6.5;2.75;5.5;0.25;2.25;0.25;0.25;0.0;0.25;0.75;1.75;0.0;0.0;-0.172852;0.017578;0.996094;0.35;-0.49;0.98;382.0;-0.19405;-0.117274;0.0;0.25;0.25;0.25;0.75;1.5;0.0;0.5;0.25;0.25;0.5;0.25;0.25;4.5;0.25;0.25;-0.219238;0.025391;0.984375;-1.61;7.35;0.35;107.0;0.150851;-0.029048
2.29;4.25;4.25;3.5;6.5;2.75;5.25;0.0;2.5;0.0;0.25;0.0;0.0;0.5;1.5;0.0;0.0;-0.171387;0.023438;0.994629;0.42;-0.56;1.05;370.0;-0.210518;-0.125505;0.0;0.25;0.25;0.25;0.25;0.75;0.0;0.25;0.75;0.5;0.5;0.25;0.0;5.0;0.25;0.25;-0.224609;0.024902;0.989746;-1.61;8.96;0.42;100.0;0.222764;0.046203
2.3;4.5;4.5;3.25;6.5;3.0;5.5;0.0;2.5;0.0;0.25;0.0;0.0;0.5;1.5;0.0;0.0;-0.168457;0.022461;0.998535;0.42;-0.63;1.19;378.0;-0.211755;-0.125433;0.0;0.25;0.0;0.25;0.25;0.25;0.0;0.0;0.75;0.25;0.5;0.25;0.25;5.0;0.25;0.25;-0.225098;0.022461;0.990723;-1.47;10.71;0.7;87.0;0.274902;0.073227
2.31;4.5;5.0;3.75;6.75;3.5;5.75;0.25;2.5;0.25;0.0;0.0;0.25;0.75;1.5;0.25;0.0;-0.166992;0.023438;0.998535;0.42;-0.84;1.19;414.0;-0.200691;-0.118826;0.0;0.25;0.25;0.0;0.25;0.25;0.0;0.0;0.5;0.25;0.5;0.25;0.0;5.25;0.25;0.25;-0.218262;0.022949;0.996582;-1.54;12.39;0.84;83.0;0.282977;0.093961
2.32;5.5;5.25;4.0;6.75;3.5;5.75;0.25;3.0;0.0;0.25;0.0;0.25;0.75;1.25;0.25;0.0;-0.169922;0.022949;0.998535;0.21;-1.05;1.4;437.0;-0.208183;-0.120559;0.0;0.25;0.0;0.25;0.0;0.25;0.0;0.0;0.5;0.25;0.25;0.25;0.0;5.25;0.25;0.25;-0.223633;0.018555;1.003906;-1.4;16.309999;1.33;77.0;0.300448;0.090809
2.33;5.5;5.5;4.25;7.25;3.75;6.0;0.25;3.0;0.0;0.0;0.0;0.25;0.75;1.0;0.25;0.25;-0.17334;0.024414;0.996094;0.35;-1.19;1.4;450.0;-0.214032;-0.123911;0.0;0.25;0.0;0.0;0.0;0.25;0.0;0.0;0.5;0.25;0.25;0.25;0.0;5.25;0.5;0.25;-0.225098;0.013672;1.015137;-2.66;18.690001;1.75;77.0;0.327284;0.096652
2.34;5.75;5.75;4.5;7.75;3.75;7.0;0.25;3.0;0.25;0.0;0.25;0.0;0.75;1.25;0.25;0.25;-0.168945;0.015625;0.997559;0.28;-1.4;1.19;483.0;-0.209333;-0.120875;0.0;0.25;0.0;0.25;0.0;0.25;0.0;0.0;0.75;0.0;0.25;0.25;0.25;4.5;0.25;0.0;-0.224121;0.013184;1.037109;-4.97;19.809999;2.87;72.0;0.284231;0.082826
2.35;5.75;6.5;5.0;8.0;4.0;7.25;0.25;3.0;0.25;0.0;0.0;0.25;0.75;1.25;0.0;0.0;-0.16748;0.021973;0.992676;0.42;-1.54;1.12;501.0;-0.218066;-0.120117;0.0;0.25;0.0;0.0;0.0;0.25;0.0;0.0;0.25;0.0;0.25;0.0;0.0;4.25;0.25;0.0;-0.222656;-0.021973;1.029785;-2.38;25.969999;4.13;54.0;0.323106;0.114301
2.36;6.25;7.0;5.0;8.25;4.0;7.75;0.25;3.25;0.25;0.25;0.0;0.25;0.75;1.25;0.0;0.0;-0.168945;0.01709;0.991211;0.63;-1.47;1.26;528.0;-0.217509;-0.121573;0.0;0.0;0.0;0.0;0.25;0.25;0.0;0.0;0.25;0.0;0.0;0.0;0.0;4.0;0.25;0.0;-0.14502;-0.158203;1.088379;0.28;28.91;8.96;50.0;0.0;0.0
2.37;6.5;7.25;5.25;8.25;4.25;8.0;0.25;3.5;0.0;0.25;0.0;0.25;0.75;1.25;0.0;0.25;-0.165039;0.023438;0.990234;1.05;-1.61;1.19;544.0;-0.218772;-0.124411;0.0;0.0;0.0;0.25;0.25;0.0;0.0;0.0;0.0;0.0;0.0;0.0;0.0;2.75;0.25;0.0;-0.103516;-0.153809;1.056152;-6.79;24.43;23.799999;34.0;0.0;0.0
2.38;6.5;7.0;5.25;8.75;4.5;8.25;0.25;3.5;0.0;0.25;0.0;0.0;0.75;1.0;0.25;0.0;-0.17041;0.025879;1.007812;0.98;-1.47;1.26;550.0;-0.220948;-0.124756;0.0;0.0;0.0;0.25;0.25;0.0;0.0;0.0;0.0;0.0;0.0;0.0;0.0;1.0;0.0;0.0;-0.087891;-0.055176;1.04541;-13.23;18.620001;38.5;15.0;0.0;0.0
2.39;6.5;7.5;5.25;9.0;4.5;8.5;0.25;3.75;0.0;0.25;0.0;0.25;0.75;1.0;0.0;0.0;-0.167969;0.02002;0.996582;0.98;-0.91;1.12;565.0;-0.222145;-0.129492;0.0;0.0;0.0;0.25;0.0;0.25;0.0;0.0;0.0;0.0;0.0;0.0;0.0;0.5;0.0;0.0;0.029785;0.148438;1.026855;-30.66;6.3;59.779999;11.0;0.0;0.0
2.4;6.75;7.75;5.25;9.25;4.75;8.5;0.25;4.0;0.25;0.0;0.25;0.25;0.75;1.25;0.0;0.0;-0.169434;0.022461;0.99707;1.12;-0.63;1.19;586.0;-0.216828;-0.127066;0.0;0.0;0.0;0.0;0.0;0.0;0.0;0.0;0.0;0.0;0.0;0.0;0.0;0.25;0.0;0.0;0.112305;0.397461;1.004883;-38.639999;-6.44;76.720001;2.0;0.0;0.0
2.41;6.5;7.75;5.25;9.0;4.75;8.5;0.25;4.0;0.25;0.25;0.0;0.25;0.75;1.25;0.0;0.25;-0.168457;0.022461;1.000977;1.12;-0.35;1.12;582.0;-0.214031;-0.127305;0.0;0.0;0.0;0.0;0.0;0.0;0.0;0.0;0.0;0.0;0.0;0.0;0.0;0.25;0.0;0.0;0.026367;0.377441;0.999512;-45.990002;-25.549999;93.870003;2.0;0.0;0.0
2.42;6.25;7.75;5.0;9.0;4.75;8.5;0.25;4.0;0.25;0.0;0.0;0.25;1.0;1.0;0.0;0.25;-0.174316;0.030762;1.000977;1.05;-0.14;0.98;573.0;-0.216039;-0.133179;0.0;0.0;0.0;0.0;0.25;0.0;0.0;0.0;0.0;0.0;0.0;0.0;0.0;0.25;0.0;0.0;0.100586;0.203125;0.814941;-49.209999;-36.540001;111.090004;5.0;0.0;0.0
2.43;7.0;7.5;5.25;9.0;4.5;8.75;0.25;4.25;0.25;0.25;0.0;0.5;1.0;1.0;0.0;0.0;-0.166504;0.020996;1.0;1.12;-0.07;0.98;591.0;-0.214008;-0.131318;0.0;0.0;0.0;0.0;0.0;0.0;0.0;0.0;0.0;0.0;0.0;0.0;0.0;0.25;0.0;0.0;0.024414;0.090332;0.837891;-40.110001;-42.91;119.489998;2.0;0.0;0.0
2.44;6.5;7.5;5.25;9.0;4.75;8.75;0.25;4.5;0.0;0.0;0.0;0.5;1.0;1.25;0.0;0.0;-0.171387;0.025879;0.998047;0.98;-0.0;0.77;588.0;-0.21289;-0.136681;0.0;0.0;0.0;0.0;0.0;0.25;0.0;0.0;0.0;0.0;0.0;0.0;0.0;0.0;0.0;0.0;-0.075195;-0.168945;0.797852;-12.67;-51.73;104.860001;3.0;0.0;0.0
2.45;6.5;7.75;5.25;9.0;4.5;8.75;0.25;4.5;0.25;0.25;0.0;0.5;1.0;1.25;0.0;0.25;-0.166992;0.027344;0.996094;1.05;-0.07;0.7;595.0;-0.207785;-0.134817;0.0;0.0;0.0;0.0;0.25;0.0;0.0;0.0;0.0;0.0;0.0;0.0;0.0;0.25;0.0;0.0;-0.539062;-0.168945;0.986328;13.440001;-49.07;84.629997;5.0;0.0;0.0
2.46;6.5;7.5;5.25;9.0;4.5;8.75;0.25;4.5;0.0;0.25;0.0;0.5;1.0;1.0;0.25;0.25;-0.166992;0.021973;1.000977;1.19;-0.21;0.7;590.0;-0.209158;-0.138138;0.0;0.0;0.0;0.0;0.0;0.0;0.0;0.0;0.0;0.0;0.0;0.0;0.0;0.25;0.0;0.0;-0.619629;-0.250488;0.492188;-4.97;-15.190001;54.25;2.0;0.0;0.0
2.47;6.25;7.5;5.25;9.0;4.5;9.0;0.25;4.5;0.0;0.25;0.0;0.25;1.5;1.0;0.25;0.25;-0.166504;0.02002;0.995117;1.19;-0.0;0.63;592.0;-0.206967;-0.141805;0.0;0.0;0.0;0.0;0.0;0.25;0.0;0.0;0.0;0.0;0.0;0.0;0.0;0.0;0.0;0.0;-0.84668;0.013184;0.787109;5.04;3.01;43.189999;3.0;0.0;0.0
2.48;6.75;7.5;5.25;9.0;4.5;9.0;0.25;4.75;0.0;0.0;0.25;0.5;1.5;1.25;0.25;0.25;-0.170898;0.030273;1.004883;0.98;0.21;0.56;607.0;-0.203173;-0.141532;0.0;0.25;0.0;0.0;0.25;0.25;0.0;0.0;0.0;0.0;0.0;0.0;0.0;0.0;0.0;0.0;-1.175781;0.139648;0.834473;4.27;2.03;24.99;8.0;0.0;0.0
2.49;6.75;8.0;5.25;9.0;4.5;9.25;0.0;4.75;0.0;0.0;0.25;0.25;1.5;1.0;0.0;0.0;-0.166016;0.02832;0.999023;0.98;-0.0;0.56;601.0;-0.215305;-0.145374;0.25;0.25;0.25;0.25;0.25;0.25;0.0;0.0;0.0;0.0;0.0;0.0;0.0;0.25;0.0;0.0;-0.362793;0.057129;1.183105;-1.19;0.56;0.56;20.0;0.0;0.0
2.5;6.5;7.75;5.0;9.0;4.5;8.75;0.0;4.75;0.0;0.25;0.0;0.25;1.75;1.0;0.0;0.25;-0.162598;0.027832;0.99707;0.84;-0.07;0.35;591.0;-0.210888;-0.147248;0.0;0.25;0.25;0.25;0.5;0.25;0.0;0.0;0.0;0.0;0.0;0.0;0.0;0.25;0.0;0.0;-0.188965;0.03125;0.973633;-5.74;-4.9;-0.7;20.0;0.0;0.0
2.51;6.5;7.75;5.25;9.0;4.5;9.0;0.0;4.75;0.0;0.0;0.0;0.5;1.75;0.75;0.0;0.25;-0.16748;0.026367;1.00293;0.77;-0.21;0.14;594.0;-0.213432;-0.149658;0.0;0.5;0.25;0.25;0.5;0.5;0.0;0.0;0.0;0.0;0.0;0.0;0.0;0.25;0.0;0.0;-0.165527;-0.010254;1.015137;-3.01;-3.85;-0.42;25.0;0.0;0.0
2.52;6.75;7.75;5.25;9.0;4.5;9.0;0.0;4.75;0.0;0.0;0.0;0.5;1.5;0.75;0.0;0.0;-0.166016;0.030762;0.997559;0.77;-0.07;0.07;593.0;-0.217289;-0.14678;0.25;0.75;0.5;0.5;0.75;0.5;0.0;0.25;0.25;0.25;0.0;0.0;0.0;0.25;0.0;0.0;-0.191406;-0.003906;1.003418;-0.49;-5.81;-0.63;50.0;-0.142248;-0.0572
2.53;6.5;8.0;5.25;8.75;4.5;9.5;0.25;4.75;0.0;0.0;0.0;0.75;1.5;1.0;0.0;0.0;-0.169922;0.027832;0.995117;0.7;0.07;-0.14;605.0;-0.209794;-0.145722;0.0;0.75;0.5;0.75;1.0;0.75;0.0;0.25;0.25;0.25;0.0;0.0;0.0;0.75;0.0;0.0;-0.220215;0.01709;1.014648;1.89;-2.94;-0.07;61.0;-0.094789;-0.059949
2.54;6.25;8.0;5.5;9.25;4.5;9.75;0.25;4.75;0.25;0.0;0.0;0.75;1.5;1.0;0.25;0.25;-0.165527;0.032227;1.005859;0.63;0.49;-0.07;623.0;-0.202783;-0.14479;0.0;0.75;0.5;0.5;1.25;0.75;0.0;0.25;0.0;0.0;0.0;0.0;0.0;0.75;0.0;0.0;-0.21582;0.016602;0.995605;2.24;-1.96;0.49;55.0;-0.126275;-0.072547
2.55;6.5;8.0;5.25;9.25;4.25;9.5;0.0;4.75;0.0;0.0;0.0;0.5;1.75;1.0;0.25;0.25;-0.168457;0.032227;0.995117;0.49;0.84;0.07;608.0;-0.209159;-0.150777;0.0;1.0;0.75;0.5;1.0;0.75;0.0;0.25;0.0;0.0;0.0;0.0;0.0;1.0;0.0;0.0;-0.200195;0.009766;0.992188;2.73;-0.28;0.56;60.0;-0.124739;-0.065217
2.56;6.5;7.75;5.0;8.75;4.0;8.75;0.0;4.5;0.0;0.25;0.0;0.5;1.5;1.0;0.25;0.0;-0.168945;0.033691;0.997559;0.35;1.19;0.14;579.0;-0.210663;-0.145961;0.0;1.0;0.75;0.75;1.0;0.75;0.0;0.25;0.0;0.25;0.0;0.0;0.0;1.0;0.0;0.0;-0.205078;0.019531;0.980957;3.29;0.35;0.56;65.0;-0.116334;-0.066925
2.57;6.25;7.25;5.0;8.25;4.0;8.75;0.0;4.75;0.0;0.0;0.0;0.75;1.5;1.0;0.0;0.0;-0.17041;0.031738;1.006348;0.07;1.61;0.28;567.0;-0.208855;-0.150156;0.0;1.25;0.75;1.0;1.0;0.75;0.0;0.25;0.0;0.0;0.0;0.0;0.0;1.0;0.0;0.0;-0.208496;0.030273;0.987305;3.57;0.56;0.49;68.0;-0.149875;-0.083011
2.58;6.25;6.75;4.75;8.5;3.5;8.5;0.25;4.5;0.0;0.0;0.0;0.5;1.5;1.0;0.25;0.0;-0.168945;0.035156;0.997559;-0.42;2.52;0.21;553.0;-0.206594;-0.147518;0.0;1.0;0.75;0.75;1.0;1.0;0.0;0.25;0.0;0.0;0.0;0.0;0.0;0.75;0.0;0.0;-0.214355;0.023438;0.993652;3.43;0.14;0.35;63.0;-0.153477;-0.09147
2.59;6.0;6.75;4.75;8.0;3.5;8.5;0.0;4.5;0.0;0.25;0.0;0.5;1.5;1.0;0.25;0.0;-0.161621;0.025391;1.000977;-0.77;2.52;0.14;543.0;-0.20451;-0.149852;0.0;1.25;0.5;0.75;1.0;1.25;0.0;0.25;0.0;0.0;0.0;0.0;0.0;1.0;0.0;0.0;-0.212891;0.024902;0.98584;3.29;-0.56;0.28;68.0;-0.138825;-0.101095
2.6;6.0;6.75;4.25;8.25;3.0;8.0;0.0;4.0;0.0;0.25;0.0;0.5;1.5;1.25;0.25;0.25;-0.167969;0.024414;0.996582;-1.19;2.59;0.07;523.0;-0.2045;-0.149252;0.0;1.25;0.75;1.25;1.0;1.5;0.0;0.5;0.0;0.0;0.0;0.0;0.0;0.75;0.0;0.0;-0.208008;0.022949;0.983398;3.01;-1.75;-0.07;82.0;-0.164128;-0.132
2.61;5.5;6.5;4.0;8.0;2.75;7.75;0.0;4.0;0.0;0.0;0.0;0.5;1.25;1.0;0.25;0.0;-0.170898;0.028809;1.003418;-1.26;2.52;-0.07;494.0;-0.209992;-0.154451;0.0;1.25;0.75;1.25;1.0;1.25;0.0;0.75;0.0;0.0;0.0;0.0;0.0;0.25;0.0;0.0;-0.208008;0.026367;0.990234;2.38;-2.8;-0.35;78.0;-0.190667;-0.158781
2.62;5.0;6.0;3.75;7.25;2.75;8.0;0.0;4.0;0.0;0.25;0.0;0.25;1.25;1.0;0.25;0.0;-0.17334;0.025391;0.994629;-1.47;2.31;-0.07;474.0;-0.203144;-0.156278;0.0;1.5;0.5;0.75;0.75;1.5;0.0;0.75;0.0;0.0;0.0;0.0;0.0;0.25;0.0;0.0;-0.210449;0.032715;0.982422;1.33;-3.43;-0.49;72.0;-0.188472;-0.177964
2.63;4.75;5.75;3.75;7.0;2.75;7.25;0.0;4.0;0.0;0.0;0.0;0.25;1.25;1.0;0.0;0.0;-0.172363;0.023926;0.991211;-1.4;2.03;-0.14;451.0;-0.207817;-0.156979;0.0;1.5;0.5;0.75;0.75;1.5;0.0;0.75;0.0;0.0;0.0;0.0;0.0;0.25;0.0;0.0;-0.208984;0.029297;0.979492;0.84;-3.22;-0.07;72.0;-0.188472;-0.177964
2.64;5.25;5.75;3.75;7.0;3.0;7.0;0.0;3.5;0.0;0.25;0.0;0.25;1.0;1.0;0.25;0.0;-0.171875;0.026367;0.995605;-1.47;1.47;-0.21;452.0;-0.208927;-0.14366;0.25;1.75;0.75;1.0;1.0;2.0;0.0;0.75;0.0;0.0;0.0;0.0;0.25;0.25;0.0;0.0;-0.20459;0.025391;0.982422;0.35;-2.87;0.21;95.0;-0.193408;-0.167386
2.65;5.0;5.25;3.75;7.0;2.75;7.25;0.0;3.5;0.0;0.25;0.0;0.25;1.0;0.75;0.25;0.25;-0.171875;0.019043;0.999512;-1.47;1.26;-0.35;443.0;-0.206862;-0.149521;0.25;1.75;0.75;1.25;1.0;2.0;0.0;0.75;0.0;0.0;0.0;0.0;0.25;0.25;0.0;0.0;-0.214844;0.023926;0.984863;0.07;-2.94;0.35;98.0;-0.196301;-0.169153
2.66;5.0;5.25;3.75;7.25;2.75;7.0;0.0;3.5;0.0;0.0;0.0;0.25;1.0;1.0;0.25;0.0;-0.165039;0.019043;0.999512;-1.33;0.98;-0.42;441.0;-0.209306;-0.148305;0.25;1.75;0.75;1.5;1.0;2.0;0.0;1.0;0.0;0.0;0.0;0.0;0.0;0.25;0.0;0.0;-0.208008;0.020508;0.985352;-0.14;-3.15;0.21;102.0;-0.199904;-0.173113
2.67;5.5;5.5;4.0;7.25;2.75;7.0;0.0;3.5;0.0;0.0;0.0;0.25;1.0;1.0;0.25;0.0;-0.17041;0.023926;0.999023;-0.91;1.12;-0.56;452.0;-0.213266;-0.143587;0.0;1.75;1.0;1.5;1.25;2.0;0.0;1.0;0.0;0.0;0.0;0.0;0.25;0.5;0.0;0.0;-0.206543;0.019531;0.979004;-0.21;-3.36;-0.35;110.0;-0.173686;-0.165488
2.68;5.25;5.5;3.75;7.0;2.75;7.25;0.0;3.5;0.0;0.0;0.0;0.25;1.0;1.0;0.0;0.0;-0.16748;0.028809;0.998047;-0.49;1.05;-0.56;444.0;-0.214796;-0.147512;0.25;1.75;1.0;1.75;1.25;2.25;0.0;1.0;0.0;0.0;0.0;0.0;0.25;0.5;0.0;0.0;-0.205078;0.027832;0.986328;-0.14;-3.36;0.21;119.0;-0.181472;-0.16315
2.69;5.0;5.25;3.75;7.0;2.75;7.0;0.0;3.5;0.0;0.25;0.0;0.5;1.0;0.75;0.0;0.25;-0.174805;0.03418;0.991211;-0.28;1.26;-0.07;440.0;-0.208511;-0.150079;0.25;2.25;1.25;1.75;1.5;2.5;0.0;1.0;0.0;0.0;0.0;0.0;0.0;0.75;0.0;0.0;-0.206543;0.019043;0.989746;-0.21;-3.29;0.21;133.0;-0.18623;-0.143646
2.7;4.75;5.25;3.5;7.25;2.75;7.0;0.0;3.5;0.0;0.0;0.0;0.5;1.0;0.75;0.0;0.25;-0.17041;0.028809;0.99707;-0.35;1.61;0.14;434.0;-0.210325;-0.155361;0.0;2.25;1.25;2.5;1.5;2.5;0.0;1.0;0.0;0.0;0.0;0.0;0.0;0.75;0.0;0.0;-0.212402;0.025879;0.98877;-0.0;-3.57;-0.07;139.0;-0.188365;-0.154023
2.71;4.75;5.0;3.5;7.0;2.75;7.0;0.0;3.5;0.0;0.0;0.0;0.75;1.0;1.0;0.0;0.25;-0.176758;0.027832;0.997559;-0.84;1.61;0.28;434.0;-0.202481;-0.153966;0.25;3.0;1.5;2.5;2.0;2.75;0.0;1.0;0.0;0.0;0.0;0.0;0.25;0.5;0.0;0.0;-0.204102;0.034668;0.982422;0.07;-3.43;0.35;162.0;-0.204665;-0.14884
2.72;4.5;5.0;3.25;6.75;2.75;6.5;0.0;3.5;0.0;0.0;0.0;0.5;1.0;0.75;0.0;0.0;-0.174316;0.033691;0.993164;-1.12;1.54;0.21;413.0;-0.209098;-0.155643;0.0;3.25;1.5;2.5;2.0;3.0;0.0;1.25;0.0;0.0;0.0;0.0;0.25;0.75;0.25;0.0;-0.204102;0.027344;0.986816;0.07;-3.15;0.77;174.0;-0.180646;-0.155774
2.73;4.5;4.75;3.5;6.5;2.5;5.75;0.0;3.25;0.0;0.25;0.0;0.25;1.0;0.75;0.0;0.25;-0.17041;0.021973;0.999023;-1.4;1.54;0.14;396.0;-0.209288;-0.147672;0.0;3.25;1.5;2.5;2.0;3.25;0.0;1.25;0.0;0.0;0.0;0.25;0.25;0.25;0.0;0.0;-0.20459;0.033203;0.987305;0.14;-2.73;0.91;172.0;-0.199438;-0.170352
2.74;4.25;4.75;3.5;6.5;2.25;5.75;0.0;3.0;0.0;0.0;0.0;0.25;1.0;1.0;0.0;0.0;-0.166504;0.023926;0.995117;-1.54;1.47;-0.07;384.0;-0.212422;-0.147508;0.25;3.0;1.75;2.75;2.25;3.25;0.0;1.25;0.0;0.0;0.0;0.25;0.25;0.25;0.0;0.0;-0.207031;0.028809;0.990234;0.21;-2.52;1.05;181.0;-0.20094;-0.158763
2.75;4.5;4.75;3.5;6.5;2.5;5.75;0.0;3.0;0.0;0.0;0.0;0.5;1.0;1.0;0.0;0.0;-0.166016;0.023438;0.998535;-1.68;1.19;-0.14;392.0;-0.210036;-0.145147;0.5;3.25;1.75;2.75;2.25;3.25;0.0;1.25;0.0;0.0;0.0;0.0;0.25;0.5;0.0;0.0;-0.205078;0.018066;0.986328;0.35;-2.38;1.05;186.0;-0.205627;-0.148494
2.76;4.75;4.25;3.5;6.5;2.5;6.0;0.0;3.25;0.25;0.0;0.0;0.5;1.0;1.0;0.0;0.25;-0.165527;0.030273;0.998535;-1.82;1.26;-0.14;402.0;-0.200085;-0.143485;0.75;3.5;1.5;2.75;2.25;3.5;0.0;1.25;0.0;0.0;0.0;0.0;0.25;0.25;0.0;0.0;-0.200195;0.030273;0.986816;0.49;-2.17;1.05;189.0;-0.217177;-0.154674
2.77;4.25;4.5;3.25;6.5;2.5;5.5;0.0;3.0;0.25;0.0;0.0;0.5;1.0;1.0;0.25;0.0;-0.16748;0.013184;0.993652;-2.03;1.54;-0.28;387.0;-0.19841;-0.143391;0.75;3.5;1.75;2.75;2.0;3.5;0.0;1.25;0.0;0.0;0.0;0.0;0.25;0.25;0.0;0.0;-0.203125;0.026855;0.98291;0.42;-1.75;1.05;189.0;-0.219413;-0.154166
2.78;4.25;4.5;3.25;6.5;2.75;5.5;0.0;3.0;0.0;0.25;0.0;0.5;0.75;1.25;0.0;0.0;-0.168945;0.031738;0.998047;-2.24;1.05;-0.07;387.0;-0.201887;-0.140731;0.75;3.25;1.5;2.75;1.75;3.5;0.0;1.5;0.0;0.0;0.0;0.0;0.25;0.5;0.0;0.0;-0.203125;0.023926;0.987305;0.42;-1.4;1.05;187.0;-0.205067;-0.1626
2.79;4.5;4.25;3.25;6.5;2.75;5.5;0.0;2.75;0.0;0.0;0.0;0.5;0.75;1.25;0.0;0.0;-0.169922;0.03125;1.000488;-2.31;1.12;-0.07;380.0;-0.207348;-0.137484;0.75;3.5;1.5;3.25;2.0;3.5;0.0;1.5;0.0;0.0;0.0;0.0;0.0;0.25;0.0;0.0;-0.20166;0.023438;0.992676;0.49;-1.47;1.05;194.0;-0.221071;-0.161549
2.8;4.25;3.75;3.5;6.5;2.5;5.25;0.0;2.75;0.0;0.0;0.0;0.25;0.75;1.0;0.25;0.25;-0.17334;0.026855;0.995117;-2.45;1.33;0.07;368.0;-0.204668;-0.138659;1.0;3.5;1.75;3.75;2.0;4.0;0.0;1.5;0.0;0.0;0.0;0.0;0.0;0.25;0.0;0.0;-0.200195;0.029297;0.983398;0.42;-2.1;1.19;212.0;-0.224093;-0.159247
2.81;4.25;3.75;3.5;6.0;2.5;5.5;0.0;2.5;0.0;0.0;0.0;0.25;0.75;1.0;0.0;0.25;-0.174316;0.029785;0.997559;-2.45;1.4;0.14;358.0;-0.209979;-0.13584;1.0;3.75;2.0;3.75;2.25;4.25;0.0;1.5;0.0;0.25;0.0;0.0;0.25;0.25;0.0;0.0;-0.208008;0.025391;0.980957;0.28;-2.38;1.19;229.0;-0.214705;-0.154931
2.82;4.25;3.75;3.5;5.5;2.5;5.5;0.25;2.5;0.0;0.25;0.0;0.25;0.75;1.0;0.25;0.25;-0.174316;0.025391;0.991699;-2.45;1.54;0.14;362.0;-0.196969;-0.12807;1.25;4.0;2.0;3.75;2.25;4.75;0.0;1.75;0.0;0.0;0.0;0.0;0.25;0.5;0.25;0.0;-0.212402;0.025391;0.979004;0.07;-2.38;1.26;246.0;-0.206106;-0.157415
2.83;4.25;3.5;3.25;5.5;2.5;4.75;0.0;2.25;0.0;0.25;0.0;0.25;0.75;1.0;0.25;0.0;-0.166992;0.026367;0.998047;-2.66;1.75;0.14;338.0;-0.203993;-0.126378;1.0;5.0;2.0;4.0;2.5;5.0;0.0;2.0;0.0;0.0;0.0;0.0;0.25;0.25;0.0;0.0;-0.200195;0.027832;0.975098;-0.0;-2.24;1.4;262.0;-0.220615;-0.167739
2.84;4.25;3.25;3.25;5.25;2.5;4.75;0.0;2.25;0.0;0.0;0.0;0.25;0.75;1.0;0.0;0.0;-0.169434;0.026855;1.002441;-3.01;2.1;0.07;327.0;-0.21082;-0.12721;1.25;5.0;2.0;4.25;2.75;5.25;0.0;2.25;0.0;0.0;0.0;0.0;0.5;0.25;0.0;0.0;-0.19873;0.030273;0.993652;-0.21;-1.68;1.54;280.0;-0.21505;-0.170026
2.85;4.25;3.0;3.25;5.0;2.5;4.75;0.0;2.25;0.25;0.25;0.0;0.25;0.5;1.0;0.25;0.0;-0.171387;0.023438;0.993652;-3.15;2.24;0.0;328.0;-0.196859;-0.11719;1.5;5.25;2.5;4.75;2.75;5.75;0.0;2.5;0.0;0.0;0.0;0.0;0.25;0.25;0.0;0.0;-0.202148;0.029785;0.988281;-0.28;-1.54;1.54;305.0;-0.219871;-0.166083
2.86;3.25;2.75;3.0;4.5;2.5;4.0;0.0;2.0;0.0;0.25;0.0;0.25;0.5;1.0;0.0;0.25;-0.166504;0.021484;0.99707;-3.43;2.59;0.0;287.0;-0.197039;-0.123028;1.5;5.5;2.5;5.0;2.75;6.25;0.0;2.75;0.0;0.0;0.0;0.25;0.25;0.5;0.0;0.0;-0.205078;0.023438;0.987305;-0.35;-1.61;1.61;326.0;-0.209832;-0.170152
2.87;3.0;2.25;3.0;3.5;2.25;3.75;0.0;2.0;0.25;0.0;0.0;0.25;0.5;2.25;0.0;0.25;-0.167969;0.022461;1.000977;-3.57;2.73;-0.28;274.0;-0.160926;-0.104553;1.625;5.5;2.5;5.0;3.0;6.25;0.0;2.875;0.0;0.0;0.0;0.25;0.25;0.625;0.0;0.0;-0.2041015;0.025879;0.9863284999999999;-0.27999999999999997;-1.715;1.61;333.5;-0.206568;-0.16713
2.88;2.75;1.75;2.25;3.0;2.25;3.5;0.0;1.75;0.25;0.0;0.0;0.25;0.5;2.25;0.0;0.25;-0.171875;0.02002;0.99707;-3.43;3.57;-0.28;243.0;-0.148414;-0.103109;1.75;5.5;2.5;5.0;3.25;6.25;0.0;3.0;0.0;0.0;0.0;0.25;0.25;0.75;0.0;0.0;-0.203125;0.02832;0.985352;-0.21;-1.82;1.61;341.0;-0.203304;-0.164108
2.89;2.25;1.25;2.25;2.75;2.25;3.5;0.0;1.5;0.25;0.25;0.0;0.25;0.5;2.25;0.0;0.25;-0.174805;0.021973;1.001465;-3.29;3.99;-0.35;228.0;-0.132002;-0.09803;1.75;5.5;2.5;5.5;3.75;6.75;0.0;3.0;0.0;0.0;0.0;0.25;0.25;0.5;0.25;0.0;-0.199219;0.02832;0.983398;-0.0;-1.89;1.68;360.0;-0.201668;-0.164713
2.9;1.5;0.75;1.75;2.0;1.75;2.75;0.0;1.25;0.25;0.25;0.0;0.25;0.25;3.25;0.25;0.25;-0.180176;0.023926;1.0;-3.15;5.32;-0.63;191.0;-0.071723;-0.077696;2.25;5.75;2.75;5.75;3.75;6.75;0.0;3.5;0.0;0.0;0.0;0.0;0.25;0.75;0.0;0.0;-0.198242;0.022461;0.985352;0.42;-2.17;1.82;379.0;-0.207111;-0.161595
2.91;1.25;0.25;1.5;1.25;1.5;2.0;0.25;1.0;0.25;0.0;0.0;0.25;0.25;3.75;0.25;0.25;-0.170898;0.025391;1.002441;-3.22;6.65;-0.77;160.0;-0.022941;-0.043626;2.5;6.25;3.0;5.75;4.0;8.25;0.0;3.5;0.0;0.0;0.0;0.0;0.5;0.75;0.0;0.0;-0.195312;0.033691;0.986328;0.49;-2.1;1.68;413.0;-0.20633;-0.162847
2.92;1.0;0.25;1.25;0.75;1.0;1.0;0.0;1.0;0.25;0.0;0.25;0.25;0.25;4.5;0.25;0.25;-0.174805;0.02002;1.004883;-3.29;7.91;-1.05;136.0;0.042124;-0.025268;2.25;6.0;3.0;5.5;4.5;8.75;0.0;4.25;0.0;0.25;0.0;0.0;0.75;1.0;0.0;0.0;-0.202148;0.03125;0.991211;0.77;-2.24;1.61;437.0;-0.187651;-0.167458
2.93;0.25;0.25;0.75;0.25;0.75;0.25;0.0;0.5;0.25;0.25;0.25;0.25;0.25;5.5;0.25;0.25;-0.178711;0.021973;1.004883;-2.94;9.52;-1.19;108.0;0.175168;0.035087;1.75;6.25;3.0;5.75;4.5;8.75;0.0;4.25;0.0;0.25;0.0;0.25;0.75;1.0;0.0;0.0;-0.20459;0.026855;0.987793;0.77;-2.31;1.54;439.0;-0.184268;-0.172239
2.94;0.25;0.25;0.25;0.25;0.25;0.25;0.0;0.25;0.25;0.25;0.25;0.25;0.0;6.5;0.25;0.25;-0.177246;0.020996;1.008301;-2.66;11.27;-1.33;98.0;0.251342;0.073553;2.25;7.5;3.25;6.0;4.75;9.25;0.0;4.5;0.0;0.0;0.0;0.0;0.75;1.0;0.0;0.0;-0.204102;0.029785;0.991699;0.77;-2.17;1.54;471.0;-0.196969;-0.169739
2.95;0.25;0.25;0.25;0.25;0.25;0.25;0.0;0.25;0.5;0.5;0.25;0.25;0.25;7.0;0.0;0.25;-0.185547;0.012207;1.008301;-2.59;13.65;-1.96;109.0;0.252234;0.076868;2.5;7.25;3.25;6.5;4.75;9.5;0.0;4.5;0.0;0.0;0.25;0.0;0.75;1.25;0.0;0.0;-0.203125;0.030273;0.99707;0.98;-1.89;1.68;485.0;-0.192468;-0.16747
2.96;0.25;0.0;0.25;0.25;0.0;0.0;0.0;0.0;0.75;0.5;0.25;0.0;0.25;8.0;0.25;0.25;-0.186035;0.021484;1.003906;-2.73;17.780001;-3.78;109.0;0.318308;0.131085;2.0;7.25;3.25;7.0;4.5;9.25;0.0;4.75;0.0;0.0;0.0;0.25;0.75;0.25;0.25;0.0;-0.200684;0.034668;0.991699;0.98;-1.33;1.61;478.0;-0.198514;-0.181478
2.97;0.25;0.0;0.25;0.25;0.25;0.25;0.0;0.0;0.75;0.25;0.25;0.0;0.0;8.75;0.25;0.25;-0.208984;0.043457;1.022461;-3.36;22.26;-4.97;117.0;0.305467;0.135374;2.0;8.0;3.25;6.75;4.75;9.0;0.0;5.0;0.0;0.0;0.25;0.25;1.25;0.25;0.25;0.0;-0.198242;0.036621;0.987305;0.98;-1.12;1.54;494.0;-0.193611;-0.183021
2.98;0.25;0.25;0.25;0.0;0.0;0.0;0.0;0.0;0.75;0.5;0.25;0.0;0.25;8.5;0.0;0.0;-0.200195;0.035645;1.030273;-4.83;26.389999;-5.32;109.0;0.319107;0.147669;2.25;8.0;3.25;6.75;4.75;9.5;0.0;5.0;0.0;0.25;0.0;0.25;1.5;0.75;0.25;0.0;-0.201172;0.033691;0.993652;0.84;-0.91;1.33;510.0;-0.187025;-0.179453
2.99;0.25;0.0;0.0;0.0;0.0;0.25;0.0;0.0;0.75;0.25;0.25;0.0;0.0;9.0;0.0;0.0;-0.200684;0.05127;1.007324;-5.25;30.73;-7.0;106.0;0.349812;0.162144;2.25;7.25;3.25;6.5;4.75;9.0;0.0;5.0;0.25;0.25;0.0;0.25;1.5;1.0;0.25;0.25;-0.202637;0.037109;0.984863;0.7;-0.77;1.19;500.0;-0.175798;-0.173767
3.0;0.0;0.0;0.0;0.0;0.0;0.25;0.0;0.0;0.75;0.0;0.0;0.25;0.0;9.25;0.25;0.25;-0.224609;0.128906;0.969238;-2.03;38.920002;-15.54;107.0;0.375171;0.148407;2.25;5.75;3.25;6.0;4.75;9.5;0.0;5.25;0.0;0.25;0.0;0.25;1.0;1.0;0.25;0.25;-0.201172;0.030273;0.991699;0.7;-0.49;0.98;481.0;-0.171722;-0.176993
3.01;0.25;0.0;0.25;0.0;0.0;0.25;0.0;0.0;0.75;0.25;0.0;0.0;0.25;9.5;0.25;0.0;-0.209961;0.117188;0.984863;-0.14;39.549999;-18.41;116.0;0.336974;0.148993;2.25;5.75;3.25;6.0;4.5;9.5;0.0;5.25;0.0;0.25;0.25;0.5;1.75;1.25;0.25;0.25;-0.201172;0.031738;0.995117;0.91;-0.28;0.77;493.0;-0.159841;-0.181187
3.02;0.25;0.0;0.0;0.0;0.25;0.0;0.0;0.0;0.5;0.25;0.0;0.0;0.0;9.25;0.0;0.0;-0.224121;0.150391;0.979492;-0.0;34.93;-23.450001;102.0;0.358709;0.176141;2.0;5.75;3.0;5.75;4.5;9.5;0.0;5.5;0.0;0.0;0.25;0.25;2.0;1.25;0.0;0.25;-0.202637;0.036621;0.990723;1.05;0.0;0.7;482.0;-0.162004;-0.188865
3.03;0.25;0.0;0.0;0.0;0.0;0.0;0.0;0.0;0.5;0.25;0.0;0.0;0.0;9.5;0.0;0.0;-0.249023;0.116699;0.972656;1.54;26.530001;-33.529999;101.0;0.374338;0.17959;1.75;6.0;3.0;6.0;4.5;9.0;0.0;5.5;0.0;0.0;0.25;0.25;2.25;1.5;0.25;0.25;-0.204102;0.030762;0.991699;0.98;0.21;0.63;487.0;-0.155113;-0.188617
3.04;0.25;0.0;0.0;0.0;0.0;0.0;0.0;0.0;0.75;0.25;0.0;0.0;0.0;9.5;0.25;0.25;-0.201172;0.038086;0.92627;3.22;19.74;-38.009998;109.0;0.371134;0.169096;1.75;6.25;2.5;5.75;4.5;9.0;0.0;5.5;0.0;0.25;0.25;0.25;2.25;1.5;0.25;0.25;-0.199707;0.035645;0.981445;0.84;0.14;0.56;483.0;-0.151932;-0.1903
3.05;0.0;0.0;0.0;0.0;0.0;0.0;0.0;0.0;0.75;0.0;0.0;0.0;0.0;9.0;0.25;0.25;-0.217285;0.054688;0.937988;5.6;12.53;-41.23;99.0;0.39513;0.173436;1.5;6.0;2.5;5.75;4.25;9.0;0.0;5.25;0.0;0.25;0.25;0.5;2.0;1.5;0.25;0.25;-0.20166;0.039062;0.986328;0.84;0.07;0.49;471.0;-0.149811;-0.19133
3.06;0.0;0.0;0.25;0.0;0.0;0.0;0.0;0.0;0.75;0.0;0.0;0.0;0.0;9.0;0.0;0.25;-0.219727;0.088867;0.931152;8.82;5.39;-44.310001;99.0;0.374346;0.178249;1.5;5.75;2.25;5.75;4.0;9.0;0.0;5.5;0.0;0.25;0.25;0.75;2.25;2.0;0.25;0.0;-0.204102;0.035645;0.986816;0.77;-0.14;0.49;475.0;-0.138936;-0.194604
3.07;0.0;0.0;0.25;0.0;0.25;0.25;0.0;0.0;1.0;0.0;0.0;0.0;0.0;8.75;0.0;0.0;-0.240234;-0.021484;0.924316;11.83;-1.82;-46.619999;105.0;0.340335;0.172327;1.5;5.5;2.25;5.5;4.0;9.0;0.0;5.5;0.0;0.25;0.0;1.0;2.5;2.25;0.5;0.25;-0.204102;0.034668;0.990234;0.7;0.0;0.35;478.0;-0.127617;-0.194842
3.08;0.0;0.0;0.0;0.0;0.0;0.25;0.0;0.0;0.75;0.25;0.0;0.0;0.0;8.5;0.0;0.0;-0.223633;-0.029785;0.908203;14.42;-9.52;-47.18;95.0;0.372761;0.171287;1.25;5.25;2.25;5.5;3.75;9.0;0.0;5.5;0.25;0.25;0.0;0.75;2.5;2.25;0.5;0.25;-0.208008;0.035645;0.993652;0.63;0.21;0.42;471.0;-0.123569;-0.194274
3.09;0.0;0.0;0.0;0.0;0.0;0.0;0.0;0.0;0.75;0.25;0.0;0.25;0.0;9.25;0.25;0.0;-0.199707;-0.033691;0.939453;14.56;-16.799999;-45.639999;105.0;0.386686;0.164559;1.25;5.25;2.0;5.75;3.75;9.0;0.0;5.5;0.0;0.25;0.25;0.75;2.5;2.25;0.25;0.25;-0.202637;0.035645;0.992676;0.35;0.28;0.28;467.0;-0.127723;-0.200118
3.1;0.0;0.0;0.0;0.0;0.0;0.0;0.0;0.0;0.75;0.25;0.0;0.0;0.0;9.0;0.25;0.0;-0.234375;-0.075684;0.977539;8.82;-27.16;-38.709999;100.0;0.391276;0.17755;1.0;5.0;2.25;5.75;3.75;8.75;0.0;5.75;0.0;0.25;0.25;1.0;2.75;2.5;0.25;0.25;-0.202148;0.039062;0.990723;0.21;0.21;0.28;474.0;-0.118087;-0.201535
3.11;0.0;0.0;0.0;0.0;0.0;0.25;0.0;0.0;0.75;0.0;0.0;0.0;0.0;9.0;0.25;0.0;-0.202148;-0.15918;1.023438;5.25;-33.529999;-30.870001;100.0;0.379396;0.167385;1.0;4.5;2.0;5.5;3.75;9.0;0.0;5.75;0.0;0.25;0.25;1.0;2.75;2.75;0.25;0.25;-0.204102;0.035156;0.986816;0.14;0.21;0.42;468.0;-0.110407;-0.202235
3.12;0.0;0.0;0.25;0.0;0.0;0.0;0.0;0.0;0.75;0.25;0.0;0.25;0.0;8.75;0.25;0.0;-0.217773;-0.211914;1.016602;2.8;-35.77;-18.9;104.0;0.366283;0.161741;0.75;4.25;2.0;5.5;3.75;9.0;0.0;5.75;0.0;0.0;0.25;1.0;3.0;2.75;0.5;0.25;-0.20459;0.036133;0.991211;0.07;0.28;0.35;465.0;-0.104498;-0.206524
3.13;0.0;0.0;0.25;0.0;0.0;0.0;0.0;0.0;0.75;0.0;0.0;0.25;0.0;8.25;0.25;0.0;-0.191406;-0.049805;1.020996;0.91;-34.580002;-3.08;96.0;0.367735;0.163854;1.0;4.25;2.0;5.25;3.25;8.5;0.0;5.5;0.25;0.0;0.25;0.75;3.0;3.25;0.5;0.5;-0.202148;0.035645;0.98877;-0.14;0.35;0.35;455.0;-0.097457;-0.197507
3.14;0.0;0.0;0.25;0.0;0.25;0.0;0.0;0.0;1.5;0.0;0.0;0.0;0.0;8.25;0.25;0.0;-0.158691;0.010742;1.061523;5.04;-26.67;2.31;107.0;0.347066;0.184474;1.0;3.75;2.0;5.0;3.25;8.5;0.0;5.5;0.25;0.0;0.25;1.0;2.75;3.75;0.75;0.5;-0.205078;0.036621;0.994141;-0.42;0.7;0.35;455.0;-0.083737;-0.192375
3.15;0.0;0.0;0.25;0.0;0.25;0.0;0.0;0.25;1.25;0.25;0.0;0.0;0.0;8.0;0.25;0.25;-0.188965;-0.002441;0.999512;4.27;-22.469999;4.83;110.0;0.332372;0.1499;0.75;3.5;1.75;5.0;3.25;8.5;0.0;5.5;0.25;0.0;0.25;1.0;2.75;3.75;0.75;0.5;-0.203613;0.033203;0.989258;-0.49;0.63;0.35;447.0;-0.078598;-0.196351
3.16;0.0;0.0;0.25;0.25;0.25;0.25;0.0;0.25;1.0;0.25;0.0;0.25;0.0;7.25;0.25;0.0;-0.192383;0.021973;1.014648;2.03;-16.66;2.94;106.0;0.294836;0.115859;0.5;3.5;2.0;5.0;3.0;8.5;0.0;5.5;0.25;0.0;0.25;1.0;2.75;4.0;0.75;0.5;-0.203613;0.036621;0.977539;-0.7;0.7;0.28;447.0;-0.074951;-0.19612
3.17;0.25;0.0;0.25;0.25;0.5;0.25;0.0;0.25;0.75;0.25;0.0;0.0;0.0;6.75;0.0;0.0;-0.17627;0.024902;1.003418;1.54;-13.51;2.03;98.0;0.257008;0.123174;0.5;3.25;1.75;4.75;2.75;8.5;0.0;5.5;0.25;0.0;0.25;0.75;2.75;4.25;0.5;0.75;-0.201172;0.039062;0.986328;-0.7;0.63;0.28;433.0;-0.070778;-0.198382
3.18;0.25;0.0;0.5;0.25;0.75;0.25;0.0;0.25;0.75;0.0;0.0;0.0;0.0;6.5;0.25;0.25;-0.189941;0.020508;1.005371;0.7;-10.92;1.33;103.0;0.233106;0.108834;0.75;3.25;1.75;4.5;2.75;8.25;0.0;5.5;0.25;0.0;0.25;1.0;3.0;4.5;0.5;0.5;-0.20459;0.044434;0.991211;-0.77;0.91;0.21;436.0;-0.066635;-0.195368
3.19;0.5;0.0;0.75;0.5;1.0;0.5;0.0;0.25;0.5;0.25;0.25;0.25;0.0;6.0;0.25;0.25;-0.19043;0.026367;1.020508;0.35;-8.89;0.56;119.0;0.164892;0.065119;0.25;2.25;1.5;4.25;2.75;7.75;0.0;5.5;0.25;0.0;0.25;1.0;3.0;5.0;0.5;0.5;-0.207031;0.032227;0.994629;-0.7;1.05;0.14;413.0;-0.043781;-0.196826
3.2;0.75;0.0;0.75;0.25;1.25;0.5;0.0;0.5;0.5;0.25;0.0;0.25;0.0;6.0;0.25;0.25;-0.177246;0.012207;1.013672;0.49;-5.32;0.35;123.0;0.148339;0.061843;0.25;2.5;1.5;3.75;2.75;7.25;0.0;5.5;0.25;0.0;0.25;1.0;3.0;5.0;0.5;0.25;-0.209961;0.034668;0.986328;-0.63;1.26;0.21;402.0;-0.042365;-0.194661
3.21;0.75;0.0;0.75;0.25;1.0;0.75;0.25;0.5;0.5;0.25;0.0;0.0;0.0;5.5;0.25;0.0;-0.178223;0.005859;0.996582;0.63;-4.2;0.56;118.0;0.130828;0.06863;0.25;2.25;1.5;3.75;2.5;7.0;0.0;5.5;0.25;0.25;0.25;1.0;2.75;5.5;0.75;0.25;-0.208496;0.037598;0.990723;-0.49;1.12;0.21;401.0;-0.029346;-0.187669
3.22;0.75;0.25;1.0;0.5;1.25;0.25;0.0;0.75;0.5;0.25;0.0;0.25;0.25;4.75;0.25;0.0;-0.17041;0.035645;0.993652;1.33;-2.03;0.28;122.0;0.090055;0.026835;0.0;2.25;1.5;3.5;2.5;7.25;0.0;5.5;0.25;0.25;0.5;1.25;2.5;5.75;0.5;0.25;-0.205566;0.041016;0.987305;-0.28;0.98;0.35;401.0;-0.023902;-0.187404
3.23;0.75;0.25;1.0;0.75;1.25;0.5;0.0;0.75;0.25;0.0;0.0;0.0;0.25;4.0;0.25;0.25;-0.17627;0.011719;1.0;1.33;-1.12;0.98;113.0;0.045261;-0.002026;0.0;2.0;1.5;3.25;2.5;7.25;0.0;5.5;0.25;0.25;0.25;1.25;3.0;5.75;0.5;0.25;-0.210449;0.031738;0.987793;-0.07;0.91;0.42;398.0;-0.018933;-0.191018
3.24;0.75;0.25;1.25;1.0;1.25;1.0;0.0;0.75;0.25;0.0;0.0;0.0;0.25;4.0;0.25;0.25;-0.180664;0.019531;0.996094;1.19;-0.56;0.77;125.0;0.020298;-0.018034;0.0;1.75;1.5;3.25;2.5;7.0;0.0;5.5;0.25;0.25;0.25;1.25;3.0;5.75;0.75;0.25;-0.208496;0.041016;0.984863;-0.0;0.56;0.49;395.0;-0.012298;-0.189771
3.25;0.75;0.25;1.0;1.0;1.0;0.75;0.0;0.75;0.25;0.25;0.0;0.25;0.25;4.0;0.25;0.25;-0.202148;0.043457;0.998535;1.33;-0.7;0.56;122.0;0.044846;-0.021115;0.25;2.25;1.5;3.5;2.5;7.0;0.0;5.5;0.0;0.25;0.25;1.0;3.0;5.75;1.0;0.25;-0.205566;0.035156;0.990234;0.14;0.42;0.42;402.0;-0.023134;-0.190244
3.26;0.75;0.25;1.25;1.0;1.0;0.75;0.0;0.75;0.25;0.25;0.0;0.25;0.25;3.75;0.25;0.0;-0.17627;0.019043;0.995605;1.19;-0.49;0.98;121.0;0.026102;-0.018566;0.25;1.75;1.5;3.0;2.5;7.0;0.0;5.5;0.0;0.0;0.0;1.25;3.0;6.0;1.0;0.5;-0.208008;0.038574;0.980957;0.21;0.07;0.42;392.0;-0.012042;-0.191463
3.27;0.75;0.25;1.25;1.0;1.25;0.75;0.0;0.75;0.0;0.25;0.0;0.0;0.25;3.75;0.25;0.0;-0.17334;0.015137;0.995605;1.19;-0.35;0.63;117.0;0.010774;-0.01864;0.125;1.75;1.375;2.875;2.5;7.125;0.0;5.5;0.125;0.0;0.125;1.25;3.0;6.125;1.0;0.5;-0.2104495;0.040283;0.986328;0.245;-0.07;0.35;393.5;-0.0058235000000000006;-0.190336
3.28;0.75;0.25;1.25;1.0;1.25;1.0;0.0;0.75;0.0;0.0;0.0;0.0;0.25;3.75;0.25;0.0;-0.176758;0.019043;1.000488;0.98;-0.21;0.91;118.0;0.001101;-0.027064;0.0;1.75;1.25;2.75;2.5;7.25;0.0;5.5;0.25;0.0;0.25;1.25;3.0;6.25;1.0;0.5;-0.212891;0.041992;0.991699;0.28;-0.21;0.28;395.0;0.000395;-0.189209
3.29;1.0;0.25;1.25;1.0;1.25;1.0;0.0;0.75;0.25;0.0;0.0;0.25;0.25;3.25;0.25;0.0;-0.178223;0.02002;0.994141;0.84;-0.35;0.63;122.0;-0.011541;-0.029211;0.25;1.75;1.25;3.0;2.5;7.25;0.0;5.25;0.25;0.0;0.0;1.25;3.0;6.0;1.0;0.25;-0.20459;0.021484;0.979492;-0.07;-0.42;0.28;390.0;-0.010078;-0.18741
3.3;1.0;0.5;1.25;1.25;1.25;1.25;0.0;1.0;0.25;0.0;0.0;0.25;0.25;3.75;0.25;0.0;-0.176758;0.013672;1.000488;0.63;-0.35;0.84;140.0;-0.013689;-0.045011;0.0;1.75;1.25;3.0;2.5;7.0;0.0;5.5;0.25;0.0;0.25;1.25;3.0;6.0;1.0;0.5;-0.209473;0.038574;0.989746;-0.14;-0.63;0.42;393.0;-0.003083;-0.191015
3.31;1.0;0.25;1.25;1.25;1.25;1.25;0.0;1.0;0.25;0.0;0.25;0.0;0.25;3.75;0.0;0.0;-0.180176;0.011719;0.997559;0.42;-0.49;0.63;134.0;-0.014778;-0.038068;0.0;2.25;1.25;2.75;2.5;7.0;0.0;5.5;0.25;0.0;0.25;1.25;3.5;6.0;1.0;0.5;-0.210449;0.041016;0.990723;-0.07;-0.42;0.42;400.0;-0.004129;-0.193637
3.32;1.0;0.25;1.25;1.0;1.25;1.25;0.0;1.0;0.25;0.25;0.0;0.0;0.25;3.75;0.0;0.0;-0.180664;0.021484;0.992188;0.21;-0.42;0.63;131.0;-0.00826;-0.029891;0.25;2.0;1.25;3.25;2.5;7.25;0.0;5.5;0.25;0.0;0.25;1.5;3.5;6.0;1.0;0.5;-0.205566;0.036621;0.986816;-0.14;-0.49;0.42;412.0;-0.008057;-0.193465
3.33;1.0;0.5;1.25;1.25;1.25;1.75;0.0;1.0;0.0;0.0;0.0;0.25;0.25;4.0;0.0;0.0;-0.177734;0.016602;0.99707;0.07;-0.42;0.63;141.0;-0.027888;-0.058266;0.25;2.0;1.25;3.0;2.5;7.0;0.0;5.5;0.25;0.0;0.25;1.5;3.5;6.0;1.0;0.5;-0.20752;0.040039;0.990723;-0.21;-0.35;0.35;406.0;-0.004937;-0.192651
3.34;1.0;0.25;1.25;1.25;1.0;1.75;0.0;1.0;0.0;0.0;0.0;0.25;0.25;4.0;0.25;0.25;-0.182617;0.020996;0.996582;0.07;-0.28;0.7;140.0;-0.005821;-0.06207;0.25;2.0;1.25;2.875;2.375;7.0;0.0;5.5;0.125;0.0;0.25;1.5;3.5;6.0;0.875;0.5;-0.208252;0.038085999999999995;0.9885255;-0.245;-0.315;0.35;399.5;-0.006092500000000001;-0.196021
3.35;1.5;0.25;1.25;1.25;1.0;1.75;0.0;1.0;0.25;0.0;0.0;0.0;0.25;4.0;0.25;0.0;-0.178711;0.018066;0.990723;-0.07;-0.07;0.7;145.0;-0.022833;-0.039908;0.25;2.0;1.25;2.75;2.25;7.0;0.0;5.5;0.0;0.0;0.25;1.5;3.5;6.0;0.75;0.5;-0.208984;0.036133;0.986328;-0.28;-0.28;0.35;393.0;-0.007248;-0.199391
3.36;1.5;0.5;1.25;1.25;1.25;1.75;0.0;1.0;0.25;0.0;0.0;0.0;0.25;3.75;0.25;0.25;-0.172852;0.017578;0.993652;-0.35;-0.0;0.56;150.0;-0.034475;-0.046082;0.25;1.75;1.25;2.75;2.25;6.75;0.0;5.5;0.0;0.0;0.5;1.5;3.5;6.0;0.75;0.5;-0.206543;0.043945;0.98584;-0.35;-0.21;0.28;391.0;-0.001798;-0.198435
3.37;1.5;0.5;1.25;1.25;1.5;1.75;0.0;1.0;0.25;0.25;0.0;0.25;0.25;4.0;0.0;0.0;-0.177734;0.015137;0.997559;-0.35;0.14;0.56;156.0;-0.031952;-0.040109;0.25;2.0;0.75;2.75;2.0;6.75;0.0;5.5;0.0;0.0;0.75;1.75;3.5;6.25;0.75;0.5;-0.211914;0.040527;0.991211;-0.35;-0.14;0.28;392.0;0.006237;-0.202572
3.38;1.25;0.5;1.5;1.5;1.5;1.75;0.0;1.0;0.25;0.0;0.0;0.25;0.25;4.25;0.0;0.0;-0.180664;0.018066;0.996094;-0.42;0.21;0.56;159.0;-0.033024;-0.042439;0.25;1.75;1.0;2.5;2.0;6.75;0.0;5.5;0.0;0.25;0.25;1.75;3.0;6.25;1.0;0.75;-0.211426;0.040039;0.988281;-0.42;0.07;0.42;387.0;0.00994;-0.19603
3.39;1.0;0.5;1.5;1.25;1.5;1.75;0.0;1.0;0.25;0.0;0.0;0.25;0.25;4.25;0.25;0.25;-0.17627;0.023926;0.99707;-0.42;0.35;0.56;158.0;-0.009844;-0.044953;0.25;1.75;1.25;2.25;1.75;6.75;0.0;5.25;0.25;0.25;0.5;1.5;3.0;6.25;1.0;0.75;-0.212402;0.037598;0.986328;-0.42;0.07;0.35;383.0;0.013798;-0.187685
3.4;1.5;0.25;1.25;1.25;1.25;1.75;0.0;1.0;0.25;0.0;0.0;0.0;0.25;4.25;0.25;0.25;-0.178223;0.01709;0.992676;-0.56;0.49;0.49;152.0;-0.014465;-0.03725;0.25;1.25;1.25;2.5;2.0;6.25;0.0;5.25;0.0;0.25;0.25;1.5;3.5;6.75;1.0;0.75;-0.205566;0.039551;0.994141;-0.42;0.07;0.49;381.0;0.021539;-0.188784
3.41;1.25;0.25;1.0;1.25;1.25;1.75;0.0;1.0;0.25;0.0;0.0;0.0;0.25;4.5;0.0;0.25;-0.180176;0.013672;0.995117;-0.49;0.49;0.56;145.0;-0.003144;-0.03843;0.25;1.25;1.0;2.5;2.0;6.25;0.0;5.5;0.0;0.25;0.0;1.5;3.0;6.75;1.0;0.75;-0.208496;0.037598;0.989258;-0.35;0.21;0.35;375.0;0.020078;-0.19043
3.42;1.0;0.5;1.0;1.25;1.25;1.5;0.0;1.0;0.25;0.0;0.0;0.0;0.5;4.75;0.25;0.25;-0.176758;0.016113;0.999023;-0.49;0.49;0.56;150.0;0.017449;-0.042846;0.25;1.5;1.0;2.25;2.0;6.25;0.0;5.25;0.0;0.0;0.25;1.5;3.0;6.75;1.0;0.75;-0.210449;0.042969;0.986816;-0.56;0.21;0.28;370.0;0.019858;-0.189096
3.43;1.25;0.5;1.25;1.25;1.25;1.75;0.0;1.0;0.25;0.0;0.0;0.0;0.5;5.0;0.25;0.0;-0.178711;0.019531;1.0;-0.56;0.35;0.56;159.0;0.003979;-0.036192;0.25;1.75;0.75;2.25;2.0;6.5;0.0;5.0;0.0;0.0;0.25;1.25;3.0;6.75;1.0;0.75;-0.213379;0.037598;0.984863;-0.56;0.0;0.35;365.0;0.016712;-0.188799
3.44;1.25;0.5;1.25;1.5;1.5;2.0;0.0;1.0;0.25;0.0;0.25;0.25;0.25;5.0;0.25;0.0;-0.182129;0.018555;0.995605;-0.63;0.28;0.56;172.0;-0.001222;-0.04173;0.25;1.5;0.75;2.25;1.75;6.25;0.0;5.25;0.25;0.0;0.5;1.25;3.0;7.5;1.25;0.75;-0.210938;0.035645;0.988281;-0.56;-0.07;0.35;377.0;0.035891;-0.179999
3.45;1.0;0.5;1.5;1.25;1.75;2.0;0.0;1.25;0.25;0.25;0.0;0.25;0.5;5.0;0.25;0.25;-0.178223;0.015625;0.995605;-0.42;0.21;0.56;180.0;0.008476;-0.050088;0.25;1.5;1.0;2.0;1.75;6.25;0.0;5.25;0.25;0.25;0.5;1.25;3.0;7.5;1.0;0.5;-0.209961;0.04541;0.986328;-0.7;0.14;0.35;376.0;0.033459;-0.175831
3.46;1.0;0.5;1.25;1.5;1.0;2.0;0.0;1.25;0.5;0.0;0.0;0.25;0.25;5.0;0.25;0.25;-0.178711;0.021973;0.996094;-0.56;-0.0;0.63;169.0;0.014376;-0.050956;0.25;1.5;0.75;2.0;1.5;6.25;0.0;5.0;0.0;0.25;0.5;1.25;3.0;7.5;1.0;0.5;-0.212402;0.036621;0.978516;-0.63;-0.07;0.35;362.0;0.035618;-0.181995
3.47;0.75;0.5;1.5;1.25;1.25;2.0;0.0;1.25;0.25;0.0;0.0;0.25;0.25;5.25;0.0;0.25;-0.179688;0.020996;0.994141;-0.35;-0.0;0.56;165.0;0.012838;-0.049198;0.0;1.5;1.0;2.25;1.5;6.25;0.0;5.0;0.0;0.25;0.25;1.25;3.0;7.75;1.0;0.75;-0.211426;0.038086;0.983398;-0.7;0.0;0.42;366.0;0.036068;-0.1811
3.48;1.25;0.5;1.5;1.25;1.75;2.0;0.0;1.25;0.25;0.25;0.25;0.25;0.5;5.5;0.25;0.25;-0.179199;0.013184;0.991699;-0.49;-0.07;0.49;190.0;0.015489;-0.043158;0.0;1.75;0.75;1.75;1.5;6.0;0.0;4.75;0.0;0.0;0.25;0.75;3.0;7.75;1.0;0.75;-0.209961;0.039551;0.986816;-0.63;-0.07;0.35;344.0;0.038715;-0.179394
3.49;1.5;0.5;1.5;1.5;1.5;2.0;0.0;1.25;0.25;0.25;0.0;0.25;0.5;5.5;0.25;0.0;-0.177246;0.017578;0.999023;-0.56;-0.0;0.63;189.0;0.000751;-0.042204;0.0;1.5;0.75;1.75;1.5;6.0;0.0;5.0;0.0;0.25;0.25;1.25;3.0;8.0;1.5;0.75;-0.208984;0.04248;0.990234;-0.49;0.0;0.28;362.0;0.053813;-0.178034
3.5;1.25;0.75;1.5;1.5;1.5;2.0;0.0;1.25;0.25;0.0;0.0;0.25;0.5;5.75;0.25;0.25;-0.181152;0.021484;1.000488;-0.49;-0.0;0.56;189.0;0.005489;-0.047127;0.25;1.25;0.75;1.75;1.25;5.75;0.0;4.75;0.0;0.0;0.25;1.5;3.0;8.25;1.0;0.5;-0.20752;0.041504;0.987793;-0.42;0.07;0.28;347.0;0.052609;-0.176056
3.51;1.25;0.75;1.5;1.5;1.75;2.0;0.0;1.25;0.25;0.25;0.0;0.25;0.5;5.75;0.25;0.25;-0.181152;0.019531;0.995117;-0.49;-0.07;0.56;195.0;0.006902;-0.043845;0.0;1.25;0.5;1.75;1.25;6.0;0.0;4.75;0.25;0.0;0.0;1.5;3.0;8.25;1.0;0.25;-0.213379;0.033691;0.985352;-0.35;0.21;0.21;344.0;0.056763;-0.176816
3.52;1.5;1.0;1.5;1.5;1.75;1.75;0.25;1.25;0.25;0.25;0.25;0.0;0.5;5.75;0.25;0.25;-0.175293;0.015625;0.996094;-0.42;-0.14;0.49;202.0;-5.7e-05;-0.031431;0.0;1.25;0.5;1.75;1.25;5.5;0.0;4.5;0.25;0.0;0.0;1.5;3.0;8.25;1.0;0.5;-0.205078;0.039062;0.983887;-0.35;0.07;0.14;335.0;0.062668;-0.173042
3.53;1.5;1.0;1.5;1.5;1.75;2.25;0.25;1.25;0.5;0.0;0.25;0.25;0.25;5.75;0.25;0.25;-0.175293;0.019043;1.0;-0.35;-0.0;0.49;209.0;-0.002317;-0.033167;0.0;1.25;0.75;1.5;1.0;5.25;0.0;4.75;0.25;0.25;0.25;1.25;3.0;8.25;1.0;0.5;-0.211426;0.037598;0.989746;-0.49;0.0;0.21;336.0;0.067113;-0.170582
3.54;1.5;0.75;1.5;1.5;1.75;2.5;0.25;1.25;0.5;0.0;0.0;0.25;0.25;5.5;0.25;0.25;-0.172363;0.018555;0.992188;-0.21;0.07;0.49;204.0;-0.007303;-0.036256;0.25;1.25;0.75;1.5;1.0;5.25;0.0;4.75;0.25;0.25;0.0;1.25;2.75;8.5;1.0;0.5;-0.215332;0.043457;0.984863;-0.35;-0.21;0.21;336.0;0.063473;-0.164253
3.55;1.5;0.75;1.5;1.5;1.5;2.25;0.25;1.25;0.5;0.25;0.0;0.25;0.5;5.75;0.25;0.25;-0.17627;0.016113;0.994141;-0.28;0.14;0.63;206.0;0.006696;-0.035329;0.0;1.25;0.75;1.75;1.0;5.25;0.0;4.5;0.0;0.0;0.0;1.25;3.0;8.5;1.25;0.75;-0.211426;0.035156;0.984863;-0.21;-0.28;0.21;332.0;0.066679;-0.173005
3.56;1.5;0.75;1.5;1.5;1.75;2.5;0.25;1.25;0.5;0.25;0.25;0.5;0.5;6.0;0.25;0.25;-0.175293;0.019043;0.995117;-0.42;0.28;0.63;220.0;0.012525;-0.039436;0.25;1.25;1.0;1.5;1.0;5.25;0.0;4.5;0.0;0.0;0.25;1.25;3.0;8.75;1.0;0.5;-0.214355;0.04248;0.97998;-0.21;-0.14;0.21;336.0;0.062416;-0.165041
3.57;1.5;0.75;1.5;1.5;1.75;2.5;0.25;1.5;0.5;0.25;0.0;0.25;0.5;6.0;0.5;0.25;-0.177734;0.021484;0.998047;-0.42;0.21;0.56;221.0;0.011874;-0.042295;0.0;1.25;0.75;1.5;1.0;5.5;0.0;4.5;0.25;0.0;0.25;1.25;3.0;8.75;1.0;0.5;-0.20752;0.040039;0.985352;-0.21;-0.14;0.14;337.0;0.069459;-0.16593
3.58;1.25;0.75;1.75;1.5;1.75;2.5;0.25;1.5;0.75;0.25;0.0;0.25;0.25;6.0;0.25;0.25;-0.171875;0.019043;0.99707;-0.35;0.07;0.42;220.0;0.01049;-0.032247;0.0;1.25;0.625;1.375;1.0;5.375;0.0;4.375;0.25;0.0;0.25;1.25;3.0;8.75;1.0;0.625;-0.21167000000000002;0.0395505;0.9877929999999999;-0.21;-0.07;0.175;331.0;0.07487450000000001;-0.1652555
3.59;1.0;0.75;1.5;1.5;2.0;2.5;0.25;1.5;0.25;0.25;0.0;0.0;0.5;6.0;0.25;0.25;-0.176758;0.022949;0.992676;-0.28;-0.0;0.42;209.0;0.008828;-0.046274;0.0;1.25;0.5;1.25;1.0;5.25;0.0;4.25;0.25;0.0;0.25;1.25;3.0;8.75;1.0;0.75;-0.21582;0.039062;0.990234;-0.21;0.0;0.21;325.0;0.08029;-0.164581
3.6;1.5;0.75;1.5;1.5;2.0;2.75;0.0;1.5;0.5;0.25;0.25;0.25;0.5;6.0;0.25;0.25;-0.17627;0.018555;0.99707;-0.35;0.07;0.42;223.0;0.004232;-0.04967;0.25;1.0;0.75;1.25;0.75;4.75;0.0;4.25;0.25;0.0;0.25;1.5;3.0;9.0;1.0;0.75;-0.21582;0.037598;0.983398;-0.14;0.07;0.14;325.0;0.086351;-0.158619
3.61;1.25;0.75;1.5;1.75;1.75;2.75;0.0;1.75;0.25;0.25;0.25;0.25;0.75;6.0;0.25;0.25;-0.175781;0.014648;0.998535;-0.28;-0.0;0.49;223.0;0.004614;-0.071457;0.25;1.0;0.5;1.25;0.75;4.75;0.0;4.25;0.0;0.0;0.0;1.25;3.0;9.0;1.0;0.75;-0.210449;0.038574;0.986328;-0.35;-0.21;0.35;312.0;0.085445;-0.165128
3.62;1.25;0.75;1.75;1.75;1.75;2.75;0.0;1.75;0.25;0.25;0.25;0.25;0.75;6.0;0.25;0.25;-0.176758;0.022461;0.99707;-0.21;0.21;0.49;226.0;0.00097;-0.069289;0.25;1.0;0.5;1.0;0.75;4.75;0.0;4.25;0.0;0.0;0.0;1.25;3.0;9.25;1.25;0.75;-0.211426;0.033691;0.990234;-0.42;-0.42;0.21;315.0;0.094354;-0.161274
3.63;1.5;0.75;1.75;1.75;2.0;2.75;0.25;1.75;0.25;0.25;0.25;0.25;0.75;6.25;0.25;0.25;-0.174805;0.025391;0.99707;-0.42;0.14;0.56;238.0;-3.2e-05;-0.057738;0.25;1.0;0.5;1.0;0.75;4.75;0.0;4.25;0.0;0.0;0.0;1.25;2.75;9.25;1.0;0.5;-0.214844;0.04248;0.981934;-0.49;-0.63;0.28;308.0;0.089582;-0.15898
3.64;1.5;0.75;1.75;1.5;1.75;2.75;0.0;1.75;0.25;0.25;0.0;0.25;0.75;6.25;0.25;0.25;-0.174805;0.015137;0.997559;-0.42;0.07;0.49;225.0;0.001121;-0.061849;0.25;1.25;0.5;1.25;1.0;4.75;0.0;4.25;0.0;0.0;0.25;1.5;2.75;9.5;1.5;0.25;-0.210449;0.039062;0.985352;-0.63;-0.77;0.21;329.0;0.08914;-0.154035
3.65;1.5;0.75;1.75;1.5;2.0;2.75;0.0;1.75;0.75;0.25;0.0;0.5;0.75;6.0;0.25;0.25;-0.179688;0.021484;0.985352;-0.35;0.21;0.42;236.0;0.005723;-0.055308;0.25;1.25;0.5;1.0;1.0;5.0;0.0;4.25;0.25;0.0;0.0;1.5;3.0;9.5;1.5;0.5;-0.212891;0.04541;0.980469;-0.49;-0.91;0.28;333.0;0.092765;-0.153069
3.66;1.5;0.75;1.75;1.75;2.0;2.5;0.25;1.75;0.75;0.25;0.25;0.5;0.75;6.0;0.0;0.25;-0.173828;0.024902;0.998535;-0.35;0.14;0.56;240.0;0.003125;-0.050026;0.0;1.0;0.25;1.25;0.75;4.75;0.0;4.25;0.25;0.0;0.0;1.5;3.0;9.5;1.5;0.25;-0.208008;0.041504;0.98877;-0.56;-0.84;0.28;320.0;0.104085;-0.158413
3.67;1.5;0.5;1.75;1.75;2.0;2.75;0.25;1.75;0.75;0.25;0.25;0.25;0.75;6.25;0.0;0.25;-0.179199;0.022949;0.998047;-0.42;0.21;0.49;240.0;0.007108;-0.046419;0.0;1.0;0.25;1.25;0.75;3.75;0.0;4.25;0.0;0.0;0.0;1.25;2.5;9.5;1.5;0.25;-0.211426;0.043457;0.986816;-0.56;-0.98;0.21;297.0;0.110471;-0.152907
3.68;1.5;0.75;1.75;1.75;2.0;2.75;0.25;1.75;0.75;0.25;0.25;0.25;0.75;6.25;0.25;0.25;-0.178223;0.019531;0.995117;-0.35;0.21;0.56;246.0;0.007436;-0.048065;0.0;0.75;0.25;1.25;0.75;4.0;0.0;4.25;0.0;0.0;0.0;1.25;2.5;9.75;1.5;0.25;-0.206543;0.038086;0.97998;-0.42;-1.05;0.21;300.0;0.114633;-0.151429
3.69;1.25;1.0;1.75;1.75;2.0;3.0;0.25;1.75;0.5;0.25;0.0;0.25;0.75;6.25;0.25;0.25;-0.178711;0.020508;0.998535;-0.28;0.28;0.63;242.0;-0.000411;-0.057865;0.0;1.25;0.5;1.25;0.75;4.5;0.0;4.25;0.0;0.0;0.25;1.25;2.5;9.75;1.5;0.25;-0.208496;0.043945;0.989258;-0.35;-1.12;0.14;317.0;0.098522;-0.151306
3.7;1.5;1.0;1.75;1.5;2.0;2.75;0.0;2.0;0.75;0.25;0.0;0.25;0.75;6.25;0.25;0.25;-0.177246;0.021484;1.000488;-0.42;0.28;0.7;242.0;0.002516;-0.057152;0.0;1.0;0.5;1.25;0.75;4.25;0.0;4.0;0.0;0.0;0.0;1.25;2.75;9.5;1.5;0.25;-0.223145;0.023438;0.979492;-0.07;-1.4;0.07;304.0;0.103707;-0.151947
3.71;1.25;0.75;1.75;1.75;2.0;2.75;0.0;2.0;0.75;0.25;0.0;0.0;1.0;6.25;0.5;0.25;-0.180664;0.020996;0.998047;-0.28;0.56;0.49;242.0;0.012;-0.061424;0.0;0.75;0.5;1.25;0.75;4.5;0.0;4.0;0.0;0.0;0.25;1.25;2.5;9.5;1.25;0.25;-0.212891;0.039551;0.989258;-0.35;-1.19;0.28;303.0;0.103285;-0.150926
3.72;1.5;0.75;1.75;2.0;2.0;3.0;0.25;2.0;0.5;0.25;0.0;0.25;1.0;6.25;0.25;0.25;-0.178223;0.015625;0.996094;-0.21;0.49;0.7;252.0;-0.002797;-0.0662;0.25;0.75;0.25;1.25;0.75;4.75;0.0;4.0;0.0;0.0;0.25;1.25;2.5;9.5;2.0;0.25;-0.213379;0.037598;0.985352;-0.49;-1.19;0.28;314.0;0.108227;-0.150194
3.73;1.5;0.75;2.0;2.25;2.0;3.0;0.25;2.0;0.5;0.25;0.25;0.25;0.75;6.5;0.25;0.25;-0.176758;0.01709;0.994629;-0.28;0.42;0.63;260.0;-0.004494;-0.061004;0.25;0.75;0.25;1.25;0.75;4.5;0.0;4.25;0.25;0.0;0.0;1.25;2.5;9.5;1.75;0.5;-0.212891;0.041992;0.985352;-0.42;-1.26;0.42;314.0;0.108162;-0.149103
3.74;1.25;0.75;2.0;1.75;2.0;3.0;0.25;2.0;0.5;0.25;0.25;0.5;0.75;6.25;0.25;0.5;-0.172852;0.017578;0.996582;-0.14;0.49;0.7;254.0;0.007363;-0.065348;0.0;1.0;0.5;1.25;0.75;4.5;0.0;4.25;0.0;0.25;0.0;1.25;2.75;9.5;1.5;0.25;-0.210449;0.036133;0.990234;-0.63;-1.19;0.42;314.0;0.100987;-0.154316
3.75;1.5;0.75;1.75;1.75;2.0;3.0;0.25;2.0;0.5;0.25;0.0;0.25;1.0;6.5;0.25;0.5;-0.174316;0.015137;0.99707;-0.21;0.56;0.63;252.0;0.006536;-0.063524;0.0;1.25;0.75;1.25;0.75;4.5;0.0;4.25;0.0;0.0;0.0;1.25;3.0;9.5;1.5;0.5;-0.210449;0.04248;0.977051;-0.49;-1.4;0.42;321.0;0.093903;-0.157014
3.76;1.5;1.0;1.75;1.5;2.0;3.5;0.25;2.25;0.5;0.25;0.0;0.25;1.0;6.25;0.25;0.25;-0.179688;0.017578;0.99707;-0.14;0.42;0.77;258.0;-0.003819;-0.073503;0.0;0.75;0.25;1.25;0.75;4.5;0.0;4.25;0.25;0.25;0.0;1.5;3.0;9.5;1.5;0.25;-0.211426;0.037598;0.98291;-0.56;-1.12;0.42;318.0;0.111836;-0.155292
3.77;1.25;0.75;1.75;1.75;2.0;3.0;0.0;2.25;0.5;0.25;0.25;0.25;1.0;6.25;0.0;0.25;-0.177246;0.02002;0.99707;-0.14;0.28;0.7;246.0;0.001604;-0.077359;0.0;0.25;0.25;1.0;1.0;4.5;0.0;4.0;0.25;0.25;0.0;1.5;3.0;9.5;1.5;0.25;-0.215332;0.041504;0.984375;-0.49;-1.19;0.49;309.0;0.123719;-0.149139
3.78;1.25;1.0;1.75;2.0;2.0;3.25;0.0;2.25;0.75;0.0;0.25;0.25;1.0;6.25;0.0;0.25;-0.178711;0.020508;0.992676;-0.21;0.35;0.7;255.0;-0.006813;-0.078894;0.0;0.5;0.25;1.0;1.0;4.25;0.0;4.0;0.0;0.25;0.0;1.5;2.75;9.5;1.75;0.5;-0.208984;0.036621;0.986328;-0.28;-0.84;0.42;306.0;0.123851;-0.150786
3.79;1.25;1.0;1.75;1.5;2.25;3.25;0.25;2.25;0.75;0.25;0.25;0.25;1.25;6.25;0.25;0.5;-0.175781;0.018066;0.999023;-0.21;0.35;0.63;266.0;0.010263;-0.072241;0.0;0.75;0.5;1.5;0.75;4.5;0.0;4.0;0.0;0.0;0.0;1.25;2.5;9.25;1.5;0.5;-0.217773;0.037109;0.981445;-0.21;-0.77;0.42;305.0;0.100041;-0.154628
3.8;1.5;1.25;1.75;1.75;2.0;3.5;0.25;2.25;0.75;0.25;0.0;0.25;1.0;6.25;0.25;0.25;-0.17627;0.018555;1.000488;-0.14;0.49;0.7;267.0;-0.007412;-0.07142;0.0;1.0;0.5;1.25;0.75;4.75;0.0;4.25;0.0;0.0;0.0;1.25;3.0;9.5;1.25;0.25;-0.214844;0.041016;0.980957;-0.35;-0.56;0.56;314.0;0.095041;-0.160376
3.81;1.5;0.75;1.75;2.0;2.0;3.5;0.0;2.25;0.75;0.0;0.0;0.25;1.0;6.25;0.5;0.25;-0.179688;0.021973;0.993164;-0.14;0.35;0.77;261.0;-0.002257;-0.077895;0.25;1.0;0.5;1.25;0.75;4.5;0.0;4.25;0.0;0.0;0.0;1.25;2.75;9.5;1.25;0.25;-0.20459;0.041504;0.981445;-0.28;-0.56;0.42;312.0;0.092315;-0.15458
3.82;1.25;0.75;1.75;2.0;2.0;3.5;0.0;2.25;0.75;0.25;0.0;0.25;1.0;6.25;0.25;0.25;-0.175293;0.018066;0.99707;-0.28;0.63;0.7;258.0;0.000254;-0.078332;0.0;1.25;0.25;1.25;0.75;4.25;0.0;4.0;0.0;0.0;0.0;1.25;2.75;9.5;1.5;0.25;-0.279297;0.099609;0.923828;0.28;0.0;0.14;304.0;0.103099;-0.154486
3.83;1.25;1.0;1.75;2.0;2.0;3.5;0.25;2.25;0.75;0.25;0.0;0.25;1.0;6.25;0.25;0.5;-0.175293;0.018555;0.995605;-0.21;0.35;0.84;266.0;-0.00045;-0.075511;0.0;1.0;0.25;1.25;0.5;4.25;0.0;4.0;0.0;0.0;0.25;1.5;3.0;9.5;1.75;0.25;-0.208496;0.045898;0.987793;0.07;-0.63;0.35;309.0;0.114984;-0.159106
3.84;1.75;1.0;1.75;2.0;2.25;3.5;0.25;2.25;0.75;0.0;0.0;0.25;1.0;6.25;0.25;0.5;-0.175293;0.021973;0.990723;-0.28;0.42;0.77;272.0;-0.012709;-0.071626;0.0;1.0;0.25;1.25;0.5;4.0;0.0;4.0;0.25;0.0;0.25;1.25;3.0;9.5;1.75;0.5;-0.214844;0.035645;0.980957;-0.35;-0.49;0.42;309.0;0.119508;-0.152455
3.85;1.5;1.0;1.75;2.0;2.0;3.5;0.25;2.25;0.75;0.0;0.0;0.25;1.25;6.25;0.25;0.25;-0.179199;0.019043;0.996582;-0.35;0.49;0.63;267.0;-0.007773;-0.077124;0.25;0.75;0.25;1.25;0.75;4.25;0.0;4.0;0.25;0.0;0.25;1.25;3.0;9.25;1.5;0.5;-0.211914;0.039062;0.989258;-0.56;-0.56;0.49;310.0;0.109248;-0.152166
3.86;1.25;1.0;1.75;2.0;2.0;3.5;0.25;2.5;0.75;0.25;0.0;0.25;1.0;6.25;0.25;0.5;-0.17627;0.018555;1.003418;-0.35;0.7;0.63;271.0;-0.000632;-0.080377;0.25;0.75;0.5;1.0;0.75;3.75;0.0;4.0;0.0;0.0;0.0;1.25;2.5;9.25;1.5;0.5;-0.214844;0.042969;0.984375;-0.77;-0.77;0.42;293.0;0.11081;-0.147036
3.87;1.25;1.0;1.75;2.0;2.0;3.5;0.25;2.5;0.75;0.0;0.0;0.25;1.0;6.25;0.25;0.25;-0.174316;0.021973;0.997559;-0.35;0.63;0.7;266.0;-0.005211;-0.08062;0.0;1.25;0.5;1.0;0.75;4.0;0.0;4.0;0.0;0.0;0.25;1.25;2.5;9.5;1.5;0.25;-0.214355;0.041504;0.986328;-0.77;-0.77;0.42;302.0;0.106417;-0.147386
3.88;1.5;1.0;2.0;2.25;2.0;3.25;0.25;2.5;0.75;0.0;0.25;0.25;1.0;6.75;0.25;0.25;-0.17334;0.021484;0.993164;-0.49;0.7;0.56;280.0;-0.004236;-0.072426;0.25;1.0;0.5;1.0;0.25;4.0;0.0;4.0;0.0;0.0;0.0;1.25;2.75;9.5;1.5;0.25;-0.214355;0.037598;0.976562;-0.91;-0.84;0.56;295.0;0.110051;-0.151823
3.89;1.5;1.0;1.75;2.0;2.0;3.5;0.25;2.5;0.75;0.0;0.0;0.5;1.0;6.5;0.25;0.25;-0.174805;0.023438;0.996094;-0.56;0.49;0.56;274.0;-0.003539;-0.078738;0.25;0.25;0.5;1.25;0.5;4.0;0.0;4.0;0.25;0.0;0.0;1.25;2.75;9.25;1.5;0.25;-0.213867;0.040039;0.986328;-0.91;-1.05;0.49;295.0;0.116505;-0.147456
3.9;1.25;1.0;1.75;2.0;2.0;3.5;0.25;2.5;0.75;0.0;0.0;0.25;1.0;6.5;0.5;0.25;-0.171387;0.022461;0.994629;-0.49;0.42;0.56;271.0;0.002723;-0.078428;0.25;0.25;0.25;1.25;0.5;4.25;0.0;4.0;0.25;0.0;0.25;1.25;2.75;9.5;1.75;0.25;-0.212891;0.041504;0.981445;-0.84;-1.12;0.56;303.0;0.123773;-0.147666
3.91;1.25;0.75;1.5;2.0;2.0;3.5;0.25;2.5;0.5;0.25;0.0;0.25;1.0;6.5;0.25;0.5;-0.175293;0.027832;0.994141;-0.63;0.42;0.56;264.0;0.00656;-0.084057;0.0;0.75;0.25;1.25;0.75;4.25;0.0;4.0;0.25;0.0;0.25;1.25;2.75;9.25;1.5;0.25;-0.211914;0.040527;0.992676;-0.84;-1.19;0.63;303.0;0.112338;-0.15141
3.92;1.25;0.75;1.75;1.75;2.0;3.5;0.25;2.25;0.75;0.25;0.25;0.5;1.0;6.5;0.25;0.25;-0.173828;0.021484;0.995117;-0.63;0.49;0.56;268.0;0.012943;-0.072271;0.0;0.75;0.5;1.25;0.75;4.0;0.0;4.0;0.0;0.0;0.25;1.25;2.5;9.25;1.75;0.5;-0.219727;0.041016;0.986816;-0.91;-1.19;0.63;302.0;0.112992;-0.150541
3.93;1.0;0.75;1.75;1.75;2.25;3.5;0.25;2.5;0.75;0.25;0.25;0.25;1.0;6.5;0.25;0.25;-0.180176;0.018066;1.000488;-0.7;0.42;0.49;269.0;0.0133;-0.075239;0.25;0.5;0.5;1.25;0.75;4.25;0.0;4.0;0.0;0.0;0.0;1.25;2.5;9.5;1.5;0.5;-0.211426;0.039062;0.989258;-1.05;-1.12;0.63;301.0;0.108392;-0.147634
3.94;1.25;1.0;1.75;1.5;2.25;3.5;0.25;2.25;1.0;0.25;0.25;0.25;1.0;6.5;0.5;0.25;-0.181641;0.025391;0.999512;-0.7;0.28;0.56;274.0;0.016028;-0.063219;0.0;0.75;0.25;0.75;0.75;4.25;0.0;4.0;0.0;0.0;0.0;1.75;2.5;9.25;1.5;0.5;-0.215332;0.035645;0.985352;-0.98;-1.12;0.63;296.0;0.120245;-0.156558
3.95;1.5;1.0;2.0;2.0;2.25;3.5;0.25;2.25;0.75;0.25;0.25;0.5;0.75;6.5;0.5;0.5;-0.180664;0.024902;0.994141;-0.84;0.35;0.49;284.0;0.001856;-0.067893;0.0;0.5;0.5;0.75;0.75;4.5;0.0;4.0;0.25;0.0;0.25;1.25;2.75;9.5;1.0;0.5;-0.209961;0.038574;0.987305;-1.12;-1.19;0.56;299.0;0.116224;-0.148134
3.96;1.5;0.75;2.0;2.25;2.25;3.5;0.25;2.5;0.75;0.25;0.25;0.25;1.0;6.5;0.25;0.25;-0.173828;0.018555;0.995605;-0.63;0.35;0.56;284.0;-0.004364;-0.072961;0.25;1.25;0.5;0.75;0.75;4.25;0.0;4.0;0.0;0.25;0.0;1.25;2.75;9.5;1.5;0.5;-0.210449;0.033203;0.984863;-1.12;-1.05;0.49;308.0;0.104904;-0.147035
3.97;1.5;0.75;1.75;1.75;2.25;3.5;0.25;2.5;0.75;0.0;0.25;0.25;1.0;6.75;0.25;0.5;-0.173828;0.023926;0.995117;-0.84;0.7;0.49;276.0;0.007634;-0.072044;0.25;0.75;0.5;1.25;0.75;4.0;0.0;4.0;0.0;0.0;0.0;1.25;2.5;9.5;1.5;0.5;-0.212891;0.044434;0.986328;-1.19;-1.05;0.56;301.0;0.106572;-0.146551
3.98;1.5;1.0;2.0;2.0;2.25;3.5;0.25;2.5;0.75;0.25;0.5;0.5;0.75;6.75;0.25;0.25;-0.177246;0.02002;0.99707;-0.7;0.56;0.49;289.0;0.001311;-0.069662;0.25;0.5;0.25;1.25;0.75;4.25;0.0;4.0;0.0;0.0;0.0;1.25;2.5;9.5;1.5;0.5;-0.208496;0.039062;0.989746;-1.12;-0.98;0.56;298.0;0.112216;-0.150057
3.99;1.5;1.0;1.75;2.0;2.25;3.5;0.25;2.5;0.75;0.25;0.25;0.25;1.0;7.0;0.25;0.25;-0.173828;0.019531;1.002441;-0.63;0.49;0.56;285.0;0.004567;-0.069838;0.25;0.75;0.5;1.0;0.75;4.25;0.0;4.25;0.0;0.0;0.0;1.5;2.5;9.75;1.75;0.5;-0.213379;0.039062;0.990723;-1.05;-0.91;0.63;313.0;0.112264;-0.148639
4.0;1.75;1.0;1.75;2.0;2.25;3.5;0.25;2.5;0.75;0.0;0.0;0.25;1.0;6.5;0.25;0.5;-0.175293;0.015625;0.99707;-0.63;0.49;0.56;279.0;-0.009159;-0.074333;0.25;1.0;0.25;1.25;0.75;4.25;0.0;4.25;0.0;0.0;0.0;1.25;2.5;9.75;1.5;0.5;-0.211914;0.04248;0.982422;-1.19;-0.77;0.63;310.0;0.104195;-0.151112
4.01;1.5;0.75;2.0;2.25;2.25;3.5;0.25;2.5;1.0;0.0;0.0;0.25;1.0;6.75;0.5;0.5;-0.174805;0.016113;0.998535;-0.63;0.42;0.63;288.0;0.003501;-0.068884;0.25;0.5;0.25;1.25;0.75;4.0;0.0;4.0;0.0;0.0;0.0;1.25;2.5;9.5;1.0;0.5;-0.210449;0.037598;0.985352;-1.19;-0.77;0.63;290.0;0.109081;-0.150137
4.02;1.25;0.75;2.0;2.25;2.25;3.5;0.25;2.5;0.75;0.25;0.0;0.0;0.75;6.75;0.25;0.5;-0.169434;0.018555;0.996582;-0.56;0.63;0.56;277.0;-0.000908;-0.067932;0.25;0.25;0.25;1.0;0.75;4.0;0.0;3.75;0.0;0.25;0.0;1.0;2.5;9.5;1.0;0.5;-0.208496;0.041992;0.984375;-1.19;-0.91;0.63;280.0;0.120188;-0.141931
4.03;1.25;0.75;1.75;2.0;2.25;3.5;0.25;2.25;0.75;0.0;0.0;0.25;1.0;6.5;0.25;0.5;-0.171875;0.015137;1.00293;-0.56;0.7;0.56;266.0;0.003111;-0.072393;0.0;0.5;0.25;1.0;0.75;4.25;0.0;3.75;0.0;0.25;0.25;1.25;2.5;9.0;1.25;0.5;-0.209961;0.037598;0.986816;-1.26;-0.77;0.63;287.0;0.117873;-0.151841
4.04;1.5;1.0;1.75;2.25;2.25;3.75;0.25;2.25;0.75;0.0;0.25;0.5;1.0;6.5;0.0;0.25;-0.174805;0.024902;1.001953;-0.63;0.63;0.56;279.0;-0.011222;-0.076547;0.0;0.5;0.5;1.25;0.75;4.25;0.0;3.75;0.0;0.0;0.0;1.25;2.5;9.0;1.25;0.75;-0.212891;0.043457;0.98877;-1.26;-1.05;0.63;288.0;0.108563;-0.153361
4.05;1.5;1.0;2.0;2.25;2.25;3.75;0.25;2.25;0.75;0.25;0.0;0.5;1.0;6.5;0.25;0.0;-0.168945;0.022461;0.999023;-0.63;0.77;0.56;284.0;-0.011531;-0.071778;0.25;0.75;0.25;1.25;0.75;4.25;0.0;3.75;0.25;0.0;0.0;1.25;2.5;9.0;1.25;0.75;-0.209473;0.04248;0.985352;-1.26;-1.05;0.63;294.0;0.104821;-0.148267
4.06;1.5;0.75;2.25;2.25;2.25;3.5;0.25;2.25;0.75;0.25;0.0;0.5;1.0;6.5;0.25;0.25;-0.176758;0.015137;0.998047;-0.7;0.77;0.63;283.0;-0.007232;-0.068348;0.0;0.75;0.25;1.25;0.75;4.75;0.0;3.75;0.0;0.0;0.25;1.25;2.5;8.75;1.0;0.75;-0.208496;0.041504;0.981934;-1.26;-0.91;0.56;291.0;0.098401;-0.161418
4.07;1.5;1.0;2.0;2.5;2.25;3.5;0.25;2.5;0.75;0.25;0.25;0.5;1.0;6.5;0.25;0.25;-0.17627;0.021484;0.999023;-0.63;0.56;0.49;292.0;-0.008732;-0.077521;0.0;1.0;0.25;1.0;0.75;4.25;0.0;4.0;0.0;0.0;0.25;1.25;2.5;8.5;1.25;0.5;-0.210449;0.040039;0.983887;-1.12;-0.84;0.63;288.0;0.100689;-0.162989
4.08;1.75;1.25;2.0;2.25;2.25;3.75;0.25;2.25;0.25;0.0;0.25;0.25;0.75;6.25;0.25;0.25;-0.172363;0.025879;1.003418;-0.56;0.49;0.63;276.0;-0.031756;-0.079354;0.0;1.0;0.25;1.0;0.75;4.5;0.0;4.0;0.25;0.25;0.0;1.25;2.5;8.25;1.25;0.75;-0.21582;0.039551;0.98584;-1.19;-0.91;0.7;294.0;0.098995;-0.160491
4.09;1.5;1.0;2.5;2.25;2.25;3.75;0.25;2.25;0.25;0.0;0.25;0.25;0.75;6.0;0.25;0.25;-0.177246;0.019043;0.996094;-0.63;0.42;0.63;274.0;-0.033352;-0.078922;0.0;0.5;0.25;1.0;1.0;4.5;0.0;4.0;0.0;0.25;0.0;1.25;2.5;8.0;1.0;0.5;-0.211914;0.037598;0.98291;-1.33;-0.98;0.63;282.0;0.096737;-0.166327
4.1;1.5;1.0;2.25;2.25;2.25;3.75;0.25;2.25;0.25;0.25;0.0;0.25;0.75;6.0;0.25;0.5;-0.173828;0.018066;1.000488;-0.63;0.63;0.56;273.0;-0.028481;-0.080202;0.25;1.0;0.25;1.0;1.0;4.75;0.0;4.0;0.0;0.0;0.0;1.25;2.5;7.5;1.0;0.5;-0.212891;0.041992;0.98291;-1.47;-1.05;0.63;285.0;0.073519;-0.172602
4.11;1.5;1.0;2.0;2.5;2.25;3.75;0.25;2.25;0.25;0.25;0.0;0.25;0.75;6.0;0.25;0.5;-0.173828;0.017578;0.999023;-0.7;0.49;0.56;272.0;-0.028678;-0.083691;0.25;1.25;0.5;1.0;1.0;4.75;0.0;4.0;0.0;0.25;0.25;1.5;2.5;6.75;1.0;0.5;-0.210938;0.039551;0.98877;-1.54;-1.19;0.63;292.0;0.062107;-0.176511
4.12;2.0;0.75;2.25;2.0;2.25;3.75;0.25;2.25;0.25;0.25;0.25;0.25;1.0;6.0;0.0;0.5;-0.172363;0.020996;0.996094;-0.49;0.35;0.49;275.0;-0.030014;-0.077564;0.25;1.0;0.25;1.25;1.0;4.75;0.0;4.0;0.0;0.25;0.25;1.25;2.5;6.75;0.75;0.5;-0.206543;0.035156;0.987305;-1.54;-1.19;0.77;284.0;0.061217;-0.179717
4.13;1.5;1.25;2.25;2.5;2.25;3.75;0.25;2.25;0.25;0.0;0.25;0.25;1.0;6.0;0.25;0.5;-0.178711;0.025391;0.994141;-0.63;0.35;0.56;280.0;-0.033207;-0.087549;0.25;1.0;0.25;1.25;1.0;4.25;0.0;4.25;0.0;0.0;0.25;1.25;2.5;6.25;0.75;0.5;-0.212402;0.037598;0.980957;-1.4;-1.12;0.7;275.0;0.056927;-0.189474
4.14;1.5;1.5;2.25;2.75;2.5;3.75;0.25;2.25;0.5;0.0;0.25;0.25;0.75;6.0;0.25;0.5;-0.173828;0.017578;0.998535;-0.56;0.42;0.56;290.0;-0.038193;-0.080615;0.25;1.0;0.25;1.25;1.0;4.75;0.0;4.0;0.25;0.0;0.25;1.5;2.25;5.75;1.0;0.5;-0.218262;0.041016;0.981934;-1.33;-0.98;0.7;279.0;0.054341;-0.186083
4.15;1.5;1.5;1.75;2.75;2.5;3.75;0.25;2.25;0.5;0.25;0.0;0.25;1.0;5.75;0.25;0.5;-0.169922;0.019531;0.994629;-0.56;0.56;0.49;284.0;-0.035144;-0.087731;0.0;1.25;0.25;1.5;1.0;4.75;0.0;4.0;0.25;0.0;0.25;1.0;2.5;6.0;1.0;0.5;-0.212891;0.039551;0.986816;-1.26;-0.84;0.7;280.0;0.051853;-0.186359
4.16;2.25;1.25;2.25;2.75;2.5;3.75;0.25;2.25;0.5;0.25;0.0;0.25;1.0;5.5;0.25;0.25;-0.176758;0.019043;0.99707;-0.42;0.63;0.56;292.0;-0.052907;-0.078618;0.0;1.25;0.5;1.5;1.0;5.0;0.0;4.0;0.0;0.0;0.25;1.0;2.5;5.75;1.0;0.75;-0.205566;0.036133;0.992676;-1.19;-0.98;0.7;282.0;0.042319;-0.193795
4.17;1.75;1.25;2.25;2.75;2.5;3.75;0.25;2.25;0.25;0.25;0.0;0.25;0.75;5.25;0.25;0.25;-0.171387;0.022461;0.989746;-0.49;0.56;0.63;278.0;-0.055525;-0.085858;0.25;1.25;0.25;1.75;1.0;5.0;0.0;4.0;0.0;0.0;0.25;1.25;2.5;5.75;1.0;0.25;-0.215332;0.035645;0.983887;-1.05;-1.05;0.77;285.0;0.036089;-0.193932
4.18;1.5;1.5;2.5;2.75;2.5;3.75;0.25;2.25;0.25;0.25;0.0;0.0;0.75;5.0;0.0;0.5;-0.171875;0.020996;0.998047;-0.7;0.7;0.56;275.0;-0.066911;-0.087949;0.0;1.25;0.25;1.5;1.0;4.75;0.0;4.25;0.0;0.0;0.25;1.25;2.5;5.75;1.0;0.25;-0.212891;0.036133;0.984863;-1.05;-0.91;0.77;280.0;0.045272;-0.198761
