Time;left pressure 1[N/cm²];left pressure 2[N/cm²];left pressure 3[N/cm²];left pressure 4[N/cm²];left pressure 5[N/cm²];left pressure 6[N/cm²];left pressure 7[N/cm²];left pressure 8[N/cm²];left pressure 9[N/cm²];left pressure 10[N/cm²];left pressure 11[N/cm²];left pressure 12[N/cm²];left pressure 13[N/cm²];left pressure 14[N/cm²];left pressure 15[N/cm²];left pressure 16[N/cm²];left acceleration X[g];left acceleration Y[g];left acceleration Z[g];left angular X[dps];left angular Y[dps];left angular Z[dps];left total force[N];left center of pressure X[-0.5...+0.5];left center of pressure Y[-0.5...+0.5];right pressure 1[N/cm²];right pressure 2[N/cm²];right pressure 3[N/cm²];right pressure 4[N/cm²];right pressure 5[N/cm²];right pressure 6[N/cm²];right pressure 7[N/cm²];right pressure 8[N/cm²];right pressure 9[N/cm²];right pressure 10[N/cm²];right pressure 11[N/cm²];right pressure 12[N/cm²];right pressure 13[N/cm²];right pressure 14[N/cm²];right pressure 15[N/cm²];right pressure 16[N/cm²];right acceleration X[g];right acceleration Y[g];right acceleration Z[g];right angular X[dps];right angular Y[dps];right angular Z[dps];right total force[N];right center of pressure X[-0.5...+0.5];right center of pressure Y[-0.5...+0.5]
0.0;11.25;6.75;8.0;3.75;0.25;0.25;0.0;0.25;0.25;0.25;0.5;0.25;0.0;0.5;0.25;0.25;-0.229004;0.026367;0.986816;-0.42;0.35;0.63;372.0;-0.301857;-0.003573;5.75;9.75;4.25;6.0;0.5;0.75;0.0;0.25;0.0;0.0;0.25;0.0;0.5;0.25;0.0;0.0;-0.238281;0.036133;0.974121;-1.47;0.77;0.56;316.0;-0.320806;-0.084118
0.01;11.25;7.0;7.75;3.75;0.25;0.25;0.0;0.0;0.25;0.0;0.0;0.25;0.0;0.5;0.25;0.0;-0.234375;0.027832;0.983887;-0.49;0.35;0.7;357.0;-0.321863;0.001559;5.75;10.0;4.25;6.25;0.5;1.0;0.0;0.25;0.0;0.0;0.25;0.0;0.5;0.25;0.0;0.0;-0.245117;0.041504;0.973145;-1.61;0.84;0.56;325.0;-0.319699;-0.087786
0.02;11.0;7.0;7.75;3.5;0.25;0.25;0.0;0.0;0.0;0.0;0.25;0.25;0.0;0.5;0.25;0.25;-0.231934;0.026855;0.988281;-0.49;0.21;0.56;352.0;-0.320053;-0.002424;5.5;9.75;4.25;6.25;0.5;1.0;0.0;0.25;0.0;0.0;0.5;0.0;0.5;0.0;0.0;0.0;-0.237305;0.038574;0.974121;-1.75;0.91;0.56;320.0;-0.318629;-0.091086
0.03;11.0;6.75;7.75;3.75;0.25;0.0;0.0;0.0;0.0;0.0;0.25;0.0;0.0;0.5;0.25;0.25;-0.22998;0.026855;0.985352;-0.63;0.28;0.56;347.0;-0.324909;0.0016;5.5;9.75;4.25;5.75;0.25;1.0;0.0;0.25;0.0;0.0;0.25;0.0;0.25;0.0;0.0;0.0;-0.241211;0.040527;0.970215;-1.82;0.98;0.49;306.0;-0.329994;-0.086869
0.04;11.0;6.75;7.75;3.75;0.25;0.0;0.0;0.0;0.0;0.0;0.0;0.25;0.0;0.5;0.5;0.0;-0.236328;0.027832;0.98291;-0.63;0.56;0.56;348.0;-0.321898;0.000755;5.5;9.5;4.25;5.75;0.25;1.0;0.0;0.25;0.0;0.0;0.25;0.0;0.5;0.0;0.0;0.0;-0.241699;0.036621;0.966797;-1.96;1.47;0.56;305.0;-0.325429;-0.089105
0.05;11.0;6.75;7.5;4.0;0.25;0.0;0.0;0.0;0.25;0.0;0.25;0.25;0.0;0.5;0.25;0.0;-0.234375;0.025879;0.988281;-0.84;0.63;0.56;352.0;-0.317706;0.000573;5.5;9.25;4.25;5.5;0.25;0.75;0.0;0.25;0.0;0.25;0.25;0.0;0.5;0.0;0.0;0.0;-0.246094;0.041992;0.976074;-1.89;0.84;0.56;300.0;-0.321394;-0.083824
0.06;11.0;6.75;7.5;3.75;0.25;0.0;0.0;0.0;0.25;0.0;0.25;0.0;0.0;0.5;0.25;0.0;-0.229492;0.028809;0.98584;-0.77;0.49;0.63;346.0;-0.322359;0.004998;5.5;9.25;4.25;5.5;0.25;0.75;0.0;0.25;0.0;0.0;0.25;0.25;0.5;0.0;0.0;0.0;-0.243652;0.036621;0.972168;-1.82;0.84;0.49;300.0;-0.321617;-0.087259
0.07;11.25;7.0;7.75;3.75;0.25;0.0;0.0;0.0;0.0;0.0;0.25;0.0;0.0;0.25;0.25;0.25;-0.233398;0.028809;0.989746;-0.84;0.56;0.49;350.0;-0.331098;9.1e-05;5.25;9.5;4.25;5.5;0.25;0.75;0.0;0.25;0.0;0.0;0.0;0.0;0.25;0.25;0.0;0.0;-0.25;0.04248;0.971191;-1.68;0.56;0.63;294.0;-0.330322;-0.082407
0.08;11.25;6.75;7.75;3.75;0.25;0.0;0.0;0.0;0.0;0.0;0.25;0.0;0.0;0.0;0.25;0.25;-0.229492;0.030273;0.984863;-0.77;0.49;0.49;345.0;-0.335476;0.00011;5.5;9.5;4.25;5.5;0.25;0.75;0.0;0.25;0.0;0.0;0.0;0.0;0.25;0.25;0.0;0.0;-0.244629;0.037598;0.979492;-1.54;0.42;0.56;297.0;-0.331019;-0.080582
0.09;11.25;7.0;7.75;3.75;0.25;0.25;0.0;0.0;0.0;0.25;0.25;0.25;0.0;0.25;0.25;0.25;-0.22998;0.025391;0.985352;-0.98;0.42;0.56;359.0;-0.320739;-0.004047;5.75;9.5;4.25;5.5;0.25;0.75;0.0;0.25;0.0;0.0;0.25;0.0;0.25;0.0;0.0;0.0;-0.243652;0.039551;0.970215;-1.47;0.35;0.63;300.0;-0.332146;-0.081131
0.1;11.25;7.0;8.0;3.75;0.25;0.25;0.0;0.0;0.0;0.25;0.25;0.0;0.0;0.25;0.25;0.0;-0.22998;0.023926;0.987793;-1.26;0.63;0.49;357.0;-0.32737;0.000388;5.5;9.25;4.25;5.5;0.25;0.5;0.0;0.25;0.0;0.0;0.25;0.0;0.5;0.0;0.0;0.0;-0.244141;0.040039;0.970215;-1.47;0.49;0.56;294.0;-0.328539;-0.083339
0.11;11.25;6.75;8.0;3.5;0.25;0.25;0.0;0.0;0.0;0.25;0.25;0.0;0.0;0.25;0.25;0.0;-0.233887;0.020508;0.977051;-1.19;0.63;0.42;352.0;-0.327069;0.003502;5.5;9.25;4.25;5.5;0.25;0.75;0.0;0.25;0.0;0.25;0.25;0.0;0.25;0.0;0.0;0.0;-0.243164;0.037109;0.971191;-1.75;0.49;0.63;297.0;-0.325279;-0.080832
0.12;11.0;6.75;7.75;3.75;0.25;0.0;0.0;0.0;0.0;0.0;0.25;0.0;0.0;0.25;0.25;0.25;-0.235352;0.025879;0.988281;-1.4;0.84;0.42;344.0;-0.329878;0.000414;5.5;9.25;4.25;5.5;0.25;0.75;0.0;0.25;0.0;0.0;0.25;0.25;0.25;0.0;0.0;0.0;-0.242188;0.036621;0.975586;-1.89;0.63;0.63;297.0;-0.325504;-0.084295
0.13;11.5;6.75;7.75;3.75;0.25;0.0;0.0;0.0;0.0;0.0;0.5;0.25;0.0;0.25;0.25;0.0;-0.228027;0.02832;0.982422;-1.54;0.84;0.42;354.0;-0.325068;0.00011;5.5;9.25;4.25;5.5;0.25;0.5;0.0;0.25;0.0;0.0;0.25;0.0;0.25;0.25;0.0;0.0;-0.24707;0.033691;0.981934;-1.68;0.7;0.63;294.0;-0.326674;-0.078246
0.14;11.0;7.0;7.75;3.75;0.25;0.0;0.0;0.0;0.0;0.25;0.25;0.25;0.0;0.25;0.25;0.0;-0.234863;0.028809;0.98584;-1.47;0.91;0.42;351.0;-0.324374;-0.001374;5.75;9.25;4.25;5.75;0.25;0.5;0.0;0.25;0.0;0.0;0.25;0.0;0.5;0.0;0.0;0.0;-0.248535;0.041016;0.97998;-1.54;0.07;0.77;300.0;-0.328835;-0.082941
0.15;11.0;6.75;8.0;3.75;0.25;0.0;0.0;0.0;0.25;0.25;0.25;0.25;0.0;0.5;0.25;0.0;-0.231934;0.02832;0.980469;-1.61;0.91;0.35;358.0;-0.312632;0.004478;5.75;9.25;4.25;5.75;0.25;0.75;0.0;0.25;0.0;0.0;0.25;0.0;0.25;0.0;0.0;0.0;-0.246582;0.036621;0.974121;-1.05;-0.07;0.7;300.0;-0.330992;-0.081853
0.16;11.25;6.5;8.0;3.5;0.25;0.0;0.0;0.0;0.25;0.25;0.25;0.25;0.0;0.5;0.25;0.25;-0.233398;0.021484;0.988281;-1.61;0.98;0.21;356.0;-0.31003;0.00712;5.5;9.25;4.0;5.5;0.25;0.75;0.0;0.25;0.0;0.0;0.25;0.0;0.25;0.0;0.0;0.0;-0.242676;0.035645;0.977051;-1.19;0.0;0.7;291.0;-0.331421;-0.084023
0.17;11.25;6.5;8.0;3.5;0.25;0.25;0.0;0.0;0.25;0.25;0.25;0.25;0.0;0.5;0.5;0.25;-0.233887;0.022461;0.977539;-1.54;0.98;0.35;362.0;-0.303057;0.004115;5.5;9.25;4.0;5.5;0.25;0.75;0.0;0.25;0.0;0.0;0.0;0.0;0.25;0.0;0.0;0.0;-0.248535;0.040527;0.975098;-1.33;0.14;0.63;289.0;-0.336944;-0.083707
0.18;11.25;6.5;8.0;3.5;0.25;0.0;0.0;0.0;0.25;0.0;0.25;0.0;0.0;0.5;0.5;0.0;-0.229004;0.025391;0.987305;-1.54;1.12;0.28;352.0;-0.315703;0.009765;5.5;9.25;4.25;5.5;0.25;0.75;0.0;0.25;0.0;0.0;0.0;0.0;0.5;0.25;0.0;0.0;-0.24707;0.037598;0.974609;-1.26;-0.07;0.7;296.0;-0.326315;-0.082882
0.19;11.0;6.5;8.0;3.5;0.25;0.0;0.0;0.0;0.25;0.0;0.5;0.25;0.0;0.5;0.25;0.0;-0.229492;0.027832;0.981445;-1.61;1.12;0.35;352.0;-0.312191;0.006195;5.5;9.25;4.25;5.5;0.25;0.75;0.0;0.25;0.0;0.0;0.25;0.0;0.5;0.0;0.0;0.0;-0.241699;0.034668;0.975586;-1.19;-0.14;0.7;297.0;-0.326772;-0.085238
0.2;11.25;6.5;7.75;3.5;0.25;0.25;0.0;0.0;0.25;0.0;0.5;0.25;0.0;0.5;0.0;0.0;-0.233398;0.024414;0.983887;-1.61;1.05;0.28;352.0;-0.317837;0.004662;5.5;9.25;4.25;5.5;0.25;0.75;0.0;0.25;0.0;0.0;0.25;0.0;0.5;0.0;0.0;0.0;-0.248535;0.037109;0.974121;-1.12;-0.21;0.77;297.0;-0.326772;-0.085238
0.21;11.25;6.75;8.0;3.5;0.25;0.0;0.0;0.0;0.5;0.25;0.0;0.0;0.0;0.5;0.25;0.0;-0.231445;0.026855;0.98584;-1.68;1.19;0.28;355.0;-0.316407;0.013366;5.5;9.25;4.25;5.75;0.25;0.75;0.0;0.25;0.0;0.0;0.25;0.0;0.5;0.0;0.0;0.0;-0.243652;0.039062;0.971191;-0.84;-0.35;0.77;300.0;-0.32638;-0.086634
0.22;11.0;6.25;8.0;3.5;0.25;0.0;0.0;0.0;0.5;0.0;0.25;0.25;0.0;0.5;0.25;0.25;-0.232422;0.027832;0.980957;-1.61;1.12;0.28;352.0;-0.307204;0.0098;5.5;9.25;4.25;5.5;0.25;1.0;0.0;0.25;0.0;0.0;0.25;0.0;0.5;0.0;0.0;0.0;-0.243652;0.038086;0.974121;-0.77;-0.42;0.91;300.0;-0.32504;-0.087099
0.23;11.0;6.25;8.25;3.0;0.0;0.25;0.0;0.0;0.5;0.0;0.0;0.25;0.0;0.75;0.5;0.25;-0.234863;0.018555;0.987793;-1.61;1.12;0.21;351.0;-0.301169;0.013044;5.75;9.25;4.25;5.5;0.25;0.75;0.0;0.25;0.0;0.0;0.25;0.0;0.5;0.25;0.0;0.0;-0.251953;0.037598;0.972168;-0.84;-0.49;0.77;302.0;-0.321808;-0.081399
0.24;11.25;6.25;8.0;3.25;0.25;0.0;0.0;0.0;0.5;0.0;0.25;0.25;0.0;0.5;0.5;0.0;-0.231934;0.025391;0.988281;-1.54;1.12;0.35;353.0;-0.305141;0.013197;5.75;9.25;4.25;5.5;0.25;0.75;0.0;0.25;0.0;0.0;0.25;0.0;0.5;0.25;0.0;0.0;-0.244141;0.032715;0.970703;-0.84;-0.56;0.77;302.0;-0.321808;-0.081399
0.25;11.25;6.0;8.0;3.25;0.25;0.0;0.0;0.0;0.5;0.25;0.25;0.25;0.0;0.75;0.25;0.0;-0.233398;0.022949;0.984375;-1.47;1.12;0.21;353.0;-0.301018;0.016744;5.75;9.25;4.25;5.5;0.25;1.0;0.0;0.25;0.0;0.0;0.25;0.0;0.5;0.25;0.0;0.0;-0.24707;0.037598;0.973145;-0.56;-0.77;0.77;305.0;-0.320154;-0.083267
0.26;11.0;6.0;8.0;3.75;0.25;0.0;0.0;0.0;0.5;0.25;0.25;0.25;0.0;0.75;0.25;0.25;-0.230957;0.029297;0.987305;-1.12;0.77;0.42;358.0;-0.297241;0.010593;5.75;9.25;4.25;5.5;0.25;0.75;0.0;0.25;0.0;0.0;0.25;0.0;0.25;0.0;0.0;0.0;-0.245605;0.044434;0.965332;-0.63;-0.98;0.84;297.0;-0.331429;-0.080411
0.27;11.0;6.25;8.0;3.25;0.25;0.0;0.0;0.0;0.25;0.25;0.25;0.25;0.0;0.5;0.0;0.0;-0.231445;0.02832;0.985352;-0.98;0.7;0.49;344.0;-0.317548;0.011702;5.75;9.25;4.25;5.5;0.25;1.0;0.0;0.25;0.0;0.0;0.5;0.0;0.25;0.0;0.0;0.0;-0.244629;0.036133;0.976562;-0.63;-0.98;0.91;303.0;-0.324414;-0.082634
0.28;11.0;6.25;8.0;3.0;0.25;0.0;0.0;0.0;0.25;0.25;0.25;0.25;0.0;0.5;0.25;0.0;-0.234863;0.027344;0.995605;-0.7;0.56;0.49;344.0;-0.311762;0.012984;5.5;9.5;4.25;5.75;0.25;1.0;0.0;0.25;0.0;0.0;0.5;0.25;0.25;0.25;0.0;0.0;-0.247559;0.038086;0.969238;-0.42;-1.12;0.91;311.0;-0.313644;-0.086453
0.29;11.0;6.25;8.0;3.0;0.0;0.0;0.0;0.0;0.25;0.25;0.0;0.25;0.0;0.5;0.25;0.0;-0.237305;0.025391;0.98291;-0.77;0.49;0.63;338.0;-0.31797;0.013645;5.5;9.25;4.25;5.75;0.25;0.75;0.0;0.25;0.0;0.0;0.5;0.25;0.25;0.25;0.0;0.0;-0.245117;0.040527;0.966797;-0.63;-1.05;0.91;306.0;-0.314366;-0.083981
0.3;11.0;6.5;8.0;3.25;0.0;0.0;0.0;0.0;0.5;0.0;0.0;0.25;0.0;0.5;0.25;0.0;-0.22998;0.029297;0.986816;-0.63;0.56;0.56;344.0;-0.31707;0.012544;5.5;9.25;4.25;5.5;0.25;0.5;0.0;0.25;0.0;0.25;0.25;0.0;0.5;0.0;0.0;0.0;-0.244141;0.039551;0.970703;-0.77;-0.91;0.84;297.0;-0.323089;-0.081929
0.31;11.0;6.5;8.0;3.25;0.0;0.0;0.0;0.0;0.5;0.0;0.25;0.0;0.0;0.5;0.25;0.0;-0.230957;0.022949;0.977539;-0.84;0.56;0.63;344.0;-0.316966;0.01406;5.5;9.25;4.25;5.5;0.25;1.25;0.0;0.25;0.0;0.0;0.5;0.25;0.5;0.25;0.0;0.0;-0.244629;0.035156;0.973145;-0.91;-0.7;0.84;311.0;-0.307858;-0.089097
0.32;11.0;6.25;7.75;3.0;0.0;0.0;0.0;0.0;0.5;0.0;0.25;0.25;0.0;0.5;0.25;0.25;-0.233887;0.019043;0.985352;-0.7;0.42;0.63;340.0;-0.309531;0.012772;5.5;9.5;4.25;6.25;0.5;1.25;0.0;0.25;0.0;0.0;0.25;0.0;0.5;0.25;0.0;0.0;-0.245605;0.036621;0.973145;-1.05;-0.63;0.84;320.0;-0.31587;-0.090013
0.33;11.25;6.25;8.0;3.25;0.25;0.0;0.0;0.0;0.25;0.25;0.25;0.25;0.0;0.5;0.25;0.25;-0.232422;0.023926;0.98877;-0.7;0.56;0.63;351.0;-0.309455;0.010346;5.5;9.5;4.25;6.25;0.25;0.75;0.0;0.25;0.0;0.0;0.0;0.0;0.5;0.0;0.0;0.0;-0.247559;0.039551;0.977051;-0.84;-0.98;0.7;306.0;-0.331533;-0.089729
0.34;11.0;6.5;8.0;3.5;0.25;0.25;0.0;0.0;0.25;0.25;0.25;0.25;0.0;0.75;0.25;0.25;-0.233887;0.025391;0.983398;-0.49;0.42;0.63;359.0;-0.303313;0.005101;5.5;9.5;4.25;5.75;0.25;0.75;0.0;0.25;0.0;0.0;0.0;0.0;0.25;0.25;0.0;0.0;-0.245117;0.038574;0.973145;-1.05;-0.84;0.77;300.0;-0.330584;-0.082027
0.35;10.75;6.5;8.0;3.5;0.25;0.25;0.0;0.0;0.25;0.25;0.25;0.0;0.0;0.5;0.0;0.25;-0.237305;0.024902;0.981445;-0.56;0.42;0.63;348.0;-0.317374;0.006317;5.75;9.5;4.25;6.25;0.25;1.0;0.0;0.25;0.0;0.25;0.25;0.0;0.25;0.0;0.0;0.0;-0.243652;0.034668;0.972656;-1.12;-0.84;0.63;315.0;-0.324;-0.085743
0.36;10.75;6.25;8.0;3.25;0.25;0.25;0.0;0.0;0.25;0.25;0.25;0.25;0.0;0.5;0.0;0.25;-0.234863;0.02832;0.979004;-0.63;0.49;0.56;345.0;-0.312513;0.00706;5.5;9.25;4.25;6.25;0.5;1.0;0.0;0.25;0.0;0.0;0.25;0.0;0.5;0.0;0.0;0.0;-0.250488;0.036621;0.972168;-1.26;-0.63;0.7;312.0;-0.322038;-0.089646
0.37;11.0;6.0;8.0;3.25;0.25;0.0;0.0;0.0;0.5;0.25;0.25;0.0;0.0;0.5;0.25;0.0;-0.231445;0.01709;0.984375;-0.63;0.49;0.56;345.0;-0.309247;0.017517;5.5;9.0;4.25;6.0;0.5;1.0;0.0;0.25;0.0;0.0;0.25;0.0;0.5;0.0;0.0;0.0;-0.24707;0.037109;0.973145;-1.4;-0.42;0.7;306.0;-0.321597;-0.087692
0.38;11.25;6.25;8.0;3.25;0.25;0.25;0.0;0.0;0.25;0.25;0.0;0.25;0.0;0.5;0.25;0.0;-0.23291;0.021973;0.987305;-0.7;0.56;0.49;350.0;-0.315337;0.010342;5.5;9.25;4.25;6.0;0.25;1.0;0.0;0.25;0.0;0.0;0.0;0.0;0.25;0.0;0.0;0.0;-0.250488;0.034668;0.973633;-1.61;-0.42;0.7;301.0;-0.333406;-0.08664
0.39;11.0;6.25;8.0;3.25;0.25;0.25;0.0;0.0;0.25;0.25;0.0;0.0;0.0;0.5;0.25;0.25;-0.234375;0.024414;0.981445;-0.63;0.63;0.56;345.0;-0.316094;0.0107;5.5;9.5;4.0;5.75;0.25;0.75;0.0;0.25;0.0;0.0;0.25;0.0;0.25;0.0;0.0;0.0;-0.249023;0.037598;0.980957;-1.33;-0.35;0.77;297.0;-0.331702;-0.086142
0.4;10.75;6.5;8.0;3.25;0.25;0.0;0.0;0.0;0.25;0.25;0.25;0.0;0.0;0.5;0.25;0.0;-0.233887;0.02002;0.991211;-0.63;0.49;0.56;343.0;-0.315938;0.011395;5.5;9.5;4.25;5.75;0.25;0.75;0.0;0.0;0.0;0.0;0.5;0.0;0.25;0.0;0.0;0.0;-0.246094;0.036133;0.973633;-0.84;-0.98;0.77;299.0;-0.330138;-0.080376
0.41;11.25;6.25;8.25;3.5;0.25;0.0;0.0;0.0;0.25;0.0;0.25;0.25;0.0;0.5;0.25;0.0;-0.228516;0.026367;0.984375;-0.7;0.7;0.49;353.0;-0.316135;0.009958;5.75;9.5;4.25;6.0;0.25;0.75;0.0;0.0;0.0;0.0;0.25;0.0;0.25;0.25;0.0;0.0;-0.247559;0.038086;0.969238;-0.98;-0.91;0.77;304.0;-0.329961;-0.077736
0.42;11.0;6.25;8.0;3.5;0.25;0.0;0.0;0.0;0.25;0.25;0.25;0.25;0.0;0.75;0.25;0.0;-0.235352;0.02832;0.983887;-0.77;0.56;0.56;352.0;-0.306573;0.010018;5.5;9.5;4.25;6.0;0.5;0.75;0.0;0.25;0.0;0.25;0.25;0.0;0.25;0.0;0.0;0.0;-0.244629;0.033691;0.978027;-0.91;-0.77;0.7;309.0;-0.323351;-0.082944
0.43;11.0;6.0;7.75;3.25;0.25;0.25;0.0;0.0;0.25;0.0;0.25;0.25;0.0;0.75;0.0;0.0;-0.229492;0.022949;0.985352;-0.63;0.56;0.56;341.0;-0.315518;0.010534;5.5;9.5;4.25;6.0;0.25;0.75;0.0;0.25;0.0;0.0;0.25;0.0;0.25;0.0;0.0;0.0;-0.24707;0.04248;0.971191;-1.12;-0.7;0.84;303.0;-0.330599;-0.085749
0.44;11.0;6.0;7.75;3.25;0.25;0.0;0.0;0.0;0.25;0.0;0.25;0.0;0.0;0.75;0.0;0.0;-0.233398;0.027832;0.986328;-0.77;0.63;0.42;335.0;-0.321487;0.015691;5.75;9.5;4.25;6.0;0.25;0.75;0.0;0.25;0.0;0.0;0.25;0.0;0.5;0.0;0.0;0.0;-0.244141;0.032715;0.97168;-1.19;-0.63;0.77;308.0;-0.327448;-0.086835
0.45;11.0;6.0;7.75;3.25;0.0;0.0;0.0;0.0;0.25;0.0;0.25;0.0;0.0;0.75;0.25;0.25;-0.23291;0.023926;0.983398;-0.77;0.77;0.63;336.0;-0.314015;0.012997;5.75;9.25;4.25;6.0;0.5;0.75;0.0;0.25;0.0;0.0;0.25;0.25;0.25;0.0;0.0;0.0;-0.247559;0.036133;0.971191;-1.54;-0.42;0.77;309.0;-0.323539;-0.083842
0.46;10.75;6.0;7.75;3.25;0.0;0.0;0.0;0.0;0.5;0.0;0.0;0.0;0.0;0.75;0.25;0.25;-0.230957;0.019531;0.986816;-0.84;0.7;0.49;334.0;-0.311774;0.016086;5.5;9.25;4.25;6.0;0.25;0.75;0.0;0.25;0.0;0.0;0.0;0.25;0.25;0.0;0.0;0.0;-0.244629;0.037598;0.973633;-1.4;-0.28;0.7;301.0;-0.329994;-0.086799
0.47;11.0;6.0;7.5;3.25;0.25;0.0;0.0;0.0;0.25;0.0;0.0;0.25;0.0;0.75;0.25;0.0;-0.235352;0.022461;0.985352;-0.84;0.84;0.49;335.0;-0.31586;0.012623;5.25;9.25;4.25;5.75;0.25;0.75;0.0;0.25;0.0;0.0;0.0;0.25;0.5;0.25;0.0;0.0;-0.248535;0.030273;0.974609;-1.47;-0.21;0.63;299.0;-0.320042;-0.088163
0.48;10.5;6.0;7.75;3.25;0.25;0.0;0.0;0.0;0.0;0.0;0.25;0.0;0.0;0.5;0.25;0.25;-0.233398;0.025391;0.982422;-0.77;0.84;0.42;328.0;-0.322119;0.007763;5.5;9.25;4.25;6.25;0.25;0.75;0.0;0.25;0.0;0.0;0.25;0.0;0.5;0.0;0.0;0.0;-0.244141;0.037598;0.976562;-1.68;-0.14;0.63;306.0;-0.32562;-0.089344
0.49;10.75;6.5;7.75;3.25;0.25;0.0;0.0;0.0;0.25;0.25;0.25;0.0;0.0;0.5;0.25;0.25;-0.237305;0.023926;0.986328;-0.77;0.7;0.56;342.0;-0.313457;0.009292;5.5;9.0;4.25;6.25;0.5;0.75;0.0;0.25;0.0;0.0;0.0;0.25;0.25;0.25;0.0;0.0;-0.247559;0.03418;0.981445;-1.54;-0.28;0.7;306.0;-0.321235;-0.084043
0.5;11.0;6.0;8.0;2.75;0.25;0.0;0.0;0.0;0.25;0.25;0.25;0.25;0.0;0.75;0.25;0.25;-0.23584;0.025879;0.98877;-0.56;0.49;0.56;342.0;-0.303371;0.016092;5.5;9.25;4.25;6.0;0.5;1.0;0.0;0.25;0.0;0.0;0.25;0.0;0.25;0.25;0.0;0.0;-0.245117;0.034668;0.972168;-1.61;-0.21;0.63;309.0;-0.320598;-0.083487
0.51;11.0;5.75;8.0;3.25;0.25;0.25;0.0;0.0;0.5;0.25;0.25;0.0;0.0;0.5;0.25;0.0;-0.238281;0.023438;0.985352;-0.77;0.49;0.42;345.0;-0.30711;0.016355;5.5;9.5;4.25;5.75;0.25;1.0;0.0;0.25;0.0;0.0;0.25;0.0;0.25;0.0;0.0;0.25;-0.248535;0.032227;0.970703;-1.4;-0.28;0.63;305.0;-0.325917;-0.087315
0.52;11.0;6.25;7.5;3.25;0.25;0.0;0.0;0.0;0.5;0.25;0.25;0.0;0.0;0.5;0.25;0.0;-0.231445;0.017578;0.983398;-0.7;0.63;0.28;341.0;-0.310823;0.014878;5.5;9.25;4.25;5.75;0.25;0.75;0.0;0.25;0.0;0.25;0.25;0.0;0.25;0.0;0.0;0.0;-0.246582;0.03125;0.972656;-1.4;-0.28;0.7;300.0;-0.324903;-0.08227
0.53;11.0;6.0;7.75;3.25;0.25;0.0;0.0;0.0;0.5;0.25;0.5;0.25;0.0;0.5;0.25;0.25;-0.234375;0.018066;0.985352;-0.63;0.42;0.56;349.0;-0.298119;0.011803;5.5;9.0;4.25;5.5;0.25;0.75;0.0;0.25;0.0;0.25;0.25;0.25;0.25;0.25;0.0;0.0;-0.246582;0.036133;0.975586;-1.33;-0.35;0.7;300.0;-0.313669;-0.080178
0.54;10.75;5.75;7.75;3.25;0.25;0.0;0.0;0.0;0.5;0.25;0.25;0.25;0.0;0.75;0.25;0.25;-0.233398;0.032227;0.983398;-0.63;0.49;0.63;343.0;-0.29594;0.014496;5.5;9.25;4.25;5.5;0.25;0.75;0.0;0.25;0.0;0.0;0.25;0.0;0.25;0.25;0.0;0.0;-0.251465;0.033691;0.975098;-1.12;-0.63;0.7;297.0;-0.324926;-0.080196
0.55;10.75;5.75;8.0;3.25;0.25;0.0;0.0;0.0;0.5;0.25;0.25;0.0;0.0;0.75;0.25;0.25;-0.231934;0.023438;0.984375;-0.56;0.56;0.56;343.0;-0.299911;0.017766;5.5;9.25;4.25;6.0;0.25;0.75;0.0;0.25;0.0;0.25;0.25;0.0;0.25;0.25;0.0;0.25;-0.249023;0.034668;0.973145;-0.84;-0.84;0.77;307.0;-0.315659;-0.082813
0.56;10.75;6.0;7.75;3.5;0.25;0.0;0.0;0.0;0.5;0.25;0.25;0.0;0.0;0.75;0.0;0.0;-0.230469;0.03125;0.990234;-0.56;0.63;0.56;341.0;-0.309779;0.015916;5.25;9.25;4.25;6.25;0.25;0.75;0.0;0.25;0.0;0.0;0.25;0.0;0.25;0.0;0.0;0.0;-0.244141;0.033691;0.975098;-0.84;-0.91;0.7;301.0;-0.328763;-0.088294
0.57;11.0;6.0;7.75;3.5;0.25;0.0;0.0;0.0;0.5;0.0;0.25;0.25;0.0;0.5;0.0;0.0;-0.236816;0.02002;0.98584;-0.49;0.49;0.63;342.0;-0.315654;0.01256;5.5;9.25;4.25;5.75;0.25;0.75;0.0;0.25;0.0;0.0;0.25;0.0;0.5;0.0;0.0;0.0;-0.246582;0.039062;0.97998;-0.84;-0.84;0.63;300.0;-0.32638;-0.086634
0.58;10.5;6.0;8.0;3.25;0.25;0.0;0.0;0.0;0.5;0.0;0.25;0.0;0.0;0.5;0.0;0.0;-0.231934;0.022461;0.989258;-0.56;0.49;0.63;333.0;-0.318496;0.016427;5.75;9.25;4.25;5.5;0.25;0.75;0.0;0.25;0.0;0.0;0.25;0.0;0.5;0.0;0.0;0.0;-0.248535;0.035645;0.980469;-0.84;-0.84;0.7;300.0;-0.327495;-0.083406
0.59;10.5;6.0;7.5;3.0;0.25;0.0;0.0;0.0;0.5;0.25;0.25;0.0;0.0;0.5;0.25;0.0;-0.22998;0.023926;0.984375;-0.49;0.42;0.63;330.0;-0.30864;0.016826;5.5;9.0;4.25;5.75;0.25;0.75;0.0;0.0;0.0;0.0;0.25;0.0;0.25;0.25;0.0;0.0;-0.248535;0.032227;0.972168;-0.98;-0.7;0.77;293.0;-0.328194;-0.076512
0.6;10.75;6.0;7.75;3.25;0.25;0.0;0.0;0.0;0.25;0.25;0.25;0.0;0.0;0.5;0.5;0.0;-0.234863;0.029785;0.983887;-0.7;0.42;0.49;338.0;-0.308761;0.012546;5.5;9.25;4.25;5.75;0.5;0.75;0.0;0.0;0.0;0.0;0.25;0.0;0.25;0.0;0.0;0.0;-0.245117;0.03418;0.967285;-0.98;-0.63;0.77;296.0;-0.332694;-0.077869
0.61;10.75;6.0;8.25;3.25;0.25;0.0;0.0;0.0;0.25;0.0;0.25;0.25;0.0;0.5;0.5;0.0;-0.238281;0.024902;0.987793;-0.49;0.42;0.56;344.0;-0.30819;0.010899;5.75;9.25;4.25;6.0;0.5;0.75;0.0;0.25;0.0;0.0;0.25;0.25;0.25;0.0;0.0;0.0;-0.245117;0.032227;0.970703;-0.91;-0.7;0.7;309.0;-0.323539;-0.083842
0.62;10.75;6.25;8.5;3.25;0.25;0.0;0.0;0.0;0.5;0.0;0.25;0.25;0.0;0.25;0.25;0.0;-0.23291;0.023438;0.985352;-0.7;0.63;0.56;348.0;-0.313497;0.012662;5.75;9.25;4.25;5.5;0.5;0.75;0.0;0.25;0.0;0.25;0.25;0.0;0.25;0.0;0.0;0.0;-0.244629;0.03418;0.971191;-0.91;-0.63;0.77;303.0;-0.324029;-0.077655
0.63;10.75;6.25;8.25;3.25;0.25;0.0;0.0;0.0;0.5;0.0;0.25;0.25;0.0;0.25;0.25;0.0;-0.234375;0.021973;0.985352;-0.7;0.56;0.56;345.0;-0.313921;0.011986;5.75;9.25;4.25;5.5;0.5;1.0;0.0;0.25;0.0;0.25;0.25;0.0;0.25;0.0;0.0;0.0;-0.248535;0.03418;0.975586;-0.84;-0.77;0.77;306.0;-0.32236;-0.079552
0.64;10.75;6.0;7.75;3.25;0.25;0.0;0.0;0.0;0.5;0.0;0.25;0.25;0.0;0.5;0.25;0.25;-0.234863;0.026367;0.987305;-0.84;0.63;0.56;340.0;-0.306141;0.011633;5.75;9.0;4.25;5.75;0.5;1.0;0.0;0.25;0.0;0.0;0.25;0.0;0.25;0.0;0.0;0.0;-0.241211;0.033691;0.976562;-0.98;-0.77;0.63;304.0;-0.326499;-0.08161
0.65;11.0;6.0;7.75;3.0;0.25;0.0;0.0;0.0;0.5;0.0;0.25;0.25;0.0;0.5;0.0;0.25;-0.229492;0.028809;0.983398;-0.84;0.63;0.49;337.0;-0.313184;0.015347;5.5;9.0;4.25;5.5;0.5;1.0;0.0;0.25;0.0;0.0;0.0;0.0;0.25;0.25;0.0;0.0;-0.25;0.035645;0.973633;-0.98;-0.7;0.63;297.0;-0.325704;-0.079624
0.66;11.0;6.0;7.75;3.0;0.25;0.0;0.0;0.0;0.5;0.25;0.5;0.0;0.0;0.75;0.25;0.0;-0.230957;0.020996;0.989258;-0.98;0.63;0.49;344.0;-0.300503;0.018966;5.5;9.25;4.25;5.75;0.5;1.0;0.0;0.25;0.0;0.0;0.0;0.0;0.25;0.25;0.0;0.0;-0.248535;0.03418;0.975098;-0.91;-0.63;0.63;303.0;-0.326084;-0.081781
0.67;10.75;5.75;7.75;3.25;0.25;0.0;0.0;0.0;0.5;0.0;0.25;0.0;0.0;0.5;0.25;0.0;-0.239746;0.021484;0.992676;-1.12;0.84;0.42;334.0;-0.312721;0.017078;5.5;9.25;4.25;5.5;0.25;0.75;0.0;0.25;0.0;0.0;0.25;0.0;0.25;0.25;0.0;0.0;-0.248535;0.035645;0.964844;-0.98;-0.63;0.7;297.0;-0.324926;-0.080196
0.68;11.0;6.0;7.25;3.25;0.25;0.0;0.0;0.0;0.5;0.25;0.5;0.0;0.0;0.5;0.0;0.25;-0.239258;0.022949;0.986328;-1.05;0.77;0.42;337.0;-0.309047;0.013831;5.5;9.25;4.25;5.5;0.25;0.75;0.0;0.25;0.0;0.25;0.0;0.25;0.5;0.25;0.0;0.0;-0.25;0.033203;0.974609;-1.05;-0.35;0.63;302.0;-0.315872;-0.08353
0.69;11.0;5.75;7.5;3.25;0.25;0.0;0.0;0.0;0.5;0.25;0.25;0.25;0.0;0.5;0.25;0.25;-0.23584;0.024414;0.983398;-1.05;0.84;0.42;341.0;-0.301935;0.013498;5.5;9.25;4.25;5.5;0.25;0.75;0.0;0.25;0.0;0.25;0.0;0.25;0.5;0.25;0.0;0.0;-0.252441;0.032715;0.972656;-1.12;-0.56;0.7;302.0;-0.315872;-0.08353
0.7;11.0;6.0;8.0;3.25;0.25;0.0;0.0;0.0;0.5;0.25;0.25;0.25;0.0;0.75;0.25;0.25;-0.233887;0.026855;0.984375;-1.05;0.77;0.49;352.0;-0.297406;0.014609;5.5;9.25;4.25;5.5;0.25;0.75;0.0;0.25;0.0;0.25;0.25;0.25;0.5;0.25;0.0;0.0;-0.247559;0.03125;0.973145;-1.26;-0.49;0.63;305.0;-0.310791;-0.083834
0.71;10.75;6.25;8.0;3.0;0.25;0.0;0.0;0.0;0.5;0.25;0.25;0.25;0.0;0.75;0.25;0.0;-0.233398;0.026855;0.985352;-1.12;0.98;0.35;347.0;-0.300305;0.015999;5.75;9.25;4.25;5.5;0.25;1.0;0.0;0.25;0.0;0.25;0.25;0.25;0.5;0.0;0.0;0.0;-0.246582;0.029785;0.974121;-1.4;-0.28;0.63;308.0;-0.315554;-0.085858
0.72;10.75;6.0;8.0;3.0;0.5;0.0;0.0;0.0;0.75;0.25;0.25;0.25;0.0;0.75;0.25;0.0;-0.234375;0.024414;0.984375;-1.26;0.91;0.42;351.0;-0.292296;0.02033;5.75;9.0;4.25;5.75;0.5;0.75;0.0;0.25;0.0;0.0;0.25;0.25;0.25;0.0;0.0;0.0;-0.246582;0.03418;0.969238;-1.47;-0.07;0.56;304.0;-0.323121;-0.081766
0.73;11.0;5.75;8.25;3.0;0.25;0.0;0.0;0.0;0.75;0.25;0.25;0.25;0.0;0.75;0.25;0.0;-0.234375;0.022949;0.98291;-1.4;0.98;0.35;351.0;-0.293492;0.022629;5.5;9.0;4.25;5.75;0.5;0.75;0.0;0.25;0.0;0.0;0.25;0.25;0.25;0.25;0.0;0.0;-0.246582;0.034668;0.97168;-1.54;0.14;0.56;303.0;-0.31674;-0.081559
0.74;10.5;5.75;8.25;3.0;0.25;0.0;0.25;0.0;0.75;0.0;0.25;0.25;0.0;0.75;0.25;0.0;-0.233887;0.025391;0.984863;-1.33;0.84;0.35;347.0;-0.291636;0.023496;5.5;8.5;4.25;5.5;0.5;0.75;0.0;0.25;0.0;0.0;0.25;0.25;0.25;0.25;0.0;0.25;-0.249512;0.033203;0.974609;-1.54;0.21;0.56;297.0;-0.311955;-0.079831
0.75;10.75;5.5;8.0;3.0;0.25;0.0;0.0;0.0;0.75;0.0;0.5;0.0;0.0;1.0;0.25;0.0;-0.237793;0.024902;0.986816;-1.33;1.05;0.21;342.0;-0.291464;0.024948;5.25;8.75;4.25;5.5;0.5;0.75;0.0;0.25;0.0;0.0;0.5;0.25;0.25;0.25;0.0;0.0;-0.242676;0.032227;0.975586;-1.54;0.07;0.49;298.0;-0.310152;-0.081538
0.76;10.75;5.5;8.0;3.0;0.25;0.0;0.0;0.0;1.0;0.25;0.25;0.0;0.0;0.75;0.25;0.0;-0.240234;0.022461;0.985352;-1.33;1.05;0.35;343.0;-0.290424;0.028007;5.25;8.5;4.25;5.5;0.5;0.75;0.0;0.25;0.0;0.0;0.5;0.25;0.5;0.25;0.0;0.0;-0.253418;0.03418;0.976074;-1.54;0.14;0.49;298.0;-0.305456;-0.083829
0.77;11.0;5.75;8.0;3.0;0.25;0.0;0.25;0.0;0.75;0.25;0.25;0.25;0.0;0.75;0.0;0.25;-0.233887;0.027344;0.986328;-1.19;0.84;0.42;351.0;-0.292314;0.024068;5.25;8.5;4.25;5.5;0.5;1.0;0.0;0.25;0.0;0.0;0.5;0.25;0.25;0.25;0.0;0.0;-0.252441;0.027344;0.969727;-1.4;-0.07;0.63;298.0;-0.307676;-0.082732
0.78;11.0;5.75;8.0;2.75;0.25;0.0;0.25;0.0;1.0;0.25;0.5;0.0;0.0;0.75;0.0;0.0;-0.239258;0.019043;0.980957;-1.26;0.84;0.42;350.0;-0.289406;0.031682;5.25;8.5;4.5;5.5;0.5;1.0;0.0;0.25;0.0;0.0;0.5;0.25;0.25;0.25;0.0;0.0;-0.249023;0.036133;0.97168;-1.4;-0.14;0.63;301.0;-0.307249;-0.08099
0.79;10.75;5.5;7.75;3.0;0.25;0.0;0.25;0.0;1.0;0.25;0.5;0.0;0.0;1.0;0.25;0.0;-0.232422;0.02832;0.98877;-1.12;0.7;0.42;350.0;-0.277386;0.029818;5.25;8.75;4.25;5.5;0.5;1.0;0.0;0.25;0.0;0.25;0.5;0.25;0.5;0.25;0.0;0.0;-0.250488;0.032715;0.973633;-1.12;-0.28;0.63;306.0;-0.299811;-0.084974
0.8;10.75;5.5;8.25;3.0;0.25;0.0;0.25;0.0;0.75;0.25;0.5;0.25;0.0;1.0;0.25;0.0;-0.23291;0.023438;0.98291;-0.98;0.56;0.56;355.0;-0.278609;0.025731;5.25;8.75;4.25;5.5;0.5;1.0;0.0;0.25;0.0;0.5;0.5;0.25;0.5;0.25;0.0;0.0;-0.252441;0.029785;0.969727;-1.26;-0.42;0.77;309.0;-0.294838;-0.083603
0.81;11.0;5.75;8.25;2.75;0.25;0.0;0.25;0.0;1.0;0.0;0.5;0.25;0.0;1.25;0.5;0.0;-0.231934;0.018066;0.985352;-0.91;0.56;0.49;363.0;-0.269429;0.029384;5.5;8.5;4.25;5.5;0.25;1.0;0.0;0.25;0.0;0.25;0.5;0.25;0.5;0.25;0.0;0.0;-0.253906;0.035156;0.971191;-1.05;-0.42;0.56;303.0;-0.301532;-0.083938
0.82;10.75;5.75;8.0;3.0;0.25;0.0;0.25;0.0;0.75;0.0;0.25;0.25;0.0;1.0;0.25;0.0;-0.234375;0.023438;0.986816;-0.77;0.63;0.56;349.0;-0.288086;0.02464;5.25;8.5;4.25;5.5;0.5;1.0;0.0;0.25;0.0;0.0;0.25;0.25;0.5;0.25;0.0;0.25;-0.254395;0.030273;0.968262;-1.19;-0.42;0.7;299.0;-0.305714;-0.086539
0.83;10.75;5.5;8.0;3.0;0.25;0.0;0.25;0.0;0.75;0.25;0.25;0.5;0.0;1.0;0.25;0.0;-0.235352;0.019531;0.981934;-0.84;0.63;0.49;352.0;-0.278828;0.023698;5.25;8.5;4.25;5.5;0.5;1.0;0.0;0.25;0.0;0.25;0.25;0.25;0.25;0.25;0.25;0.0;-0.256836;0.032715;0.980957;-0.98;-0.49;0.7;301.0;-0.300761;-0.081027
0.84;10.75;5.5;8.0;2.75;0.25;0.0;0.25;0.0;1.0;0.0;0.25;0.25;0.0;1.0;0.5;0.0;-0.238281;0.02002;0.981934;-0.91;0.63;0.49;350.0;-0.275896;0.029831;5.5;8.5;4.25;5.5;0.5;1.0;0.0;0.25;0.0;0.25;0.5;0.25;0.25;0.25;0.0;0.25;-0.253906;0.03125;0.979492;-1.05;-0.63;0.77;305.0;-0.300219;-0.080712
0.85;11.0;5.5;8.0;3.0;0.25;0.0;0.0;0.0;1.0;0.0;0.25;0.0;0.0;1.0;0.25;0.0;-0.238281;0.019531;0.984863;-0.84;0.49;0.49;346.0;-0.290992;0.029379;5.5;8.5;4.25;5.5;0.5;0.75;0.0;0.25;0.0;0.0;0.5;0.5;0.5;0.25;0.0;0.0;-0.25;0.036621;0.971191;-0.91;-0.56;0.7;303.0;-0.301478;-0.084044
0.86;11.0;5.75;8.0;2.75;0.25;0.0;0.0;0.0;1.0;0.25;0.25;0.0;0.0;1.0;0.0;0.25;-0.236816;0.025391;0.987305;-0.98;0.7;0.42;347.0;-0.290571;0.029896;5.25;8.5;4.25;5.25;0.25;0.75;0.0;0.25;0.0;0.0;0.5;0.25;0.25;0.25;0.0;0.0;-0.253418;0.031738;0.975098;-0.91;-0.63;0.7;289.0;-0.311375;-0.080797
0.87;10.75;5.75;8.0;2.75;0.25;0.0;0.25;0.0;1.25;0.25;0.25;0.0;0.0;1.0;0.25;0.25;-0.230957;0.022461;0.989746;-0.84;0.56;0.49;354.0;-0.274197;0.033297;5.5;8.25;4.25;5.25;0.25;1.0;0.0;0.25;0.0;0.25;0.5;0.0;0.5;0.25;0.25;0.0;-0.247559;0.034668;0.978027;-0.77;-0.56;0.63;298.0;-0.298815;-0.079757
0.88;10.75;5.75;8.25;3.0;0.25;0.0;0.25;0.0;1.25;0.0;0.25;0.25;0.0;1.0;0.25;0.0;-0.234375;0.023926;0.98291;-0.84;0.42;0.56;359.0;-0.277047;0.030162;5.25;8.5;4.25;5.5;0.25;0.75;0.0;0.25;0.0;0.25;0.5;0.25;0.5;0.25;0.25;0.0;-0.252441;0.028809;0.975098;-0.84;-0.7;0.7;300.0;-0.295283;-0.083866
0.89;11.0;5.75;8.25;3.0;0.25;0.0;0.25;0.0;1.25;0.25;0.25;0.25;0.0;1.0;0.5;0.0;-0.234863;0.023926;0.98291;-1.05;0.63;0.42;368.0;-0.26868;0.030154;5.0;8.25;4.25;5.25;0.25;0.75;0.0;0.25;0.0;0.25;0.5;0.25;0.25;0.25;0.25;0.0;-0.255371;0.033203;0.974609;-0.84;-0.7;0.7;290.0;-0.297028;-0.080501
0.9;10.75;5.75;8.25;2.75;0.25;0.0;0.25;0.0;1.25;0.25;0.25;0.25;0.0;0.75;0.25;0.0;-0.239258;0.02002;0.982422;-0.91;0.63;0.49;357.0;-0.277323;0.031615;5.0;8.25;4.25;5.5;0.5;0.75;0.0;0.25;0.0;0.25;0.5;0.25;0.25;0.5;0.0;0.0;-0.25;0.033203;0.972168;-0.84;-0.84;0.7;295.0;-0.296448;-0.078478
0.91;10.75;5.5;8.0;2.75;0.25;0.0;0.25;0.0;1.5;0.25;0.5;0.25;0.0;0.75;0.0;0.25;-0.234863;0.023926;0.983887;-0.91;0.56;0.49;356.0;-0.269896;0.033253;5.25;8.25;4.25;5.5;0.5;0.75;0.0;0.25;0.25;0.25;0.5;0.25;0.5;0.25;0.0;0.0;-0.248535;0.03125;0.97168;-0.77;-0.77;0.7;301.0;-0.292714;-0.0775
0.92;11.0;5.5;8.0;2.75;0.5;0.0;0.25;0.0;1.25;0.0;0.5;0.25;0.0;0.75;0.5;0.25;-0.234863;0.024414;0.986816;-1.12;0.63;0.49;361.0;-0.268214;0.02962;5.5;8.5;4.25;5.5;0.5;0.75;0.0;0.25;0.25;0.25;0.5;0.25;0.5;0.25;0.0;0.0;-0.25293;0.032715;0.974121;-0.77;-0.84;0.7;307.0;-0.294753;-0.07651
0.93;11.0;5.5;8.25;3.0;0.25;0.0;0.25;0.0;1.0;0.25;0.5;0.25;0.0;0.75;0.5;0.25;-0.23584;0.024414;0.984863;-0.98;0.63;0.42;364.0;-0.270714;0.02562;5.5;8.5;4.25;5.25;0.5;1.0;0.0;0.25;0.0;0.25;0.5;0.25;0.5;0.25;0.0;0.0;-0.253906;0.03418;0.973633;-0.77;-0.7;0.7;303.0;-0.299927;-0.081107
0.94;10.75;5.5;8.25;3.0;0.25;0.0;0.25;0.0;1.25;0.25;0.5;0.0;0.0;0.75;0.25;0.25;-0.230957;0.025879;0.98584;-1.12;0.56;0.49;359.0;-0.27369;0.03089;5.25;8.25;4.25;5.25;0.75;1.0;0.0;0.25;0.0;0.25;0.5;0.25;0.5;0.25;0.0;0.0;-0.25;0.03418;0.970215;-0.77;-0.91;0.77;301.0;-0.296234;-0.08076
0.95;10.5;5.75;8.0;2.75;0.25;0.0;0.25;0.0;1.5;0.25;0.25;0.25;0.0;0.75;0.5;0.25;-0.232422;0.019531;0.984375;-1.05;0.63;0.42;359.0;-0.262999;0.0306;5.25;8.5;4.25;5.5;0.5;0.75;0.0;0.25;0.0;0.25;0.5;0.25;0.5;0.25;0.0;0.0;-0.24707;0.028809;0.97168;-0.77;-0.91;0.77;300.0;-0.300292;-0.082432
0.96;10.75;5.5;8.5;3.0;0.25;0.0;0.25;0.0;1.5;0.25;0.25;0.0;0.0;0.75;0.5;0.25;-0.231934;0.026855;0.986328;-1.12;0.63;0.42;365.0;-0.266995;0.034024;5.25;8.5;4.25;5.5;0.5;0.75;0.0;0.25;0.0;0.25;0.5;0.25;0.5;0.25;0.0;0.0;-0.249512;0.032227;0.972656;-0.77;-0.84;0.77;300.0;-0.300292;-0.082432
0.97;11.0;5.5;8.5;3.0;0.25;0.0;0.25;0.0;1.5;0.25;0.25;0.0;0.0;1.0;0.5;0.25;-0.229004;0.019531;0.980957;-1.05;0.63;0.49;370.0;-0.263776;0.035498;5.5;8.5;4.25;5.5;0.75;1.0;0.0;0.25;0.0;0.0;0.5;0.25;0.5;0.25;0.0;0.0;-0.256348;0.034668;0.970215;-0.77;-0.84;0.7;306.0;-0.303108;-0.082464
0.98;11.0;6.0;8.0;2.75;0.25;0.0;0.25;0.0;1.5;0.25;0.25;0.0;0.0;1.0;0.5;0.0;-0.23584;0.018066;0.984375;-1.19;0.56;0.49;365.0;-0.268201;0.035371;5.5;8.25;4.25;5.5;0.5;0.75;0.0;0.25;0.0;0.25;0.5;0.25;0.5;0.5;0.0;0.25;-0.25;0.036621;0.974609;-0.63;-0.91;0.77;305.0;-0.291637;-0.079103
0.99;11.0;5.5;8.25;2.75;0.25;0.0;0.0;0.0;1.5;0.25;0.5;0.25;0.0;1.0;0.25;0.0;-0.23291;0.016602;0.989258;-1.12;0.56;0.49;362.0;-0.267721;0.033367;5.5;8.5;4.25;5.5;0.5;0.75;0.0;0.25;0.0;0.0;0.5;0.25;0.5;0.5;0.0;0.0;-0.247559;0.028809;0.972168;-0.7;-0.84;0.77;303.0;-0.300866;-0.080024
1.0;10.75;5.5;8.25;2.75;0.25;0.0;0.0;0.0;1.5;0.25;0.5;0.25;0.0;1.0;0.25;0.0;-0.234375;0.013672;0.987793;-1.19;0.63;0.35;359.0;-0.266652;0.032771;5.5;8.5;4.25;5.5;0.25;0.75;0.0;0.25;0.0;0.25;0.5;0.25;0.5;0.5;0.0;0.0;-0.249023;0.031738;0.971191;-0.7;-0.84;0.84;303.0;-0.297522;-0.080074
1.01;11.0;5.5;8.0;2.75;0.25;0.0;0.25;0.0;1.25;0.25;0.5;0.25;0.0;1.0;0.25;0.25;-0.231934;0.01709;0.985352;-1.05;0.63;0.42;361.0;-0.266383;0.031468;5.5;8.5;4.25;5.25;0.25;0.5;0.0;0.25;0.0;0.25;0.5;0.25;0.5;0.75;0.25;0.0;-0.248535;0.033203;0.968262;-0.7;-0.91;0.77;302.0;-0.286894;-0.074772
1.02;11.0;5.5;8.0;2.75;0.25;0.0;0.25;0.0;1.25;0.0;0.5;0.25;0.0;1.0;0.5;0.25;-0.241699;0.01709;0.991211;-0.98;0.63;0.49;361.0;-0.26502;0.030309;5.5;8.25;4.25;5.5;0.5;0.75;0.0;0.25;0.0;0.25;0.5;0.25;0.5;0.5;0.0;0.0;-0.250488;0.034668;0.973145;-0.7;-0.84;0.7;303.0;-0.294826;-0.077958
1.03;10.75;5.5;8.25;2.75;0.25;0.0;0.25;0.0;1.25;0.0;0.5;0.25;0.0;1.0;0.5;0.0;-0.237305;0.01709;0.98584;-1.05;0.49;0.56;359.0;-0.266514;0.031609;5.25;8.25;4.25;5.5;0.5;0.75;0.0;0.25;0.0;0.25;0.5;0.25;0.5;0.5;0.0;0.0;-0.248535;0.029785;0.97168;-0.77;-0.91;0.7;300.0;-0.293803;-0.079718
1.04;10.75;5.0;8.0;2.75;0.25;0.0;0.25;0.0;1.5;0.25;0.5;0.25;0.0;1.0;0.5;0.0;-0.234375;0.020996;0.989746;-0.91;0.49;0.42;358.0;-0.255147;0.036589;5.0;8.25;4.25;5.5;0.5;0.75;0.0;0.25;0.0;0.0;0.5;0.25;0.5;0.75;0.0;0.0;-0.249023;0.025879;0.969238;-0.77;-0.98;0.77;297.0;-0.29235;-0.080877
1.05;11.25;5.5;8.0;2.75;0.25;0.0;0.25;0.0;1.5;0.25;0.5;0.25;0.0;1.5;0.25;0.25;-0.238281;0.018066;0.986328;-0.91;0.42;0.49;372.0;-0.25391;0.036224;5.5;8.25;4.25;5.5;0.5;0.75;0.0;0.25;0.0;0.0;0.5;0.25;0.5;0.75;0.0;0.25;-0.250977;0.027832;0.973145;-0.7;-0.98;0.77;304.0;-0.291235;-0.078479
1.06;10.75;5.5;8.0;2.5;0.25;0.0;0.25;0.0;1.0;0.25;0.5;0.0;0.0;1.25;0.25;0.0;-0.230957;0.02002;0.986816;-0.91;0.63;0.49;349.0;-0.272519;0.035696;5.25;8.5;4.25;5.5;0.5;1.0;0.0;0.25;0.0;0.25;0.5;0.0;0.5;0.5;0.0;0.0;-0.251465;0.037109;0.96875;-0.7;-0.91;0.77;303.0;-0.298223;-0.080281
1.07;10.5;5.25;8.25;2.5;0.25;0.0;0.25;0.0;1.5;0.5;0.5;0.0;0.0;1.25;0.25;0.0;-0.231934;0.019043;0.983398;-0.77;0.49;0.49;357.0;-0.255712;0.042008;5.25;8.25;4.25;5.25;0.5;0.75;0.0;0.25;0.0;0.0;0.5;0.25;0.5;0.5;0.25;0.0;-0.248047;0.030273;0.966309;-0.7;-0.84;0.77;297.0;-0.29221;-0.079651
1.08;10.75;5.5;8.0;2.5;0.25;0.0;0.25;0.0;1.75;0.5;0.5;0.0;0.0;1.25;0.25;0.0;-0.23877;0.018555;0.984375;-0.91;0.49;0.42;363.0;-0.252849;0.042977;5.25;8.25;4.25;5.25;0.5;1.0;0.0;0.25;0.0;0.25;0.5;0.25;0.5;0.25;0.25;0.0;-0.251953;0.030762;0.97168;-0.63;-0.84;0.77;301.0;-0.291232;-0.082192
1.09;11.0;5.5;8.0;2.5;0.25;0.0;0.25;0.0;1.25;0.25;0.25;0.0;0.0;1.25;0.25;0.0;-0.236328;0.024414;0.984375;-0.84;0.56;0.56;353.0;-0.272247;0.039933;5.5;8.25;4.25;5.5;0.5;1.0;0.0;0.25;0.0;0.0;0.5;0.25;0.5;0.25;0.5;0.0;-0.253418;0.035156;0.970215;-0.7;-0.91;0.84;307.0;-0.290626;-0.083179
1.1;10.25;5.5;8.25;2.5;0.25;0.0;0.25;0.0;1.25;0.25;0.5;0.25;0.0;1.25;0.5;0.0;-0.231934;0.022461;0.987793;-0.84;0.63;0.49;356.0;-0.25568;0.033752;5.5;8.5;4.25;5.5;0.5;1.0;0.0;0.25;0.0;0.0;0.5;0.25;0.5;0.5;0.0;0.0;-0.248535;0.02832;0.96875;-0.77;-0.84;0.77;306.0;-0.299419;-0.0819
1.11;10.5;5.5;8.25;2.75;0.25;0.0;0.25;0.0;1.5;0.0;0.5;0.25;0.0;1.25;0.25;0.0;-0.234863;0.020996;0.981934;-0.77;0.42;0.49;359.0;-0.261225;0.035266;5.5;8.5;4.25;5.5;0.5;0.75;0.0;0.25;0.0;0.25;0.5;0.25;0.5;0.5;0.0;0.0;-0.25293;0.033203;0.964355;-0.7;-0.91;0.84;306.0;-0.295831;-0.078685
1.12;10.75;5.5;8.25;2.75;0.5;0.0;0.25;0.0;1.5;0.25;0.5;0.25;0.0;1.25;0.25;0.0;-0.237305;0.025879;0.981934;-0.77;0.7;0.56;368.0;-0.257336;0.036266;5.5;8.25;4.25;5.25;0.5;0.75;0.0;0.25;0.0;0.25;0.5;0.25;0.5;0.5;0.0;0.0;-0.250977;0.032227;0.972656;-0.7;-0.91;0.84;300.0;-0.294898;-0.076489
1.13;10.75;5.5;8.25;2.5;0.5;0.0;0.25;0.0;1.5;0.25;0.25;0.0;0.0;1.25;0.25;0.0;-0.228027;0.023926;0.985352;-0.7;0.63;0.56;359.0;-0.26467;0.04232;5.75;8.25;4.25;5.25;0.5;0.75;0.0;0.25;0.0;0.25;0.5;0.25;0.5;0.5;0.0;0.25;-0.252441;0.029785;0.972168;-0.77;-0.84;0.77;304.0;-0.292716;-0.07592
1.14;10.75;5.5;8.25;2.75;0.25;0.0;0.25;0.0;1.5;0.0;0.25;0.0;0.0;1.25;0.25;0.0;-0.23584;0.021973;0.985352;-0.7;0.56;0.63;357.0;-0.270061;0.039741;5.25;8.25;4.25;5.5;0.5;1.0;0.0;0.25;0.0;0.25;0.5;0.25;0.5;0.75;0.0;0.25;-0.250977;0.028809;0.978516;-0.84;-0.84;0.77;307.0;-0.283932;-0.080771
1.15;10.75;5.25;8.0;2.75;0.25;0.0;0.25;0.0;1.25;0.0;0.5;0.25;0.0;1.25;0.0;0.0;-0.232422;0.022949;0.981445;-0.63;0.56;0.49;350.0;-0.271975;0.03536;5.25;8.25;4.25;5.5;0.5;0.75;0.0;0.25;0.0;0.0;0.75;0.25;0.5;0.5;0.0;0.25;-0.250977;0.031738;0.963379;-0.7;-0.91;0.77;302.0;-0.290696;-0.082561
1.16;10.75;5.5;8.25;2.75;0.25;0.0;0.25;0.0;1.5;0.25;0.5;0.0;0.0;1.25;0.25;0.0;-0.235352;0.025391;0.98291;-0.7;0.49;0.56;362.0;-0.26214;0.038702;5.25;8.25;4.25;5.5;0.5;1.0;0.0;0.25;0.0;0.0;0.75;0.25;0.5;0.5;0.0;0.0;-0.254883;0.031738;0.975098;-0.7;-0.98;0.77;303.0;-0.292519;-0.083301
1.17;11.0;5.25;8.25;2.5;0.25;0.0;0.25;0.0;1.5;0.25;0.5;0.0;0.0;1.0;0.25;0.0;-0.230957;0.023438;0.980469;-0.7;0.56;0.42;357.0;-0.266339;0.042011;5.25;8.25;4.25;5.5;0.5;1.0;0.0;0.25;0.0;0.25;0.75;0.25;0.5;0.75;0.0;0.25;-0.249512;0.02832;0.970215;-0.77;-0.77;0.77;310.0;-0.279226;-0.081096
1.18;10.75;5.25;8.25;2.5;0.25;0.0;0.25;0.0;1.5;0.25;0.5;0.0;0.0;1.0;0.25;0.25;-0.231934;0.029297;0.983887;-0.77;0.49;0.56;356.0;-0.262641;0.039998;5.25;8.5;4.25;5.25;0.5;1.0;0.0;0.25;0.0;0.25;0.75;0.5;0.5;0.5;0.0;0.25;-0.25;0.035645;0.96875;-0.77;-0.91;0.77;310.0;-0.280902;-0.084328
1.19;10.75;5.25;8.25;3.0;0.25;0.0;0.25;0.0;1.25;0.25;0.5;0.0;0.0;1.25;0.5;0.25;-0.230469;0.021484;0.990234;-0.7;0.56;0.56;364.0;-0.258562;0.033241;5.25;8.25;4.25;5.5;0.5;0.75;0.0;0.25;0.0;0.25;0.75;0.5;0.5;0.5;0.0;0.25;-0.254883;0.036621;0.965332;-0.84;-0.98;0.84;307.0;-0.281099;-0.083204
1.2;10.75;5.25;8.25;2.75;0.25;0.0;0.25;0.0;1.5;0.25;0.5;0.0;0.0;1.75;0.25;0.25;-0.255859;0.016602;0.977051;-0.63;0.63;0.49;366.0;-0.249993;0.04045;5.5;8.25;4.25;5.5;0.5;0.75;0.0;0.25;0.25;0.0;0.75;0.25;0.5;0.5;0.0;0.25;-0.258301;0.031738;0.974609;-0.77;-0.91;0.84;308.0;-0.28538;-0.076661
1.21;10.75;5.25;8.25;2.75;0.25;0.0;0.25;0.0;1.5;0.25;0.5;0.0;0.0;1.25;0.25;0.25;-0.23291;0.020996;0.980957;-0.7;0.56;0.42;361.0;-0.258509;0.038685;5.5;8.25;4.25;5.5;0.5;1.0;0.0;0.25;0.0;0.25;0.75;0.25;0.5;0.5;0.25;0.5;-0.248047;0.030762;0.972656;-0.77;-1.05;0.77;315.0;-0.276177;-0.082401
1.22;11.0;5.5;8.0;2.75;0.25;0.0;0.25;0.0;1.5;0.0;0.5;0.0;0.0;1.25;0.25;0.25;-0.231934;0.018066;0.982422;-0.63;0.49;0.56;361.0;-0.264623;0.037179;5.25;8.5;4.25;5.5;0.5;1.0;0.0;0.25;0.0;0.0;0.5;0.25;0.5;0.5;0.0;0.25;-0.245605;0.032715;0.973145;-0.77;-0.84;0.84;304.0;-0.29524;-0.0848
1.23;10.75;5.5;8.0;2.75;0.5;0.0;0.25;0.0;1.5;0.25;0.5;0.25;0.0;1.5;0.25;0.0;-0.231445;0.024414;0.986328;-0.77;0.63;0.49;367.0;-0.253036;0.03672;5.25;8.5;4.25;5.5;0.5;0.5;0.0;0.25;0.0;0.0;0.5;0.0;0.5;0.75;0.0;0.25;-0.247559;0.029785;0.969727;-0.84;-0.91;0.84;298.0;-0.297463;-0.076959
1.24;10.75;5.25;8.25;2.75;0.5;0.0;0.25;0.0;1.5;0.25;0.5;0.25;0.0;1.25;0.5;0.0;-0.235352;0.021484;0.984375;-0.63;0.49;0.63;368.0;-0.251074;0.036729;5.25;8.5;4.25;5.5;0.5;0.75;0.0;0.25;0.0;0.0;0.5;0.25;0.5;0.5;0.0;0.25;-0.24707;0.035645;0.972656;-0.77;-0.91;0.7;301.0;-0.296652;-0.082944
1.25;10.75;5.5;8.25;2.75;0.5;0.0;0.25;0.0;1.5;0.25;0.25;0.25;0.0;1.0;0.25;0.25;-0.234375;0.025879;0.983887;-0.63;0.35;0.56;364.0;-0.262884;0.035136;5.25;8.25;4.0;5.5;0.5;0.75;0.0;0.25;0.0;0.0;0.75;0.25;0.5;0.25;0.0;0.0;-0.25;0.036621;0.966797;-0.77;-0.91;0.77;295.0;-0.299765;-0.085228
1.26;10.75;5.25;8.0;2.5;0.5;0.0;0.25;0.0;1.5;0.25;0.5;0.25;0.0;1.0;0.0;0.0;-0.237305;0.02002;0.979004;-0.63;0.56;0.49;354.0;-0.265643;0.039489;5.0;8.5;4.25;5.5;0.5;0.75;0.0;0.25;0.25;0.0;0.75;0.25;0.5;0.25;0.25;0.0;-0.246582;0.035156;0.966309;-0.7;-0.84;0.77;304.0;-0.286215;-0.081695
1.27;10.75;5.25;8.0;2.5;0.5;0.0;0.25;0.0;1.75;0.25;0.5;0.0;0.0;1.0;0.25;0.0;-0.236816;0.01709;0.986816;-0.77;0.49;0.56;358.0;-0.258859;0.043563;5.0;8.25;4.25;5.5;0.5;0.75;0.0;0.25;0.0;0.0;0.75;0.25;0.25;0.25;0.0;0.0;-0.248535;0.033691;0.967285;-0.77;-0.84;0.7;293.0;-0.30218;-0.082257
1.28;10.75;5.25;8.25;2.75;0.5;0.0;0.25;0.0;1.5;0.25;0.5;0.0;0.0;1.0;0.25;0.25;-0.23291;0.020508;0.976562;-0.7;0.56;0.56;362.0;-0.261709;0.037981;5.25;8.25;4.25;5.5;0.5;0.75;0.0;0.25;0.0;0.0;0.75;0.25;0.25;0.25;0.0;0.0;-0.249512;0.032227;0.975098;-0.77;-0.84;0.77;296.0;-0.303148;-0.080428
1.29;11.25;5.25;8.0;2.75;0.5;0.0;0.25;0.0;1.25;0.25;0.5;0.25;0.0;1.0;0.5;0.25;-0.23584;0.020996;0.97998;-0.63;0.35;0.49;367.0;-0.259984;0.032781;5.5;8.25;4.25;5.5;0.5;0.75;0.0;0.25;0.0;0.25;0.5;0.25;0.5;0.0;0.0;0.0;-0.251953;0.034668;0.97168;-0.7;-0.84;0.77;298.0;-0.305831;-0.081935
1.3;11.0;5.25;8.0;2.75;0.5;0.0;0.25;0.0;1.25;0.25;0.5;0.25;0.0;1.0;0.5;0.25;-0.237305;0.019531;0.984375;-0.7;0.56;0.49;364.0;-0.258869;0.032189;5.5;8.0;4.25;5.5;0.5;0.75;0.0;0.5;0.0;0.0;0.5;0.25;0.5;0.25;0.0;0.0;-0.249512;0.028809;0.97168;-0.7;-0.91;0.77;300.0;-0.300435;-0.084905
1.31;11.0;4.5;8.25;2.75;0.25;0.0;0.25;0.0;1.25;0.25;0.5;0.0;0.0;1.25;0.5;0.0;-0.232422;0.021484;0.990723;-0.56;0.49;0.63;354.0;-0.258687;0.041735;5.5;8.25;4.25;5.5;0.5;0.75;0.0;0.25;0.0;0.25;0.75;0.25;0.5;0.25;0.0;0.0;-0.25293;0.033691;0.97168;-0.7;-0.91;0.77;304.0;-0.295329;-0.08027
1.32;11.0;5.0;8.25;2.5;0.5;0.0;0.25;0.0;1.75;0.25;0.5;0.0;0.0;1.0;0.25;0.0;-0.234375;0.016602;0.98584;-0.77;0.49;0.56;361.0;-0.258945;0.045923;5.5;8.25;4.25;5.5;0.5;0.75;0.0;0.25;0.0;0.25;0.75;0.5;0.5;0.25;0.25;0.0;-0.253906;0.035156;0.976562;-0.7;-0.84;0.84;309.0;-0.284114;-0.082293
1.33;11.0;5.5;8.25;2.5;0.5;0.0;0.25;0.0;1.75;0.25;0.5;0.25;0.0;1.25;0.25;0.0;-0.233887;0.02002;0.98877;-0.7;0.56;0.56;372.0;-0.253259;0.041218;5.5;7.75;4.25;5.5;0.5;0.75;0.0;0.25;0.0;0.0;0.75;0.5;0.5;0.25;0.25;0.25;-0.251465;0.035645;0.970215;-0.7;-0.77;0.84;303.0;-0.283677;-0.083399
1.34;11.0;5.5;8.25;2.5;0.25;0.0;0.0;0.0;1.25;0.0;0.5;0.25;0.0;1.25;0.25;0.0;-0.239746;0.013672;0.984375;-0.77;0.63;0.49;354.0;-0.272461;0.033821;5.5;8.0;4.25;5.5;0.5;0.75;0.0;0.25;0.25;0.0;0.75;0.75;0.75;0.5;0.25;0.0;-0.250488;0.030273;0.969727;-0.7;-0.84;0.84;315.0;-0.268619;-0.081763
1.35;10.5;5.25;8.25;2.5;0.25;0.0;0.0;0.0;1.5;0.0;0.5;0.25;0.0;0.75;0.5;0.0;-0.23291;0.018555;0.98584;-0.63;0.63;0.63;348.0;-0.267392;0.033644;5.5;8.25;4.25;5.5;0.75;1.0;0.0;0.25;0.0;0.25;0.75;0.25;0.75;0.75;0.0;0.0;-0.25293;0.032227;0.969727;-0.63;-0.84;0.77;317.0;-0.278534;-0.079792
1.36;10.75;5.25;8.25;2.5;0.5;0.0;0.25;0.0;1.5;0.0;0.5;0.0;0.0;0.75;0.5;0.0;-0.234375;0.022949;0.984863;-0.7;0.49;0.56;355.0;-0.26711;0.039577;5.5;8.25;4.25;5.5;0.75;0.75;0.0;0.25;0.0;0.0;0.5;0.25;0.75;0.25;0.0;0.0;-0.253418;0.033203;0.975586;-0.77;-0.91;0.77;303.0;-0.299976;-0.082845
1.37;11.0;5.25;8.25;2.75;0.25;0.0;0.25;0.0;1.75;0.25;0.5;0.0;0.0;1.0;0.5;0.0;-0.233398;0.021484;0.985352;-0.56;0.49;0.56;367.0;-0.256146;0.041125;5.5;8.0;4.25;5.5;0.75;0.75;0.0;0.25;0.0;0.0;0.5;0.25;0.75;0.25;0.0;0.0;-0.25;0.03125;0.969238;-0.7;-0.84;0.7;301.0;-0.298998;-0.082147
1.38;10.75;5.5;8.25;2.75;0.25;0.0;0.25;0.0;1.5;0.25;0.25;0.25;0.0;1.0;0.5;0.25;-0.235352;0.023926;0.987305;-0.56;0.56;0.56;364.0;-0.258742;0.033997;5.25;8.25;4.0;5.25;0.5;0.75;0.0;0.25;0.0;0.25;0.75;0.25;0.75;0.25;0.0;0.0;-0.25;0.028809;0.973145;-0.7;-0.84;0.77;297.0;-0.291002;-0.085375
1.39;10.75;5.5;8.25;2.75;0.5;0.0;0.25;0.0;1.25;0.25;0.25;0.25;0.0;1.25;0.5;0.25;-0.230957;0.018066;0.982422;-0.63;0.49;0.49;366.0;-0.258424;0.032786;5.0;8.25;4.25;5.25;0.5;0.75;0.0;0.25;0.0;0.25;0.5;0.25;0.75;0.5;0.0;0.0;-0.254883;0.029297;0.96875;-0.7;-0.77;0.84;297.0;-0.289146;-0.08308
1.4;11.0;5.5;8.25;2.75;0.5;0.0;0.25;0.0;1.5;0.25;0.25;0.25;0.0;1.25;0.5;0.0;-0.236816;0.016113;0.97998;-0.7;0.42;0.49;371.0;-0.257037;0.037078;5.5;8.25;4.25;5.25;0.5;0.75;0.0;0.25;0.0;0.25;0.75;0.25;0.5;0.25;0.0;0.25;-0.250488;0.03418;0.96875;-0.77;-0.77;0.63;302.0;-0.292189;-0.079978
1.41;11.0;5.5;8.0;2.75;0.5;0.0;0.25;0.0;1.5;0.25;0.25;0.25;0.0;1.0;0.5;0.0;-0.236328;0.021973;0.979004;-0.77;0.7;0.49;366.0;-0.261218;0.03575;5.5;8.25;4.25;5.5;0.5;0.75;0.0;0.25;0.0;0.25;0.75;0.25;0.5;0.25;0.0;0.25;-0.25;0.027832;0.96875;-0.77;-0.77;0.77;305.0;-0.292143;-0.081402
1.42;10.75;5.25;8.25;2.5;0.5;0.0;0.25;0.0;1.5;0.25;0.5;0.0;0.0;1.0;0.5;0.0;-0.22998;0.019531;0.986328;-0.77;0.63;0.56;360.0;-0.258727;0.04066;5.25;8.0;4.0;5.5;0.5;0.75;0.0;0.25;0.0;0.0;0.75;0.25;0.75;0.5;0.0;0.25;-0.25293;0.035645;0.978516;-0.77;-0.77;0.7;298.0;-0.286261;-0.086602
1.43;11.0;5.25;8.25;2.5;0.5;0.0;0.25;0.0;1.5;0.25;0.25;0.0;0.0;1.25;0.25;0.0;-0.240723;0.025391;0.981934;-0.77;0.63;0.49;360.0;-0.264696;0.044304;5.0;8.0;4.25;5.25;0.5;1.0;0.0;0.25;0.25;0.25;0.75;0.25;0.75;0.25;0.0;0.0;-0.251465;0.027832;0.96582;-0.7;-0.91;0.7;301.0;-0.280769;-0.082337
1.44;11.0;5.25;8.0;2.5;0.5;0.0;0.0;0.0;1.5;0.25;0.5;0.0;0.0;1.0;0.25;0.0;-0.237793;0.019531;0.98291;-0.63;0.42;0.63;353.0;-0.269191;0.039428;5.0;8.0;4.25;5.25;0.5;0.75;0.0;0.25;0.0;0.25;0.5;0.25;0.5;0.25;0.0;0.25;-0.254395;0.029785;0.971191;-0.77;-0.77;0.7;291.0;-0.294041;-0.082549
1.45;10.75;5.0;8.0;2.5;0.5;0.0;0.25;0.0;1.5;0.25;0.25;0.0;0.0;1.0;0.5;0.0;-0.23584;0.018555;0.98291;-0.77;0.56;0.56;352.0;-0.261477;0.042992;5.0;7.75;4.25;5.25;0.5;0.75;0.0;0.25;0.0;0.0;0.5;0.25;0.5;0.5;0.0;0.25;-0.254883;0.033691;0.972656;-0.7;-0.84;0.77;288.0;-0.292547;-0.081166
1.46;11.0;5.0;8.25;2.5;0.5;0.0;0.25;0.0;1.5;0.0;0.25;0.0;0.0;1.25;0.25;0.0;-0.229492;0.021973;0.984863;-0.77;0.42;0.56;354.0;-0.267666;0.045644;5.0;7.75;4.25;5.25;0.5;1.0;0.0;0.25;0.0;0.25;0.5;0.25;0.5;0.75;0.0;0.0;-0.245117;0.033203;0.97168;-0.77;-0.77;0.7;295.0;-0.283718;-0.078495
1.47;10.75;5.25;8.25;2.5;0.5;0.0;0.25;0.0;1.5;0.25;0.25;0.0;0.0;1.0;0.25;0.25;-0.233398;0.021484;0.985352;-0.7;0.63;0.56;356.0;-0.265408;0.041431;5.25;7.75;4.25;5.25;0.5;1.0;0.0;0.25;0.0;0.25;0.5;0.25;0.5;0.25;0.0;0.0;-0.25293;0.029297;0.972656;-0.77;-0.84;0.77;293.0;-0.295913;-0.080746
1.48;10.75;5.25;8.25;2.5;0.5;0.0;0.25;0.0;1.75;0.25;0.25;0.0;0.0;1.0;0.25;0.25;-0.234375;0.02002;0.988281;-0.7;0.56;0.56;360.0;-0.260219;0.043747;5.25;8.0;4.25;5.25;0.5;1.0;0.0;0.5;0.0;0.25;0.75;0.25;0.5;0.25;0.25;0.25;-0.254395;0.036133;0.968262;-0.84;-0.84;0.77;307.0;-0.278445;-0.087136
1.49;10.75;5.25;8.0;2.5;0.5;0.0;0.25;0.0;1.5;0.0;0.5;0.25;0.0;1.25;0.25;0.0;-0.236328;0.020996;0.984863;-0.77;0.49;0.56;357.0;-0.259853;0.039217;5.25;7.5;4.25;5.25;0.5;1.0;0.0;0.25;0.0;0.25;0.75;0.25;0.5;0.75;0.0;0.0;-0.25;0.029297;0.966797;-0.77;-0.84;0.7;298.0;-0.278835;-0.076333
1.5;11.0;5.5;8.0;2.5;0.5;0.0;0.25;0.0;1.5;0.0;0.5;0.0;0.0;1.5;0.25;0.0;-0.234375;0.016602;0.983398;-0.63;0.42;0.56;362.0;-0.26149;0.041894;4.75;7.75;4.0;5.25;0.5;0.75;0.0;0.25;0.0;0.25;0.5;0.25;0.5;0.75;0.0;0.0;-0.252441;0.026367;0.972656;-0.84;-0.84;0.7;286.0;-0.284097;-0.080117
1.51;10.75;5.25;8.0;2.5;0.5;0.0;0.25;0.0;1.5;0.25;0.25;0.0;0.0;1.5;0.25;0.0;-0.238281;0.020508;0.980469;-0.7;0.49;0.49;356.0;-0.259173;0.044276;4.75;7.75;4.25;5.25;0.5;0.75;0.0;0.25;0.25;0.25;0.75;0.25;0.5;0.25;0.0;0.0;-0.253418;0.032227;0.972656;-0.7;-0.77;0.7;291.0;-0.28336;-0.078447
1.52;10.75;5.25;8.0;2.75;0.5;0.0;0.25;0.0;1.5;0.0;0.25;0.25;0.0;1.25;0.0;0.25;-0.23291;0.015625;0.982422;-0.63;0.49;0.63;355.0;-0.266791;0.037745;4.75;7.5;4.25;5.25;0.5;0.75;0.0;0.25;0.0;0.25;0.75;0.25;0.75;0.25;0.0;0.25;-0.249512;0.036133;0.97168;-0.7;-0.84;0.7;288.0;-0.281885;-0.086392
1.53;10.75;5.25;8.25;2.5;0.5;0.0;0.25;0.0;1.5;0.0;0.5;0.25;0.0;1.25;0.25;0.25;-0.230957;0.016113;0.980469;-0.63;0.49;0.56;361.0;-0.257356;0.038192;4.75;7.75;4.25;5.25;0.75;0.75;0.0;0.25;0.25;0.25;0.75;0.25;0.75;0.25;0.0;0.0;-0.25;0.034668;0.972168;-0.77;-0.77;0.7;296.0;-0.278156;-0.080079
1.54;10.5;5.25;8.25;2.5;0.5;0.0;0.25;0.0;1.5;0.0;0.5;0.25;0.0;1.5;0.25;0.0;-0.231445;0.021484;0.985352;-0.77;0.56;0.49;359.0;-0.254426;0.039988;4.75;7.75;4.25;5.25;0.5;0.75;0.0;0.25;0.25;0.25;0.75;0.5;0.5;0.5;0.0;0.0;-0.249023;0.032227;0.973633;-0.7;-0.7;0.7;296.0;-0.273101;-0.078552
1.55;11.25;5.25;8.25;2.75;0.5;0.0;0.25;0.0;1.75;0.0;0.25;0.25;0.0;1.5;0.25;0.0;-0.23291;0.020508;0.983398;-0.7;0.42;0.63;371.0;-0.256876;0.042882;5.25;7.75;4.25;5.25;0.5;0.75;0.0;0.25;0.25;0.0;0.75;0.5;0.5;0.5;0.25;0.0;-0.249512;0.032715;0.970703;-0.91;-0.77;0.77;302.0;-0.273915;-0.076413
1.56;11.0;5.5;8.0;2.5;0.5;0.0;0.25;0.0;1.5;0.25;0.25;0.25;0.0;1.25;0.25;0.0;-0.234375;0.01709;0.978027;-0.63;0.63;0.56;362.0;-0.261975;0.039752;4.75;7.75;4.25;5.25;0.5;0.75;0.0;0.25;0.0;0.25;0.75;0.75;0.5;0.25;0.0;0.0;-0.245117;0.030273;0.967285;-0.77;-0.84;0.7;293.0;-0.280257;-0.087028
1.57;10.75;5.5;8.25;2.5;0.5;0.0;0.25;0.0;1.5;0.0;0.25;0.25;0.0;1.5;0.25;0.25;-0.234863;0.019531;0.983398;-0.7;0.63;0.56;363.0;-0.257985;0.03888;4.75;7.5;4.25;5.25;0.5;1.0;0.0;0.25;0.0;0.25;0.75;0.75;0.5;0.25;0.0;0.0;-0.251953;0.032227;0.972168;-0.84;-0.84;0.84;293.0;-0.277786;-0.088233
1.58;11.75;5.25;8.25;2.75;0.5;0.0;0.25;0.0;1.5;0.0;0.5;0.25;0.0;1.25;0.25;0.0;-0.233887;0.022949;0.986328;-0.77;0.63;0.56;374.0;-0.264461;0.039617;4.75;7.75;4.25;5.25;0.5;0.75;0.0;0.25;0.25;0.0;0.75;0.75;0.5;0.25;0.0;0.0;-0.254883;0.032715;0.969238;-0.84;-0.84;0.7;294.0;-0.27876;-0.084087
1.59;11.0;5.5;8.5;2.5;0.5;0.0;0.25;0.0;1.25;0.25;0.5;0.25;0.0;1.25;0.25;0.0;-0.236328;0.019043;0.98291;-0.84;0.56;0.49;367.0;-0.263281;0.037079;4.75;7.5;4.25;5.25;0.5;0.75;0.0;0.25;0.25;0.25;0.75;0.75;0.5;0.5;0.0;0.0;-0.253906;0.037109;0.978516;-0.84;-0.84;0.7;296.0;-0.267188;-0.079918
1.6;10.75;5.5;8.25;2.5;0.5;0.0;0.25;0.0;1.25;0.25;0.5;0.25;0.0;1.5;0.25;0.0;-0.22998;0.018555;0.988281;-0.7;0.63;0.56;364.0;-0.257863;0.036981;4.75;7.5;4.25;5.25;0.5;1.0;0.0;0.25;0.0;0.25;0.75;0.75;0.5;0.75;0.0;0.0;-0.247559;0.033691;0.970703;-0.77;-0.84;0.7;298.0;-0.267029;-0.08409
1.61;11.25;5.25;8.25;2.5;0.25;0.0;0.25;0.0;1.75;0.25;0.5;0.0;0.0;1.5;0.25;0.0;-0.233398;0.018066;0.98291;-0.56;0.49;0.49;368.0;-0.253757;0.046493;5.25;7.5;4.25;5.25;0.5;1.0;0.0;0.5;0.0;0.0;0.75;0.75;0.5;0.5;0.0;0.0;-0.252441;0.037109;0.970215;-0.91;-0.84;0.63;303.0;-0.276053;-0.088114
1.62;10.75;5.0;8.5;2.5;0.25;0.0;0.25;0.0;1.75;0.0;0.5;0.0;0.0;1.0;0.0;0.0;-0.233887;0.020508;0.987305;-0.77;0.56;0.56;353.0;-0.268418;0.046556;4.75;7.5;4.25;5.25;0.5;0.75;0.0;0.5;0.0;0.25;0.5;0.75;0.5;0.75;0.0;0.0;-0.25293;0.033691;0.978516;-0.91;-0.77;0.77;296.0;-0.269361;-0.086212
1.63;10.5;5.25;8.0;2.5;0.5;0.0;0.25;0.0;1.5;0.0;0.5;0.0;0.0;1.25;0.25;0.25;-0.233398;0.026855;0.98291;-0.77;0.7;0.56;352.0;-0.259928;0.039916;5.25;7.75;4.25;5.25;0.5;1.0;0.0;0.25;0.0;0.25;0.5;0.25;0.75;0.75;0.0;0.0;-0.248535;0.030273;0.971191;-0.84;-0.84;0.77;300.0;-0.281289;-0.079737
1.64;10.75;5.25;8.0;2.5;0.5;0.0;0.25;0.0;1.5;0.25;0.25;0.25;0.0;1.25;0.25;0.25;-0.23877;0.016602;0.986328;-0.7;0.42;0.56;358.0;-0.257196;0.039192;5.5;7.75;4.25;5.25;0.5;1.0;0.0;0.25;0.0;0.25;0.75;0.25;0.5;0.5;0.0;0.0;-0.251953;0.028809;0.969727;-0.98;-0.84;0.7;301.0;-0.286496;-0.077304
1.65;11.0;5.5;8.5;2.5;0.25;0.0;0.25;0.0;1.75;0.25;0.25;0.25;0.0;0.75;0.25;0.25;-0.231445;0.020996;0.987793;-0.77;0.56;0.56;366.0;-0.264128;0.039509;5.25;7.25;4.25;5.25;0.5;0.75;0.0;0.25;0.0;0.25;0.75;0.25;0.75;0.5;0.0;0.0;-0.249512;0.03418;0.969238;-0.91;-0.91;0.84;292.0;-0.280815;-0.078679
1.66;10.75;5.5;8.25;2.75;0.25;0.0;0.25;0.0;1.5;0.25;0.5;0.25;0.0;1.25;0.25;0.25;-0.231445;0.023926;0.982422;-0.84;0.49;0.56;367.0;-0.25592;0.034646;5.0;7.5;4.25;5.25;0.5;0.75;0.0;0.0;0.0;0.25;0.75;0.25;0.75;0.75;0.0;0.0;-0.256348;0.036621;0.96582;-0.91;-0.84;0.84;290.0;-0.279106;-0.074724
1.67;10.75;5.25;8.25;2.5;0.25;0.0;0.25;0.0;1.5;0.0;0.25;0.0;0.0;1.5;0.25;0.0;-0.232422;0.018555;0.984375;-0.7;0.63;0.63;353.0;-0.264383;0.044361;5.0;7.75;4.0;5.25;0.5;0.75;0.0;0.25;0.0;0.0;0.75;0.5;0.75;0.75;0.0;0.25;-0.253418;0.032715;0.974121;-0.91;-0.84;0.77;295.0;-0.273687;-0.086353
1.68;10.75;5.5;8.25;2.5;0.5;0.0;0.25;0.0;1.5;0.25;0.25;0.0;0.0;1.25;0.25;0.0;-0.233887;0.019043;0.986816;-0.63;0.35;0.49;359.0;-0.26467;0.04232;4.75;7.5;4.0;5.25;0.5;0.75;0.0;0.25;0.0;0.25;0.75;0.5;0.75;0.5;0.0;0.0;-0.255859;0.02832;0.969727;-0.91;-0.91;0.7;289.0;-0.274877;-0.087047
1.69;11.25;5.5;8.0;2.75;0.5;0.0;0.25;0.0;1.75;0.0;0.5;0.0;0.0;1.25;0.25;0.0;-0.234863;0.021484;0.981934;-0.63;0.42;0.56;369.0;-0.262011;0.041638;5.25;7.25;4.0;5.25;0.5;0.75;0.0;0.25;0.25;0.0;0.75;0.5;0.5;0.75;0.0;0.25;-0.251953;0.03418;0.971191;-0.84;-0.84;0.84;294.0;-0.269589;-0.075727
1.7;11.0;5.5;8.0;2.5;0.5;0.0;0.25;0.0;1.75;0.0;0.5;0.0;0.0;1.25;0.5;0.0;-0.233398;0.018555;0.98584;-0.7;0.35;0.56;366.0;-0.255458;0.042332;5.0;7.25;4.25;5.25;0.5;0.75;0.0;0.25;0.0;0.0;0.75;0.25;0.75;0.75;0.25;0.25;-0.256836;0.03125;0.97168;-0.91;-0.98;0.7;293.0;-0.269231;-0.08106
1.71;11.0;5.5;8.25;2.75;0.5;0.0;0.25;0.0;1.5;0.25;0.5;0.0;0.0;1.0;0.25;0.0;-0.23877;0.017578;0.98584;-0.77;0.56;0.49;366.0;-0.266392;0.038548;5.25;7.5;4.0;5.25;0.5;1.0;0.0;0.25;0.0;0.0;0.75;0.25;0.75;0.75;0.0;0.25;-0.250488;0.027832;0.96875;-0.91;-0.91;0.77;296.0;-0.277192;-0.083644
1.72;11.0;5.5;8.25;2.75;0.5;0.0;0.25;0.0;1.5;0.25;0.5;0.0;0.0;1.5;0.25;0.0;-0.233887;0.016602;0.980469;-0.63;0.42;0.56;370.0;-0.257882;0.040293;4.75;7.75;4.0;5.25;0.5;0.75;0.0;0.25;0.0;0.0;0.75;0.5;0.5;0.75;0.0;0.0;-0.251465;0.026367;0.974609;-0.91;-1.05;0.77;289.0;-0.279284;-0.084039
1.73;11.0;5.0;8.5;2.75;0.5;0.0;0.25;0.0;1.5;0.0;0.25;0.0;0.0;1.5;0.25;0.0;-0.235352;0.018066;0.983398;-0.7;0.35;0.49;363.0;-0.263459;0.04462;5.25;7.5;4.0;5.25;0.5;0.75;0.0;0.25;0.25;0.25;0.75;0.5;0.5;0.75;0.0;0.0;-0.245605;0.031738;0.971191;-0.84;-0.91;0.77;298.0;-0.269101;-0.073979
1.74;11.0;5.25;8.5;2.5;0.5;0.0;0.25;0.0;1.5;0.0;0.25;0.25;0.0;1.25;0.25;0.0;-0.232422;0.019043;0.986328;-0.56;0.42;0.56;363.0;-0.264895;0.041824;5.0;7.5;4.0;5.25;0.5;1.0;0.0;0.25;0.25;0.25;0.75;0.5;0.5;0.5;0.0;0.25;-0.253906;0.026367;0.967285;-0.77;-0.98;0.77;298.0;-0.268839;-0.080861
1.75;11.0;5.25;8.5;2.5;0.5;0.0;0.25;0.0;1.75;0.0;0.25;0.25;0.0;1.75;0.0;0.0;-0.23291;0.016113;0.980469;-0.77;0.42;0.56;368.0;-0.256524;0.046762;4.75;7.75;4.0;5.25;0.5;0.5;0.0;0.0;0.0;0.25;0.75;0.75;0.5;0.5;0.0;0.25;-0.254883;0.035645;0.970703;-0.91;-0.91;0.77;286.0;-0.27671;-0.081572
1.76;10.75;5.25;8.25;2.5;0.5;0.0;0.25;0.0;1.75;0.0;0.25;0.0;0.0;1.5;0.25;0.0;-0.231934;0.02002;0.984375;-0.7;0.42;0.49;360.0;-0.258049;0.046788;4.75;7.5;4.0;5.25;0.5;0.5;0.0;0.0;0.0;0.25;0.75;0.75;0.5;0.25;0.0;0.0;-0.253906;0.033691;0.964355;-0.84;-0.98;0.77;280.0;-0.284532;-0.081733
1.77;11.0;5.5;8.5;2.5;0.5;0.25;0.25;0.0;1.75;0.25;0.25;0.0;0.0;1.5;0.25;0.25;-0.23877;0.018066;0.98584;-0.77;0.49;0.63;376.0;-0.253218;0.042348;5.25;7.75;4.25;5.25;0.5;1.0;0.0;0.25;0.0;0.25;0.75;0.75;0.5;0.25;0.25;0.0;-0.255371;0.03418;0.973633;-0.84;-0.98;0.7;304.0;-0.274816;-0.085158
1.78;11.0;5.5;8.5;2.5;0.5;0.0;0.25;0.0;1.75;0.25;0.25;0.0;0.0;1.5;0.25;0.25;-0.230957;0.017578;0.983887;-0.77;0.63;0.56;373.0;-0.254025;0.044864;5.0;7.75;4.25;5.25;0.5;1.0;0.0;0.25;0.0;0.25;0.75;0.75;0.5;0.5;0.0;0.0;-0.253906;0.030762;0.969727;-0.77;-1.05;0.7;301.0;-0.274805;-0.084983
1.79;11.25;5.25;8.5;2.5;0.25;0.0;0.25;0.0;1.75;0.25;0.25;0.25;0.0;1.25;0.25;0.0;-0.231934;0.022461;0.985352;-0.77;0.42;0.56;369.0;-0.258148;0.044603;5.0;7.75;4.25;5.25;0.5;0.75;0.0;0.25;0.25;0.25;0.75;0.5;0.75;0.5;0.0;0.0;-0.249023;0.027344;0.972656;-0.77;-0.91;0.84;301.0;-0.270865;-0.079788
1.8;10.75;5.5;8.5;2.5;0.25;0.0;0.25;0.0;1.75;0.0;0.25;0.0;0.0;1.5;0.25;0.0;-0.234375;0.024902;0.991699;-0.84;0.49;0.56;363.0;-0.260313;0.045544;5.0;8.0;4.0;5.25;0.5;0.75;0.0;0.25;0.25;0.25;0.75;0.25;0.5;0.5;0.0;0.0;-0.256348;0.033203;0.969238;-0.77;-0.98;0.84;295.0;-0.280361;-0.07712
1.81;11.25;5.5;8.25;2.75;0.25;0.0;0.25;0.0;1.5;0.25;0.5;0.0;0.0;1.25;0.25;0.25;-0.238281;0.019531;0.978516;-0.77;0.42;0.56;369.0;-0.261806;0.038364;5.0;7.75;4.0;5.25;0.5;0.5;0.0;0.25;0.0;0.0;0.75;0.5;0.5;0.75;0.0;0.0;-0.250488;0.028809;0.970215;-0.77;-1.05;0.91;289.0;-0.28181;-0.080202
1.82;11.25;5.5;8.5;2.5;0.25;0.0;0.25;0.0;1.75;0.0;0.25;0.0;0.0;1.25;0.25;0.0;-0.232422;0.018555;0.987305;-0.84;0.63;0.49;366.0;-0.266795;0.045685;5.25;7.75;4.25;5.25;0.5;0.75;0.0;0.25;0.0;0.25;0.75;0.75;0.5;0.75;0.0;0.25;-0.258301;0.034668;0.970703;-0.77;-0.98;0.77;305.0;-0.268868;-0.080457
1.83;10.75;5.5;8.5;2.5;0.5;0.0;0.25;0.0;1.75;0.0;0.25;0.25;0.0;1.25;0.25;0.0;-0.228516;0.020508;0.982422;-0.84;0.63;0.42;366.0;-0.259777;0.042146;5.25;8.0;4.0;5.25;0.5;0.5;0.0;0.25;0.25;0.0;0.75;0.5;0.5;0.75;0.0;0.25;-0.251953;0.037109;0.978027;-0.77;-1.05;0.84;299.0;-0.274476;-0.076052
1.84;10.75;5.5;8.5;2.5;0.25;0.0;0.25;0.0;1.75;0.25;0.25;0.25;0.0;1.5;0.25;0.0;-0.234863;0.023438;0.978516;-0.77;0.49;0.49;368.0;-0.252774;0.043012;5.25;8.0;4.0;5.25;0.5;0.5;0.0;0.25;0.25;0.0;0.75;0.25;0.5;0.5;0.0;0.25;-0.250977;0.033203;0.969727;-0.7;-1.05;0.7;294.0;-0.28465;-0.075903
1.85;10.75;5.25;8.25;2.5;0.5;0.0;0.25;0.0;1.75;0.25;0.25;0.0;0.0;1.25;0.25;0.0;-0.239258;0.02002;0.986816;-0.77;0.35;0.49;360.0;-0.258437;0.046079;5.0;7.75;4.0;5.25;0.5;0.75;0.0;0.25;0.25;0.0;0.75;0.25;0.5;0.25;0.0;0.25;-0.251465;0.031738;0.972168;-0.7;-1.05;0.84;289.0;-0.286573;-0.080988
1.86;11.0;5.25;8.25;2.5;0.5;0.0;0.25;0.0;1.75;0.25;0.25;0.25;0.0;1.25;0.25;0.0;-0.236816;0.019043;0.979492;-0.63;0.49;0.56;366.0;-0.255877;0.043872;5.25;7.75;4.0;5.25;0.5;0.75;0.0;0.25;0.25;0.0;0.5;0.25;0.25;0.25;0.0;0.25;-0.253418;0.031738;0.969238;-0.77;-0.98;0.7;287.0;-0.296583;-0.075639
1.87;11.0;5.5;8.5;2.75;0.5;0.0;0.25;0.0;1.75;0.25;0.25;0.25;0.0;1.25;0.25;0.0;-0.233398;0.017578;0.993652;-0.7;0.49;0.56;375.0;-0.25729;0.040679;5.25;8.0;4.25;5.25;0.5;0.75;0.0;0.25;0.25;0.25;0.5;0.25;0.25;0.5;0.0;0.0;-0.251465;0.02832;0.970215;-0.7;-0.98;0.84;296.0;-0.289855;-0.070193
1.88;11.25;5.25;8.5;2.75;0.5;0.0;0.25;0.0;1.75;0.25;0.5;0.0;0.0;1.5;0.25;0.0;-0.235352;0.021484;0.981445;-0.77;0.63;0.42;377.0;-0.253099;0.0448;5.25;7.75;4.0;5.25;0.5;0.5;0.0;0.25;0.0;0.25;0.75;0.25;0.5;0.25;0.0;0.0;-0.251953;0.035156;0.967773;-0.84;-1.05;0.77;287.0;-0.294013;-0.078919
1.89;11.25;5.5;8.5;2.5;0.5;0.0;0.25;0.0;1.75;0.25;0.25;0.25;0.0;1.25;0.25;0.0;-0.23877;0.015625;0.98584;-0.77;0.49;0.56;375.0;-0.258151;0.04332;5.25;8.0;4.0;5.25;0.5;0.5;0.0;0.25;0.0;0.25;0.75;0.25;0.5;0.5;0.0;0.25;-0.246582;0.03125;0.976074;-0.84;-0.98;0.77;293.0;-0.286161;-0.078822
1.9;11.0;5.25;8.5;2.75;0.5;0.0;0.0;0.0;1.75;0.25;0.25;0.25;0.0;1.25;0.5;0.0;-0.234863;0.015137;0.984863;-0.7;0.49;0.63;371.0;-0.254817;0.038893;5.25;8.0;4.25;5.25;0.5;0.75;0.0;0.25;0.0;0.0;0.5;0.25;0.5;0.25;0.0;0.25;-0.253418;0.03125;0.969727;-0.84;-1.05;0.77;291.0;-0.300323;-0.082119
1.91;11.25;5.25;8.5;2.75;0.5;0.0;0.0;0.0;1.75;0.5;0.25;0.0;0.0;1.25;0.5;0.0;-0.240234;0.018066;0.980469;-0.7;0.56;0.63;374.0;-0.255752;0.042196;5.25;8.0;4.25;5.25;0.5;0.75;0.0;0.25;0.0;0.0;0.5;0.25;0.5;0.25;0.0;0.0;-0.254395;0.029297;0.970215;-0.77;-0.98;0.84;290.0;-0.303705;-0.080936
1.92;11.0;5.25;8.5;2.75;0.5;0.0;0.25;0.0;1.75;0.25;0.25;0.25;0.0;1.25;0.5;0.25;-0.239746;0.021484;0.985352;-0.7;0.49;0.56;377.0;-0.248732;0.039734;5.25;8.0;4.25;5.25;0.5;0.75;0.0;0.25;0.0;0.25;0.5;0.0;0.5;0.25;0.0;0.0;-0.247559;0.031738;0.966797;-0.7;-0.98;0.77;289.0;-0.30347;-0.077377
1.93;11.25;5.25;8.5;2.75;0.5;0.0;0.25;0.0;1.75;0.25;0.25;0.0;0.0;1.25;0.25;0.25;-0.232422;0.020508;0.983887;-0.56;0.49;0.49;374.0;-0.258469;0.043783;5.5;8.0;4.25;5.25;0.5;0.75;0.0;0.25;0.0;0.0;0.75;0.0;0.5;0.25;0.0;0.0;-0.249023;0.034668;0.966797;-0.77;-1.05;0.84;292.0;-0.304546;-0.077326
1.94;10.75;5.25;8.5;2.5;0.5;0.0;0.25;0.0;1.75;0.25;0.25;0.25;0.0;1.25;0.25;0.25;-0.234375;0.018555;0.988281;-0.56;0.42;0.63;368.0;-0.25234;0.042307;5.5;8.0;4.25;5.25;0.5;0.75;0.0;0.25;0.0;0.0;0.75;0.25;0.5;0.25;0.0;0.0;-0.25293;0.030273;0.976074;-0.84;-1.05;0.77;295.0;-0.299529;-0.079456
1.95;11.0;5.25;8.75;2.75;0.5;0.0;0.25;0.0;1.5;0.25;0.5;0.25;0.0;1.25;0.25;0.25;-0.23584;0.024414;0.984375;-0.56;0.35;0.63;376.0;-0.255065;0.03765;5.25;8.0;4.25;5.25;0.5;0.75;0.0;0.25;0.0;0.25;0.75;0.25;0.5;0.25;0.0;0.0;-0.253418;0.025391;0.974121;-0.63;-1.12;0.77;295.0;-0.293336;-0.07988
1.96;11.0;5.5;8.5;2.75;0.5;0.0;0.25;0.0;1.5;0.0;0.5;0.25;0.0;1.5;0.25;0.0;-0.231934;0.017578;0.978027;-0.63;0.35;0.49;374.0;-0.258133;0.037918;5.0;8.25;4.25;5.25;0.5;0.75;0.0;0.25;0.0;0.0;0.75;0.25;0.5;0.25;0.25;0.0;-0.250977;0.032227;0.97168;-0.77;-1.05;0.7;295.0;-0.291666;-0.083835
1.97;11.5;5.5;8.25;2.5;0.5;0.0;0.25;0.0;1.75;0.25;0.25;0.0;0.0;1.5;0.25;0.0;-0.23584;0.020508;0.98291;-0.63;0.63;0.56;374.0;-0.258627;0.046894;5.5;8.25;4.0;5.25;0.5;0.75;0.0;0.25;0.0;0.25;0.5;0.25;0.5;0.5;0.0;0.0;-0.25;0.03125;0.962891;-0.63;-0.91;0.77;297.0;-0.295201;-0.078192
1.98;11.25;5.5;8.5;2.75;0.5;0.0;0.25;0.0;1.75;0.0;0.25;0.25;0.0;1.5;0.25;0.25;-0.236816;0.021484;0.981445;-0.63;0.49;0.56;379.0;-0.255593;0.040468;5.5;8.0;4.0;5.25;0.5;0.75;0.0;0.25;0.0;0.25;0.5;0.25;0.75;0.25;0.0;0.0;-0.249512;0.032227;0.973633;-0.63;-0.98;0.84;294.0;-0.296025;-0.082522
1.99;11.0;5.5;8.25;2.75;0.5;0.0;0.25;0.0;1.5;0.0;0.25;0.25;0.0;1.5;0.25;0.25;-0.233887;0.018555;0.985352;-0.56;0.49;0.63;369.0;-0.25934;0.037274;5.5;8.0;4.25;5.25;0.5;0.75;0.0;0.25;0.0;0.0;1.0;0.25;0.5;0.25;0.0;0.0;-0.254883;0.035645;0.970703;-0.7;-0.98;0.77;298.0;-0.294488;-0.079805
2.0;11.25;5.5;8.25;2.75;0.5;0.25;0.25;0.0;1.5;0.0;0.25;0.25;0.0;1.5;0.25;0.25;-0.232422;0.020996;0.991211;-0.49;0.56;0.63;375.0;-0.259577;0.035354;5.5;8.0;4.0;5.25;0.5;0.5;0.0;0.25;0.0;0.25;0.75;0.5;0.5;0.25;0.0;0.0;-0.249023;0.025879;0.974609;-0.63;-0.98;0.77;295.0;-0.291192;-0.07998
2.01;11.25;5.5;8.25;2.5;0.25;0.0;0.25;0.0;1.5;0.25;0.5;0.25;0.0;1.5;0.25;0.0;-0.233398;0.023926;0.98877;-0.63;0.63;0.56;370.0;-0.256192;0.040176;5.5;8.25;4.0;5.25;0.5;0.5;0.0;0.25;0.0;0.25;0.75;0.25;0.5;0.25;0.0;0.0;-0.246582;0.033691;0.97168;-0.77;-0.98;0.7;295.0;-0.297162;-0.078608
2.02;10.75;5.5;8.5;2.5;0.5;0.0;0.25;0.0;1.5;0.25;0.5;0.25;0.0;1.75;0.25;0.0;-0.23584;0.016113;0.987305;-0.63;0.63;0.49;373.0;-0.248818;0.040561;5.5;8.25;4.25;5.25;0.5;0.75;0.0;0.25;0.0;0.25;0.75;0.25;0.5;0.25;0.0;0.0;-0.254395;0.03125;0.971191;-0.63;-0.98;0.77;301.0;-0.295406;-0.078827
2.03;11.25;5.5;8.25;2.5;0.5;0.0;0.25;0.0;1.75;0.25;0.25;0.25;0.0;1.25;0.25;0.0;-0.236328;0.021484;0.987793;-0.49;0.49;0.63;372.0;-0.25809;0.042943;5.25;8.0;4.0;5.25;0.5;0.75;0.0;0.25;0.0;0.0;0.75;0.25;0.5;0.5;0.0;0.0;-0.251465;0.035645;0.970215;-0.77;-0.98;0.77;292.0;-0.293211;-0.081
2.04;11.25;5.75;8.25;2.75;0.5;0.0;0.25;0.0;1.75;0.25;0.5;0.0;0.0;1.25;0.5;0.0;-0.231934;0.014648;0.989746;-0.63;0.49;0.56;380.0;-0.254252;0.039875;5.25;8.0;4.0;5.25;0.5;0.75;0.0;0.25;0.0;0.25;0.5;0.25;0.5;0.25;0.0;0.25;-0.251465;0.031738;0.975586;-0.63;-0.91;0.77;291.0;-0.295404;-0.08249
2.05;11.25;5.5;8.25;2.5;0.5;0.0;0.25;0.0;1.5;0.25;0.5;0.0;0.0;1.5;0.25;0.0;-0.236328;0.012695;0.98291;-0.56;0.49;0.56;370.0;-0.258753;0.042965;5.5;7.75;4.0;5.25;0.5;0.75;0.0;0.25;0.0;0.25;0.75;0.25;0.5;0.25;0.0;0.25;-0.25293;0.02832;0.96582;-0.56;-0.98;0.77;294.0;-0.290332;-0.080256
2.06;11.25;5.5;8.5;2.5;0.5;0.0;0.25;0.0;1.75;0.25;0.25;0.25;0.0;1.25;0.25;0.25;-0.233398;0.017578;0.983398;-0.56;0.42;0.56;376.0;-0.255713;0.041913;5.5;8.25;4.25;5.25;0.5;1.0;0.0;0.25;0.0;0.25;0.5;0.25;0.5;0.25;0.0;0.0;-0.251465;0.035645;0.96875;-0.7;-0.98;0.91;301.0;-0.298948;-0.080394
2.07;11.25;5.5;8.25;2.5;0.5;0.0;0.25;0.0;1.75;0.0;0.25;0.25;0.0;1.25;0.25;0.25;-0.231445;0.020508;0.985352;-0.63;0.42;0.56;370.0;-0.259443;0.041354;5.5;8.25;4.0;5.25;0.5;0.75;0.0;0.25;0.0;0.25;0.5;0.25;0.5;0.25;0.0;0.0;-0.250488;0.033691;0.97168;-0.63;-0.98;0.77;295.0;-0.300776;-0.080208
2.08;11.25;5.5;8.5;2.75;0.5;0.0;0.25;0.0;1.75;0.0;0.25;0.0;0.0;1.25;0.25;0.25;-0.233887;0.022949;0.980469;-0.7;0.49;0.49;373.0;-0.263335;0.042212;5.5;8.25;4.25;5.25;0.5;0.75;0.0;0.25;0.0;0.0;0.5;0.5;0.5;0.25;0.25;0.0;-0.253906;0.034668;0.969238;-0.56;-0.91;0.84;301.0;-0.293891;-0.081933
2.09;11.25;5.25;8.5;2.75;0.5;0.0;0.25;0.0;1.25;0.25;0.25;0.0;0.0;1.25;0.5;0.25;-0.231934;0.020508;0.984863;-0.63;0.56;0.56;369.0;-0.26327;0.038341;5.5;8.0;4.0;5.25;0.5;0.75;0.0;0.25;0.0;0.0;0.5;0.25;0.5;0.25;0.25;0.25;-0.25;0.03418;0.978027;-0.56;-0.98;0.84;294.0;-0.294768;-0.08206
2.1;11.25;5.5;8.5;2.5;0.25;0.0;0.25;0.0;1.75;0.25;0.5;0.0;0.0;1.5;0.5;0.0;-0.231445;0.02002;0.984863;-0.77;0.63;0.49;377.0;-0.24991;0.044438;5.75;8.25;4.0;5.25;0.5;0.75;0.0;0.25;0.0;0.25;0.5;0.25;0.5;0.25;0.25;0.0;-0.24707;0.02832;0.974609;-0.56;-0.91;0.84;300.0;-0.294982;-0.078446
2.11;11.25;5.75;8.5;2.5;0.25;0.0;0.25;0.0;1.5;0.25;0.5;0.25;0.0;1.5;0.25;0.0;-0.233887;0.01709;0.985352;-0.84;0.63;0.49;376.0;-0.257344;0.03919;5.75;8.25;4.25;5.5;0.5;0.75;0.0;0.25;0.0;0.25;0.5;0.0;0.5;0.25;0.0;0.0;-0.250977;0.035645;0.979004;-0.7;-0.91;0.77;301.0;-0.306141;-0.076088
2.12;11.25;5.75;8.75;2.5;0.5;0.0;0.25;0.0;1.75;0.25;0.25;0.25;0.0;1.5;0.0;0.25;-0.234863;0.016113;0.982422;-0.77;0.49;0.49;381.0;-0.257774;0.042677;5.5;8.0;4.25;5.25;0.5;0.75;0.0;0.25;0.0;0.0;0.5;0.0;0.5;0.25;0.0;0.0;-0.252441;0.036133;0.973145;-0.56;-0.91;0.7;289.0;-0.309787;-0.076944
2.13;11.25;5.75;8.5;2.75;0.5;0.0;0.25;0.0;1.75;0.25;0.25;0.0;0.0;1.5;0.0;0.0;-0.231445;0.022461;0.987305;-0.7;0.56;0.49;377.0;-0.263953;0.044164;5.5;8.0;4.25;5.25;0.5;0.75;0.0;0.25;0.0;0.0;0.5;0.25;0.5;0.25;0.0;0.25;-0.25;0.030762;0.972656;-0.7;-0.98;0.84;294.0;-0.301315;-0.080281
2.14;11.25;5.5;8.5;2.75;0.5;0.0;0.25;0.0;1.75;0.25;0.25;0.25;0.0;1.25;0.25;0.0;-0.231934;0.019531;0.988281;-0.63;0.56;0.56;378.0;-0.258384;0.04119;5.5;8.25;4.25;5.25;0.5;0.5;0.0;0.25;0.0;0.0;0.5;0.25;0.5;0.25;0.0;0.25;-0.250488;0.033203;0.972656;-0.7;-0.98;0.84;293.0;-0.303818;-0.079065
2.15;11.0;5.25;8.5;2.5;0.5;0.0;0.25;0.0;1.75;0.0;0.5;0.25;0.0;1.75;0.25;0.25;-0.240723;0.022949;0.980957;-0.63;0.63;0.56;375.0;-0.245342;0.043116;5.5;8.25;4.25;5.25;0.5;0.5;0.0;0.25;0.0;0.0;0.75;0.25;0.75;0.25;0.0;0.25;-0.251465;0.033203;0.96582;-0.56;-0.91;0.84;299.0;-0.295013;-0.082435
2.16;11.0;5.25;8.25;2.5;0.5;0.0;0.25;0.0;1.75;0.0;0.25;0.0;0.0;1.5;0.25;0.0;-0.23584;0.022949;0.986816;-0.7;0.7;0.56;363.0;-0.259182;0.047272;5.5;8.0;4.0;5.25;0.5;0.5;0.0;0.25;0.25;0.0;0.5;0.25;0.75;0.25;0.0;0.0;-0.253418;0.023926;0.970703;-0.7;-0.98;0.84;292.0;-0.295946;-0.077641
2.17;11.25;5.5;8.5;2.5;0.5;0.0;0.25;0.0;1.5;0.0;0.25;0.0;0.0;1.25;0.25;0.0;-0.235352;0.022949;0.98291;-0.63;0.49;0.49;365.0;-0.270755;0.043576;5.5;8.0;4.0;5.25;0.5;0.75;0.0;0.25;0.0;0.25;0.5;0.25;0.75;0.25;0.0;0.0;-0.248535;0.034668;0.964355;-0.7;-0.98;0.77;294.0;-0.296025;-0.082522
2.18;11.0;5.5;8.5;2.5;0.5;0.0;0.25;0.0;1.5;0.0;0.5;0.25;0.0;1.25;0.25;0.25;-0.23877;0.020508;0.986328;-0.63;0.49;0.63;370.0;-0.259626;0.037762;5.5;8.25;4.25;5.25;0.5;0.75;0.0;0.25;0.0;0.0;0.5;0.25;0.75;0.25;0.0;0.0;-0.248047;0.033203;0.976074;-0.63;-0.91;0.7;297.0;-0.301864;-0.082868
2.19;11.0;5.5;8.5;2.75;0.5;0.0;0.25;0.0;1.5;0.25;0.25;0.25;0.0;1.75;0.5;0.0;-0.229492;0.019043;0.980469;-0.7;0.42;0.56;379.0;-0.248896;0.039223;5.5;8.25;4.25;5.25;0.5;0.75;0.0;0.25;0.0;0.0;0.75;0.25;0.75;0.25;0.25;0.0;-0.248047;0.03125;0.968262;-0.63;-0.91;0.77;303.0;-0.29017;-0.083173
2.2;11.0;5.75;8.5;2.75;0.5;0.0;0.25;0.0;1.5;0.0;0.5;0.0;0.0;1.5;0.25;0.0;-0.239746;0.018555;0.982422;-0.7;0.35;0.63;373.0;-0.262812;0.039119;5.5;8.25;4.25;5.25;0.75;0.75;0.0;0.25;0.0;0.0;0.5;0.5;0.5;0.25;0.0;0.0;-0.253418;0.029785;0.973633;-0.56;-0.91;0.84;301.0;-0.298894;-0.080501
2.21;11.25;5.5;8.5;2.5;0.5;0.0;0.25;0.0;1.5;0.0;0.5;0.25;0.0;1.25;0.25;0.0;-0.238281;0.020508;0.97998;-0.77;0.56;0.56;371.0;-0.263198;0.039708;5.5;8.0;4.25;5.25;0.5;0.5;0.0;0.25;0.0;0.0;0.5;0.25;0.5;0.25;0.0;0.0;-0.244141;0.035645;0.96582;-0.56;-0.84;0.77;289.0;-0.306236;-0.077107
2.22;11.0;5.5;8.5;2.5;0.5;0.0;0.25;0.0;1.5;0.25;0.5;0.25;0.0;1.25;0.25;0.0;-0.237793;0.02002;0.983398;-0.77;0.49;0.56;371.0;-0.258272;0.039366;5.5;8.0;4.0;5.25;0.5;0.75;0.0;0.25;0.0;0.25;0.5;0.25;0.5;0.25;0.0;0.25;-0.250488;0.030273;0.970703;-0.63;-0.91;0.84;294.0;-0.296444;-0.080646
2.23;11.0;5.5;8.5;2.75;0.5;0.0;0.25;0.0;1.5;0.25;0.5;0.0;0.0;1.0;0.25;0.0;-0.232422;0.022949;0.980957;-0.7;0.49;0.56;369.0;-0.266384;0.038968;5.25;8.0;4.0;5.25;0.5;0.75;0.0;0.25;0.0;0.0;0.75;0.25;0.5;0.5;0.0;0.25;-0.250977;0.030273;0.968262;-0.7;-0.98;0.7;293.0;-0.289907;-0.082175
2.24;11.0;5.5;8.5;2.75;0.5;0.0;0.25;0.0;1.5;0.25;0.25;0.0;0.0;1.25;0.25;0.0;-0.23877;0.018066;0.980957;-0.63;0.49;0.49;368.0;-0.265928;0.041045;5.25;8.25;4.0;5.25;0.5;0.5;0.0;0.25;0.0;0.0;0.5;0.25;0.75;0.5;0.0;0.0;-0.250488;0.031738;0.97168;-0.77;-0.84;0.77;291.0;-0.297085;-0.082515
2.25;11.5;5.25;8.5;2.75;0.5;0.0;0.25;0.0;1.75;0.25;0.0;0.0;0.0;1.5;0.5;0.0;-0.23584;0.020508;0.986328;-0.7;0.56;0.49;377.0;-0.256468;0.046753;5.5;8.25;4.0;5.25;0.5;0.5;0.0;0.0;0.0;0.0;0.5;0.25;0.5;0.25;0.0;0.0;-0.246582;0.036133;0.971191;-0.7;-0.98;0.77;285.0;-0.311949;-0.075076
2.26;11.25;5.5;8.5;2.75;0.5;0.0;0.25;0.0;2.0;0.25;0.25;0.0;0.0;1.5;0.5;0.25;-0.234375;0.015625;0.982422;-0.7;0.56;0.49;385.0;-0.245714;0.044421;5.5;8.25;4.0;5.25;0.5;1.0;0.0;0.25;0.0;0.25;0.5;0.25;0.5;0.25;0.0;0.0;-0.248535;0.031738;0.972168;-0.63;-0.98;0.77;298.0;-0.299291;-0.082133
2.27;11.25;5.5;8.5;2.75;0.5;0.0;0.25;0.0;2.0;0.25;0.25;0.0;0.0;1.5;0.5;0.0;-0.237793;0.022949;0.986328;-0.77;0.49;0.56;383.0;-0.248056;0.045804;5.25;8.25;4.25;5.25;0.5;0.75;0.0;0.25;0.0;0.0;0.75;0.5;0.5;0.25;0.0;0.0;-0.248047;0.03125;0.96875;-0.63;-0.77;0.7;298.0;-0.29461;-0.084069
2.28;11.0;5.5;8.5;2.75;0.5;0.0;0.25;0.0;1.75;0.25;0.25;0.0;0.0;1.75;0.5;0.0;-0.230469;0.011719;0.982422;-0.77;0.63;0.49;379.0;-0.247611;0.043987;5.25;8.25;4.25;5.25;0.25;0.5;0.0;0.25;0.0;0.25;0.5;0.25;0.5;0.25;0.0;0.0;-0.247559;0.037598;0.969727;-0.63;-0.91;0.84;289.0;-0.30275;-0.079755
2.29;10.75;5.5;8.5;2.5;0.5;0.0;0.25;0.0;1.75;0.25;0.25;0.0;0.0;1.5;0.25;0.0;-0.241699;0.015625;0.981445;-0.7;0.56;0.56;368.0;-0.255349;0.045815;5.5;8.25;4.25;5.25;0.5;0.5;0.0;0.25;0.0;0.25;0.5;0.25;0.75;0.25;0.0;0.25;-0.254395;0.033203;0.964844;-0.49;-0.91;0.7;299.0;-0.294906;-0.080722
2.3;10.75;5.5;8.25;2.5;0.5;0.0;0.25;0.0;1.75;0.25;0.25;0.0;0.0;1.5;0.25;0.0;-0.235352;0.018066;0.990723;-0.7;0.7;0.56;365.0;-0.255265;0.045452;5.5;8.0;4.25;5.25;0.5;0.75;0.0;0.25;0.0;0.25;0.5;0.25;0.75;0.25;0.0;0.0;-0.247559;0.032715;0.969727;-0.7;-0.84;0.77;298.0;-0.295712;-0.080761
2.31;10.75;5.5;8.75;2.5;0.5;0.0;0.25;0.0;1.75;0.25;1.0;0.0;0.0;1.25;0.5;0.0;-0.238281;0.02002;0.98584;-0.63;0.56;0.56;381.0;-0.243659;0.040748;5.25;7.75;4.25;5.25;0.5;1.0;0.0;0.25;0.0;0.25;0.75;0.5;0.75;0.0;0.0;0.0;-0.249512;0.032715;0.973145;-0.7;-0.91;0.77;299.0;-0.287878;-0.088168
2.32;11.0;5.5;8.5;2.5;0.5;0.0;0.25;0.0;1.5;0.25;0.75;0.0;0.0;1.5;0.5;0.0;-0.234863;0.016602;0.983398;-0.7;0.56;0.56;376.0;-0.248958;0.040684;5.25;8.0;4.25;5.5;0.5;0.5;0.0;0.25;0.0;0.25;0.75;0.25;0.5;0.0;0.25;0.0;-0.249023;0.030762;0.967773;-0.7;-0.77;0.7;296.0;-0.293444;-0.081452
2.33;11.0;5.25;8.5;2.5;0.5;0.0;0.25;0.0;1.5;0.0;0.5;0.25;0.0;1.25;0.25;0.25;-0.232422;0.019043;0.987793;-0.7;0.77;0.56;367.0;-0.258548;0.039161;5.5;7.75;4.25;5.25;0.5;1.0;0.0;0.25;0.0;0.25;0.75;0.25;0.75;0.25;0.0;0.0;-0.251953;0.034668;0.969727;-0.7;-0.77;0.84;301.0;-0.288322;-0.082279
2.34;10.75;5.25;8.25;2.75;0.5;0.0;0.25;0.0;1.75;0.25;0.5;0.0;0.0;1.25;0.25;0.25;-0.23584;0.019531;0.987793;-0.7;0.35;0.63;368.0;-0.252415;0.041162;5.5;7.5;4.25;5.25;0.5;1.25;0.0;0.25;0.0;0.25;0.75;0.5;0.75;0.25;0.0;0.25;-0.253418;0.034668;0.969727;-0.63;-0.77;0.7;306.0;-0.278104;-0.086573
2.35;10.75;5.25;8.5;2.5;0.25;0.0;0.25;0.0;1.5;0.25;0.5;0.0;0.0;1.25;0.25;0.0;-0.232422;0.017578;0.985352;-0.63;0.49;0.63;360.0;-0.260874;0.042761;4.75;7.75;4.0;5.25;0.5;1.25;0.0;0.25;0.0;0.25;0.75;0.25;0.5;0.25;0.25;0.0;-0.25;0.038086;0.971191;-0.7;-0.77;0.63;293.0;-0.280711;-0.08849
2.36;11.0;5.25;8.5;2.5;0.5;0.0;0.25;0.0;1.25;0.0;0.5;0.25;0.0;1.25;0.25;0.0;-0.231934;0.018555;0.988281;-0.7;0.56;0.56;362.0;-0.266167;0.038283;4.5;7.75;4.25;5.25;0.5;1.0;0.0;0.25;0.0;0.25;0.75;0.25;0.5;0.25;0.25;0.0;-0.250977;0.032227;0.970703;-0.7;-0.77;0.63;290.0;-0.280672;-0.086654
2.37;11.0;5.25;8.5;2.5;0.5;0.0;0.25;0.0;1.5;0.25;0.5;0.0;0.0;1.25;0.5;0.0;-0.235352;0.020996;0.992676;-0.7;0.56;0.56;368.0;-0.255664;0.04245;4.75;7.5;4.25;5.25;0.5;1.0;0.0;0.25;0.0;0.0;0.75;0.25;0.5;0.5;0.0;0.0;-0.249023;0.030762;0.966309;-0.77;-0.84;0.63;287.0;-0.287115;-0.083427
2.38;11.0;5.5;8.5;2.5;0.25;0.0;0.25;0.0;1.75;0.25;0.25;0.0;0.0;1.5;0.25;0.25;-0.236816;0.026367;0.978516;-0.56;0.49;0.56;370.0;-0.255069;0.04473;5.25;7.5;4.0;5.25;0.5;1.0;0.0;0.25;0.0;0.0;0.75;0.25;0.5;0.25;0.0;0.25;-0.242676;0.033203;0.970215;-0.77;-0.7;0.7;289.0;-0.291923;-0.084762
2.39;10.75;5.5;8.5;2.5;0.25;0.0;0.25;0.0;1.75;0.25;0.25;0.0;0.0;1.5;0.25;0.25;-0.234863;0.013672;0.984863;-0.7;0.49;0.63;367.0;-0.253926;0.044235;4.75;7.75;4.25;5.25;0.5;0.75;0.0;0.25;0.0;0.25;0.75;0.25;0.5;0.25;0.0;0.25;-0.249023;0.03418;0.972656;-0.77;-0.77;0.63;289.0;-0.286744;-0.084026
2.4;11.0;5.5;8.5;2.5;0.25;0.0;0.25;0.0;1.5;0.5;0.25;0.0;0.0;1.25;0.5;0.25;-0.236328;0.019043;0.981445;-0.63;0.49;0.63;369.0;-0.255262;0.040836;4.5;7.5;4.0;5.25;0.5;0.75;0.0;0.25;0.0;0.0;0.75;0.25;0.75;0.5;0.0;0.25;-0.250488;0.03125;0.971191;-0.63;-0.56;0.56;282.0;-0.280391;-0.089592
2.41;11.25;5.25;8.5;2.5;0.25;0.0;0.25;0.0;1.5;0.25;0.5;0.25;0.0;1.75;0.25;0.25;-0.236328;0.015137;0.984375;-0.63;0.49;0.63;374.0;-0.248602;0.041417;4.5;7.5;4.25;5.25;0.5;0.5;0.0;0.25;0.0;0.0;0.75;0.5;0.5;0.5;0.25;0.25;-0.253418;0.033203;0.967773;-0.63;-0.56;0.56;285.0;-0.273426;-0.084706
2.42;11.0;5.25;8.5;2.5;0.5;0.0;0.25;0.0;1.75;0.0;0.25;0.0;0.0;1.25;0.0;0.0;-0.23291;0.01416;0.984863;-0.63;0.49;0.56;361.0;-0.268859;0.047815;4.25;7.25;4.25;5.25;0.5;0.5;0.0;0.25;0.0;0.25;0.75;0.25;0.75;0.5;0.25;0.25;-0.25;0.034668;0.967285;-0.7;-0.7;0.63;282.0;-0.266908;-0.085414
2.43;11.0;5.5;8.5;2.5;0.25;0.0;0.25;0.0;1.75;0.25;0.5;0.0;0.0;1.5;0.25;0.25;-0.233887;0.018555;0.984375;-0.56;0.49;0.49;373.0;-0.251377;0.043497;4.25;7.0;4.25;5.25;0.5;0.75;0.0;0.25;0.0;0.25;0.75;0.25;0.75;0.25;0.25;0.25;-0.250488;0.037109;0.972168;-0.56;-0.63;0.63;281.0;-0.269969;-0.088853
2.44;11.0;5.25;8.25;2.5;0.25;0.0;0.25;0.0;1.75;0.25;0.5;0.0;0.0;1.25;0.25;0.0;-0.239258;0.01709;0.98584;-0.63;0.42;0.63;363.0;-0.256851;0.045167;4.0;7.0;4.0;5.25;0.5;0.75;0.0;0.25;0.25;0.25;1.0;0.25;0.75;0.5;0.25;0.25;-0.251465;0.032715;0.969238;-0.63;-0.7;0.7;283.0;-0.25145;-0.086251
2.45;11.25;5.25;8.5;2.5;0.25;0.0;0.25;0.0;1.75;0.0;0.5;0.25;0.0;1.25;0.25;0.0;-0.233887;0.018066;0.989258;-0.63;0.42;0.56;369.0;-0.258237;0.043211;3.75;6.75;4.0;5.25;0.5;0.75;0.0;0.5;0.25;0.25;1.0;0.5;0.75;0.75;0.25;0.5;-0.25;0.030762;0.976074;-0.56;-0.7;0.7;289.0;-0.232011;-0.092998
2.46;11.25;5.25;8.5;2.5;0.25;0.0;0.25;0.0;1.75;0.0;0.5;0.0;0.0;1.25;0.25;0.0;-0.23584;0.017578;0.986328;-0.84;0.42;0.56;366.0;-0.261915;0.045881;4.0;6.75;4.0;5.25;0.5;0.75;0.0;0.5;0.25;0.25;0.75;0.5;0.75;0.75;0.25;0.5;-0.25;0.02832;0.966797;-0.7;-0.7;0.77;289.0;-0.238222;-0.090795
2.47;11.0;5.25;8.25;2.5;0.5;0.0;0.25;0.0;1.75;0.25;0.5;0.0;0.0;1.25;0.25;0.0;-0.236816;0.020996;0.981934;-0.7;0.42;0.56;366.0;-0.255773;0.0453;4.25;7.0;4.25;5.25;1.0;1.0;0.0;0.5;0.0;0.25;1.0;0.5;0.75;0.75;0.25;0.5;-0.251953;0.03418;0.973145;-0.77;-0.56;0.63;306.0;-0.239884;-0.091065
2.48;11.0;5.25;8.25;2.5;0.5;0.0;0.25;0.0;2.0;0.25;0.5;0.0;0.0;1.5;0.25;0.0;-0.233887;0.019043;0.991699;-0.49;0.28;0.49;372.0;-0.24668;0.048328;4.25;6.75;4.0;5.0;0.75;1.0;0.0;0.5;0.0;0.25;1.0;0.25;0.75;0.75;0.25;0.5;-0.256348;0.033203;0.972168;-0.7;-0.77;0.63;291.0;-0.24322;-0.090473
2.49;11.0;5.5;8.5;2.5;0.25;0.0;0.25;0.0;2.0;0.25;0.25;0.0;0.0;1.5;0.5;0.0;-0.234863;0.019043;0.985352;-0.56;0.49;0.49;375.0;-0.24755;0.047369;4.25;6.75;4.0;4.75;0.5;1.0;0.0;0.5;0.0;0.25;1.0;0.25;0.75;0.75;0.5;0.5;-0.248047;0.029785;0.966797;-0.63;-0.77;0.63;288.0;-0.237509;-0.090573
2.5;11.0;5.25;8.5;2.5;0.25;0.0;0.25;0.0;1.75;0.0;0.25;0.0;0.0;1.5;0.25;0.0;-0.22998;0.02002;0.989746;-0.49;0.56;0.42;363.0;-0.260342;0.047508;4.25;6.75;4.0;5.25;0.75;0.75;0.0;0.25;0.0;0.25;0.75;0.5;0.75;0.5;0.5;0.5;-0.255371;0.026855;0.976562;-0.7;-0.77;0.7;288.0;-0.246906;-0.089508
2.51;11.0;5.25;8.25;2.5;0.25;0.0;0.25;0.0;1.75;0.25;0.5;0.25;0.0;1.75;0.25;0.0;-0.23584;0.013184;0.984863;-0.7;0.35;0.49;371.0;-0.244844;0.044175;4.25;6.75;4.0;5.0;0.75;0.75;0.0;0.25;0.0;0.5;0.75;0.5;0.75;0.5;0.25;0.5;-0.248047;0.036133;0.967773;-0.77;-0.7;0.77;285.0;-0.248204;-0.086623
2.52;11.0;5.25;8.25;2.5;0.5;0.0;0.25;0.0;2.0;0.25;0.25;0.25;0.0;1.75;0.25;0.25;-0.239258;0.023438;0.98291;-0.63;0.49;0.56;376.0;-0.240317;0.046309;4.5;6.75;4.0;5.0;0.5;1.0;0.0;0.5;0.0;0.5;1.0;0.5;0.75;0.5;0.25;0.5;-0.256836;0.035645;0.974121;-0.77;-0.84;0.7;294.0;-0.242034;-0.092736
2.53;11.25;5.25;8.5;2.5;0.5;0.0;0.25;0.0;2.0;0.25;0.25;0.25;0.0;1.5;0.25;0.25;-0.23877;0.024902;0.989258;-0.7;0.77;0.49;379.0;-0.245729;0.046317;4.5;6.75;4.0;5.25;0.75;1.0;0.0;0.5;0.0;0.5;1.0;0.5;0.75;0.75;0.5;0.5;-0.253418;0.03418;0.969727;-0.63;-0.7;0.77;306.0;-0.230266;-0.090367
2.54;11.0;5.25;8.5;2.5;0.5;0.0;0.25;0.0;1.75;0.25;0.25;0.25;0.0;1.5;0.25;0.25;-0.230469;0.023926;0.985352;-0.63;0.42;0.56;373.0;-0.249348;0.043656;4.5;6.75;4.0;5.0;0.75;0.75;0.0;0.5;0.0;0.25;1.0;0.75;0.75;0.75;0.5;0.5;-0.255371;0.035156;0.977051;-0.7;-0.7;0.63;300.0;-0.230708;-0.090645
2.55;10.75;5.25;8.75;2.75;0.5;0.0;0.25;0.0;1.75;0.25;0.25;0.25;0.0;1.5;0.25;0.25;-0.229004;0.011719;0.986328;-0.56;0.42;0.42;376.0;-0.248625;0.041395;4.5;6.75;4.0;5.0;0.5;0.75;0.0;0.5;0.0;0.25;1.0;0.75;0.75;0.75;0.25;0.5;-0.253418;0.031738;0.967773;-0.7;-0.77;0.77;294.0;-0.238014;-0.09228
2.56;10.75;5.5;8.75;2.5;0.25;0.0;0.25;0.0;1.75;0.25;0.25;0.25;0.0;1.5;0.5;0.25;-0.236816;0.020508;0.991211;-0.63;0.63;0.49;376.0;-0.245419;0.041025;4.75;6.75;4.25;5.25;0.75;0.75;0.0;0.5;0.0;0.25;0.75;0.75;0.75;1.0;0.25;0.5;-0.253906;0.037598;0.974609;-0.77;-0.77;0.77;305.0;-0.238598;-0.086117
2.57;11.0;5.5;8.5;2.5;0.5;0.0;0.25;0.0;1.5;0.0;0.5;0.25;0.0;1.5;0.25;0.0;-0.233887;0.022461;0.987305;-0.63;0.49;0.56;371.0;-0.257894;0.040044;4.75;6.75;4.0;5.25;0.75;1.0;0.0;0.5;0.25;0.25;1.0;0.75;0.75;1.0;0.5;0.5;-0.256836;0.035156;0.974609;-0.84;-0.84;0.63;314.0;-0.221767;-0.08572
2.58;10.75;5.25;8.5;2.5;0.5;0.0;0.25;0.0;1.5;0.25;0.5;0.25;0.0;1.5;0.25;0.0;-0.234863;0.019043;0.981934;-0.63;0.56;0.49;368.0;-0.25184;0.041111;4.5;6.75;4.0;5.0;0.5;1.0;0.0;0.5;0.0;0.5;1.0;0.75;0.75;1.0;0.25;0.5;-0.254395;0.035645;0.968262;-0.7;-0.77;0.7;302.0;-0.227661;-0.090514
2.59;11.0;5.25;8.5;2.75;0.5;0.0;0.25;0.0;2.0;0.25;0.25;0.0;0.0;1.5;0.25;0.25;-0.233887;0.018555;0.982422;-0.63;0.56;0.49;377.0;-0.248358;0.046308;4.5;6.75;4.0;5.25;0.75;1.0;0.0;0.5;0.25;0.25;1.0;0.75;0.75;1.0;0.0;0.5;-0.24707;0.032227;0.972168;-0.77;-0.77;0.63;306.0;-0.231889;-0.087586
2.6;10.75;5.0;8.5;2.5;0.5;0.0;0.25;0.0;2.0;0.25;0.25;0.25;0.0;1.75;0.25;0.25;-0.234375;0.018066;0.986328;-0.63;0.56;0.56;374.0;-0.238098;0.047618;4.5;6.75;4.0;5.0;0.5;1.0;0.0;0.5;0.25;0.25;1.0;0.5;0.75;1.0;0.25;0.5;-0.25;0.035156;0.972168;-0.98;-0.84;0.7;300.0;-0.230522;-0.085653
2.61;10.75;5.0;8.5;2.5;0.5;0.0;0.25;0.0;1.5;0.0;0.5;0.25;0.0;1.25;0.5;0.25;-0.236328;0.017578;0.982422;-0.7;0.49;0.56;365.0;-0.251096;0.039085;4.5;6.75;4.0;4.75;0.5;1.0;0.0;0.5;0.25;0.0;0.75;0.25;0.5;0.75;0.0;0.5;-0.250977;0.033691;0.973145;-0.91;-0.84;0.7;281.0;-0.259045;-0.082275
2.62;11.0;5.0;8.5;2.5;0.5;0.0;0.25;0.0;1.75;0.0;0.5;0.25;0.0;1.5;0.5;0.25;-0.236328;0.013672;0.98291;-0.56;0.35;0.49;373.0;-0.243263;0.04273;4.75;6.75;4.0;5.25;0.75;1.0;0.0;0.5;0.25;0.0;0.75;0.25;0.5;1.0;0.0;0.25;-0.254883;0.036133;0.976074;-0.84;-0.91;0.7;293.0;-0.257466;-0.078652
2.63;11.0;5.25;8.5;2.5;0.5;0.0;0.25;0.0;2.0;0.25;0.5;0.0;0.0;1.5;0.5;0.0;-0.238281;0.023926;0.981445;-0.63;0.63;0.49;378.0;-0.241869;0.047669;4.5;6.75;4.0;5.25;0.5;1.0;0.0;0.5;0.0;0.25;0.75;0.5;0.25;0.75;0.0;0.0;-0.250488;0.030762;0.974609;-0.84;-0.84;0.77;283.0;-0.266419;-0.084927
2.64;11.0;5.0;8.75;2.25;0.5;0.0;0.25;0.0;2.0;0.25;0.25;0.0;0.0;1.75;0.5;0.0;-0.230957;0.014648;0.980469;-0.56;0.56;0.56;375.0;-0.240037;0.053676;4.5;6.75;4.0;4.75;0.5;1.0;0.0;0.5;0.0;0.25;1.0;0.75;0.25;0.75;0.0;0.25;-0.255859;0.029785;0.968262;-0.91;-0.84;0.7;285.0;-0.25295;-0.08561
2.65;10.75;5.0;8.5;2.5;0.25;0.0;0.25;0.0;1.75;0.25;0.25;0.0;0.0;1.75;0.25;0.25;-0.231934;0.022461;0.993164;-0.56;0.42;0.63;364.0;-0.247424;0.047998;4.5;6.5;4.0;4.75;0.5;1.0;0.0;0.5;0.0;0.0;0.75;0.5;0.5;0.5;0.25;0.0;-0.255859;0.030762;0.972168;-0.84;-0.91;0.7;275.0;-0.264794;-0.088082
2.66;10.75;5.0;8.5;2.5;0.5;0.0;0.25;0.0;1.75;0.25;0.5;0.0;0.0;1.5;0.5;0.25;-0.234863;0.020508;0.985352;-0.56;0.49;0.49;371.0;-0.241849;0.045022;4.75;6.5;4.0;5.25;0.5;0.75;0.0;0.5;0.25;0.25;0.75;0.5;0.5;0.5;0.25;0.0;-0.25293;0.031738;0.971191;-0.98;-0.98;0.7;287.0;-0.256311;-0.081068
2.67;11.0;5.0;8.5;2.5;0.5;0.0;0.25;0.0;1.75;0.25;0.5;0.25;0.0;1.5;0.25;0.25;-0.238281;0.012207;0.985352;-0.56;0.49;0.56;373.0;-0.244578;0.04385;4.75;6.75;4.0;5.25;0.5;0.75;0.0;0.5;0.0;0.25;0.75;0.25;0.5;0.75;0.0;0.0;-0.246094;0.034668;0.973145;-0.98;-0.84;0.7;283.0;-0.270209;-0.082001
2.68;11.0;5.0;8.25;2.5;0.5;0.0;0.25;0.0;1.75;0.0;0.5;0.0;0.0;1.5;0.0;0.0;-0.228027;0.019043;0.984863;-0.42;0.49;0.63;360.0;-0.259534;0.048499;4.5;6.5;4.0;5.25;0.75;1.0;0.0;0.5;0.0;0.25;0.5;0.5;0.5;0.75;0.0;0.0;-0.251953;0.032715;0.973145;-0.91;-0.91;0.7;283.0;-0.264937;-0.085473
2.69;11.25;5.0;8.5;2.5;0.25;0.0;0.25;0.0;1.75;0.25;0.75;0.0;0.0;1.5;0.25;0.0;-0.238281;0.017578;0.984375;-0.56;0.49;0.56;372.0;-0.249058;0.047036;4.5;6.5;4.0;5.0;0.5;1.0;0.0;0.5;0.0;0.25;0.5;0.25;0.5;0.75;0.0;0.0;-0.251953;0.034668;0.967285;-0.91;-0.7;0.7;275.0;-0.271193;-0.08335
2.7;10.75;5.25;8.5;2.5;0.5;0.0;0.25;0.0;2.0;0.25;0.25;0.25;0.0;1.5;0.5;0.25;-0.240723;0.016113;0.98291;-0.63;0.42;0.49;377.0;-0.238389;0.044398;4.5;6.5;4.0;5.0;0.25;1.0;0.0;0.5;0.0;0.25;0.75;0.25;0.5;0.75;0.0;0.5;-0.251465;0.034668;0.972656;-0.84;-0.84;0.7;277.0;-0.260897;-0.087709
2.71;10.75;5.0;8.5;2.5;0.5;0.0;0.25;0.0;2.0;0.25;0.25;0.25;0.0;1.5;0.25;0.25;-0.237305;0.017578;0.989258;-0.49;0.49;0.63;371.0;-0.242167;0.046804;4.25;6.5;4.0;5.0;0.5;1.0;0.0;0.25;0.0;0.25;0.75;0.25;0.5;0.75;0.0;0.0;-0.255371;0.032715;0.966797;-0.84;-0.84;0.63;270.0;-0.268538;-0.080956
2.72;11.0;5.25;8.5;2.5;0.5;0.0;0.25;0.0;2.0;0.25;0.5;0.25;0.0;1.5;0.25;0.25;-0.236816;0.016113;0.97998;-0.63;0.42;0.56;379.0;-0.240999;0.044627;4.5;6.5;4.0;5.0;0.5;1.0;0.0;0.25;0.0;0.25;0.75;0.5;0.5;0.25;0.0;0.0;-0.251953;0.028809;0.970215;-0.84;-0.91;0.84;271.0;-0.27652;-0.085678
2.73;11.0;5.5;8.25;2.5;0.5;0.0;0.25;0.0;2.0;0.25;0.25;0.0;0.0;1.75;0.25;0.25;-0.235352;0.018555;0.984863;-0.56;0.56;0.56;375.0;-0.244949;0.047511;4.75;6.75;4.0;5.0;0.5;1.0;0.0;0.5;0.0;0.25;0.75;0.25;0.5;0.5;0.0;0.0;-0.257324;0.037109;0.96875;-0.84;-0.91;0.7;280.0;-0.274425;-0.084648
2.74;11.0;5.0;8.5;2.5;0.5;0.0;0.25;0.0;2.0;0.0;0.25;0.0;0.0;2.0;0.25;0.25;-0.229004;0.026855;0.980957;-0.63;0.42;0.49;373.0;-0.242403;0.051425;4.5;6.5;4.0;5.25;0.5;0.75;0.0;0.5;0.0;0.0;0.75;0.25;0.5;0.75;0.0;0.0;-0.250488;0.03125;0.973145;-0.84;-0.91;0.7;275.0;-0.272779;-0.084705
2.75;11.0;5.0;8.5;2.5;0.5;0.0;0.25;0.0;2.0;0.25;0.25;0.0;0.0;1.5;0.25;0.25;-0.229004;0.019531;0.990723;-0.56;0.49;0.42;371.0;-0.246898;0.04994;4.5;6.5;4.0;5.25;0.5;0.75;0.0;0.5;0.0;0.25;0.75;0.25;0.5;0.75;0.0;0.0;-0.251953;0.032715;0.96875;-0.77;-0.91;0.7;277.0;-0.267521;-0.083183
2.76;11.0;5.25;8.75;2.5;0.5;0.0;0.25;0.0;1.75;0.0;0.5;0.0;0.0;1.5;0.25;0.0;-0.234863;0.017578;0.979492;-0.56;0.56;0.56;372.0;-0.255553;0.046706;4.5;6.5;4.0;5.0;0.5;1.0;0.0;0.5;0.0;0.25;0.75;0.25;0.75;0.75;0.0;0.0;-0.253418;0.030273;0.970703;-0.84;-1.05;0.77;280.0;-0.262402;-0.086867
2.77;11.0;5.25;8.75;2.75;0.5;0.0;0.25;0.0;2.0;0.0;0.5;0.0;0.0;1.25;0.5;0.0;-0.231445;0.01416;0.986816;-0.49;0.49;0.56;379.0;-0.250049;0.044927;4.5;6.5;4.0;4.75;0.5;0.75;0.0;0.5;0.0;0.25;0.75;0.25;0.5;0.75;0.0;0.0;-0.255371;0.033203;0.972168;-0.84;-0.98;0.7;271.0;-0.267078;-0.080052
2.78;11.0;5.0;8.75;2.75;0.5;0.0;0.25;0.0;2.0;0.25;0.5;0.0;0.0;1.25;0.5;0.0;-0.237793;0.018555;0.993652;-0.63;0.63;0.49;379.0;-0.245265;0.046472;4.5;6.5;4.0;4.75;0.5;0.75;0.0;0.5;0.0;0.25;0.75;0.25;0.5;0.75;0.25;0.0;-0.250977;0.034668;0.974121;-0.7;-0.98;0.84;274.0;-0.260026;-0.080074
2.79;10.75;5.25;8.75;2.5;0.5;0.0;0.25;0.0;2.0;0.25;0.25;0.0;0.0;1.5;0.25;0.0;-0.235352;0.023438;0.982422;-0.77;0.7;0.49;372.0;-0.249427;0.049798;4.75;6.75;4.0;4.75;0.5;0.75;0.0;0.5;0.0;0.25;0.75;0.25;0.5;0.75;0.0;0.0;-0.250977;0.030762;0.96875;-0.77;-0.98;0.84;277.0;-0.269833;-0.078905
2.8;10.75;5.5;8.75;2.5;0.5;0.0;0.25;0.0;2.0;0.25;0.25;0.0;0.0;1.5;0.25;0.0;-0.230469;0.021973;0.989258;-0.7;0.49;0.7;375.0;-0.250551;0.048347;4.75;6.75;4.0;5.0;0.25;1.0;0.0;0.25;0.0;0.25;0.75;0.25;0.5;0.75;0.0;0.0;-0.249023;0.030762;0.969238;-0.84;-0.98;0.77;276.0;-0.274221;-0.079387
2.81;11.25;5.5;8.75;2.5;0.5;0.0;0.25;0.0;2.0;0.25;0.5;0.0;0.0;1.5;0.25;0.0;-0.239746;0.021484;0.98584;-0.56;0.42;0.63;383.0;-0.249251;0.048016;5.0;6.75;4.25;5.0;0.25;1.0;0.0;0.25;0.0;0.0;0.75;0.5;0.5;0.75;0.0;0.0;-0.250488;0.032715;0.970215;-0.77;-0.98;0.77;281.0;-0.275671;-0.079327
2.82;10.75;5.0;8.75;2.5;0.5;0.0;0.25;0.0;1.75;0.25;0.25;0.0;0.0;1.75;0.5;0.0;-0.23291;0.02002;0.991211;-0.7;0.56;0.63;372.0;-0.243956;0.048884;4.5;6.5;4.0;4.75;0.5;0.75;0.0;0.25;0.0;0.25;0.75;0.25;0.5;0.25;0.0;0.0;-0.254883;0.037598;0.975098;-0.77;-1.05;0.77;263.0;-0.283133;-0.079665
2.83;10.75;5.0;8.5;2.5;0.5;0.0;0.25;0.0;1.75;0.25;0.25;0.25;0.0;1.75;0.25;0.0;-0.234375;0.020996;0.978027;-0.56;0.42;0.56;369.0;-0.245303;0.046871;4.5;6.5;4.0;5.25;0.5;0.75;0.0;0.25;0.0;0.25;1.0;0.5;0.5;0.5;0.0;0.25;-0.250488;0.03418;0.968262;-0.7;-0.91;0.77;278.0;-0.263658;-0.084503
2.84;11.0;5.25;8.5;2.5;0.5;0.0;0.25;0.0;2.0;0.25;0.5;0.25;0.0;1.75;0.25;0.0;-0.234375;0.018555;0.983887;-0.7;0.49;0.56;380.0;-0.239353;0.046836;4.5;6.5;4.0;5.0;0.5;1.0;0.0;0.5;0.0;0.25;0.75;1.0;0.75;0.75;0.0;0.25;-0.256348;0.028809;0.963867;-0.63;-0.91;0.84;290.0;-0.245155;-0.094247
2.85;10.75;5.0;8.5;2.5;0.5;0.0;0.25;0.0;2.25;0.25;0.25;0.25;0.0;1.75;0.25;0.0;-0.232422;0.018066;0.978516;-0.56;0.42;0.56;376.0;-0.235751;0.051201;4.5;6.5;4.0;5.0;0.5;1.0;0.0;0.5;0.0;0.25;0.75;0.75;0.5;0.5;0.0;0.25;-0.251953;0.032715;0.974609;-0.7;-0.91;0.7;282.0;-0.258657;-0.091365
2.86;10.75;5.25;8.5;2.5;0.5;0.0;0.25;0.0;2.0;0.25;0.25;0.0;0.0;1.5;0.25;0.25;-0.235352;0.015625;0.980469;-0.63;0.49;0.63;371.0;-0.246859;0.048022;4.5;6.5;4.0;5.25;0.5;1.0;0.0;0.5;0.0;0.25;0.75;0.25;0.5;0.5;0.0;0.25;-0.250488;0.035645;0.970703;-0.56;-0.84;0.77;280.0;-0.268613;-0.088588
2.87;11.0;5.25;8.5;2.5;0.5;0.0;0.25;0.0;2.0;0.25;0.25;0.0;0.0;1.25;0.25;0.0;-0.236328;0.021973;0.980957;-0.7;0.42;0.56;370.0;-0.254626;0.049122;4.5;6.75;4.0;5.25;0.5;1.0;0.0;0.5;0.0;0.0;0.75;0.25;0.5;0.75;0.0;0.5;-0.24707;0.034668;0.980469;-0.7;-0.91;0.7;283.0;-0.266163;-0.089803
2.88;10.75;5.25;8.5;2.5;0.5;0.0;0.25;0.0;2.0;0.25;0.25;0.0;0.0;1.5;0.25;0.0;-0.234863;0.020508;0.986328;-0.7;0.49;0.63;369.0;-0.249294;0.049473;4.5;6.75;4.0;4.75;0.5;0.75;0.0;0.5;0.0;0.25;0.75;0.25;0.5;0.75;0.25;0.0;-0.249023;0.036133;0.973633;-0.77;-0.91;0.7;277.0;-0.261453;-0.080858
2.89;11.25;5.25;8.5;2.5;0.5;0.0;0.25;0.0;2.0;0.25;0.5;0.0;0.0;1.5;0.5;0.25;-0.231934;0.018555;0.987793;-0.63;0.42;0.56;382.0;-0.24073;0.046722;4.5;6.75;4.0;4.75;0.5;0.75;0.0;0.5;0.0;0.0;0.75;0.25;0.5;0.5;0.25;0.0;-0.253418;0.033691;0.970703;-0.7;-0.98;0.77;272.0;-0.272465;-0.084582
2.9;11.0;5.25;8.75;2.5;0.5;0.0;0.25;0.0;2.0;0.0;0.25;0.0;0.0;1.5;0.5;0.0;-0.235352;0.016602;0.981934;-0.7;0.49;0.56;375.0;-0.249278;0.04913;4.5;6.75;4.0;5.0;0.5;1.0;0.0;0.5;0.0;0.25;0.75;0.5;0.5;0.75;0.25;0.0;-0.254883;0.032715;0.96875;-0.7;-0.98;0.77;286.0;-0.255842;-0.086535
2.91;10.75;5.25;8.75;2.5;0.75;0.0;0.25;0.0;1.75;0.25;0.25;0.25;0.0;1.5;0.5;0.0;-0.232422;0.019043;0.985352;-0.7;0.42;0.56;378.0;-0.244745;0.044123;4.75;6.5;4.0;5.0;0.5;1.0;0.0;0.5;0.0;0.25;0.75;0.5;0.5;0.75;0.0;0.0;-0.257324;0.034668;0.976562;-0.63;-0.91;0.77;283.0;-0.262602;-0.083918
2.92;10.75;5.0;8.75;2.75;0.5;0.0;0.25;0.0;2.0;0.25;0.25;0.0;0.0;1.5;0.5;0.25;-0.233887;0.019043;0.989746;-0.77;0.49;0.49;377.0;-0.241226;0.046628;4.75;6.5;4.0;4.25;0.5;1.0;0.0;0.5;0.0;0.25;0.5;0.75;0.5;0.75;0.0;0.25;-0.250977;0.035156;0.968262;-0.7;-1.12;0.7;276.0;-0.258574;-0.082432
2.93;11.0;5.0;8.5;2.5;0.5;0.0;0.25;0.0;2.25;0.25;0.5;0.0;0.0;1.5;0.5;0.25;-0.233398;0.018066;0.98291;-0.7;0.63;0.49;380.0;-0.233683;0.049808;4.75;6.5;4.0;4.75;0.75;1.0;0.0;0.5;0.0;0.25;0.5;0.75;0.5;0.75;0.0;0.25;-0.256348;0.032715;0.969727;-0.7;-0.91;0.84;285.0;-0.25778;-0.083917
2.94;11.0;5.25;8.5;2.5;0.5;0.0;0.25;0.0;2.5;0.5;0.5;0.0;0.0;1.5;0.5;0.25;-0.241699;0.023438;0.98584;-0.7;0.49;0.56;389.0;-0.226906;0.050575;4.75;6.75;4.0;5.0;0.75;1.0;0.0;0.25;0.0;0.25;0.75;0.25;0.5;0.75;0.25;0.0;-0.253906;0.032227;0.972656;-0.7;-0.91;0.77;284.0;-0.264207;-0.076446
2.95;10.75;5.25;8.75;2.5;0.5;0.0;0.25;0.0;2.0;0.25;0.25;0.0;0.0;1.5;0.5;0.0;-0.232422;0.021973;0.985352;-0.7;0.49;0.42;375.0;-0.244409;0.048791;5.25;6.75;4.0;5.25;0.5;1.0;0.0;0.5;0.0;0.25;0.75;0.25;0.75;0.25;0.0;0.0;-0.252441;0.03125;0.974609;-0.77;-0.91;0.7;289.0;-0.278986;-0.087493
2.96;11.0;5.25;8.5;2.5;0.5;0.0;0.25;0.0;1.75;0.25;0.25;0.0;0.0;1.5;0.25;0.0;-0.232422;0.016602;0.982422;-0.63;0.49;0.56;369.0;-0.255382;0.047748;4.75;6.75;4.0;5.25;0.5;1.0;0.0;0.5;0.25;0.25;0.5;0.5;0.5;0.25;0.0;0.25;-0.256348;0.031738;0.969727;-0.84;-0.98;0.7;286.0;-0.270344;-0.086754
2.97;11.0;5.25;8.25;2.25;0.5;0.0;0.25;0.0;2.0;0.25;0.5;0.0;0.0;2.0;0.25;0.0;-0.234863;0.020508;0.984375;-0.63;0.56;0.56;374.0;-0.238161;0.052128;4.75;6.25;4.0;4.75;0.5;1.0;0.0;0.25;0.0;0.25;0.75;0.25;0.75;0.25;0.0;0.0;-0.251953;0.02832;0.969238;-0.77;-0.91;0.77;268.0;-0.277722;-0.082361
2.98;10.75;5.25;8.5;2.5;0.5;0.0;0.25;0.0;2.0;0.25;0.5;0.25;0.0;2.0;0.25;0.0;-0.23291;0.021484;0.98291;-0.77;0.56;0.56;380.0;-0.234147;0.047174;4.5;6.5;4.0;5.0;0.25;1.0;0.0;0.25;0.0;0.25;1.0;0.25;0.75;0.25;0.0;0.0;-0.25293;0.034668;0.96875;-0.77;-0.84;0.77;271.0;-0.274181;-0.088663
2.99;10.75;5.0;8.5;2.75;0.5;0.0;0.25;0.0;2.0;0.25;0.5;0.25;0.0;1.75;0.25;0.0;-0.230957;0.019531;0.981445;-0.7;0.63;0.56;378.0;-0.237326;0.045636;4.5;6.75;4.0;5.0;0.25;0.75;0.0;0.25;0.0;0.25;0.75;0.25;0.75;0.75;0.0;0.25;-0.25;0.032715;0.967773;-0.91;-0.91;0.77;274.0;-0.266957;-0.083787
3.0;10.75;5.0;8.5;2.75;0.5;0.0;0.25;0.0;2.0;0.25;0.5;0.25;0.0;1.75;0.25;0.0;-0.234375;0.015137;0.984863;-0.63;0.63;0.56;378.0;-0.237326;0.045636;4.5;6.5;4.0;5.0;0.5;1.0;0.0;0.25;0.0;0.25;0.75;0.25;0.75;0.75;0.0;0.5;-0.25293;0.027344;0.972168;-0.84;-1.05;0.77;279.0;-0.259514;-0.084719
3.01;11.25;5.25;8.5;2.5;0.5;0.0;0.25;0.0;2.25;0.0;0.25;0.25;0.0;1.75;0.25;0.25;-0.240723;0.022949;0.983398;-0.63;0.63;0.49;382.0;-0.240651;0.049115;4.75;6.5;4.0;5.0;0.5;1.0;0.0;0.5;0.0;0.0;0.75;0.75;0.75;0.75;0.0;0.5;-0.254883;0.028809;0.971191;-0.91;-0.91;0.77;288.0;-0.252919;-0.092929
3.02;11.0;5.25;8.5;2.5;0.5;0.0;0.25;0.0;2.5;0.25;0.5;0.0;0.0;1.75;0.25;0.25;-0.232422;0.022461;0.990723;-0.7;0.63;0.56;386.0;-0.231213;0.052227;4.75;6.75;3.75;5.0;0.5;1.0;0.0;0.5;0.0;0.0;0.75;0.75;0.5;0.5;0.0;0.25;-0.256836;0.037109;0.977051;-0.84;-1.05;0.84;282.0;-0.266484;-0.093545
3.03;11.0;5.25;8.5;2.5;0.5;0.0;0.25;0.0;2.25;0.25;0.5;0.0;0.0;1.75;0.5;0.0;-0.233887;0.01416;0.982422;-0.7;0.49;0.49;384.0;-0.233269;0.050567;4.75;6.5;4.0;4.5;0.5;1.0;0.0;0.5;0.0;0.25;0.75;0.5;0.5;0.75;0.0;0.0;-0.25293;0.03418;0.969727;-0.84;-0.98;0.77;277.0;-0.262061;-0.080867
3.04;11.0;5.25;8.5;2.5;0.5;0.0;0.25;0.0;2.0;0.0;0.25;0.0;0.0;1.75;0.5;0.0;-0.234375;0.018066;0.98584;-0.7;0.49;0.56;375.0;-0.245045;0.0496;4.75;6.5;4.0;5.25;0.5;1.0;0.0;0.25;0.0;0.0;0.75;0.25;0.5;0.75;0.0;0.0;-0.250488;0.029785;0.973633;-0.84;-0.91;0.77;276.0;-0.276744;-0.08012
3.05;11.0;5.5;8.75;2.5;0.5;0.0;0.25;0.0;2.0;0.0;0.25;0.0;0.0;1.75;0.5;0.0;-0.231934;0.019531;0.984863;-0.7;0.56;0.49;380.0;-0.246347;0.048488;4.75;6.5;4.0;5.0;0.5;0.75;0.0;0.5;0.0;0.25;0.5;0.25;0.5;0.75;0.0;0.25;-0.245605;0.027832;0.968262;-0.91;-0.84;0.84;276.0;-0.270439;-0.08057
3.06;11.0;5.0;8.5;2.5;0.5;0.0;0.25;0.0;2.5;0.25;0.25;0.25;0.0;1.75;0.5;0.25;-0.233398;0.016113;0.983887;-0.7;0.49;0.49;386.0;-0.225365;0.051301;4.5;6.5;4.0;5.0;0.5;1.0;0.0;0.5;0.0;0.25;0.5;0.25;0.5;0.75;0.0;0.25;-0.256836;0.031738;0.975586;-0.84;-0.91;0.84;276.0;-0.267803;-0.084585
3.07;10.75;5.0;8.5;2.5;0.5;0.0;0.25;0.0;2.25;0.25;0.5;0.0;0.0;1.75;0.25;0.0;-0.23584;0.020508;0.990234;-0.7;0.49;0.49;376.0;-0.235648;0.052594;4.75;6.75;4.0;4.75;0.5;1.0;0.0;0.5;0.0;0.0;0.5;0.25;0.5;0.5;0.0;0.25;-0.251953;0.033203;0.975098;-0.77;-0.91;0.77;273.0;-0.281432;-0.085567
3.08;11.25;5.0;8.5;2.5;0.5;0.0;0.25;0.0;2.25;0.25;0.5;0.0;0.0;1.5;0.25;0.0;-0.232422;0.02002;0.976074;-0.77;0.49;0.56;379.0;-0.242122;0.052668;4.75;6.75;4.0;5.0;0.5;1.0;0.0;0.5;0.25;0.0;0.5;0.5;0.5;0.5;0.0;0.25;-0.253906;0.033203;0.972168;-0.84;-0.98;0.77;283.0;-0.269689;-0.084632
3.09;11.25;5.25;8.75;2.5;0.5;0.0;0.25;0.0;2.0;0.25;0.5;0.0;0.0;1.5;0.25;0.0;-0.230957;0.016602;0.986328;-0.63;0.42;0.63;381.0;-0.248144;0.049433;4.75;6.5;4.0;5.0;0.5;1.0;0.0;0.25;0.0;0.25;0.75;0.5;0.5;0.75;0.0;0.0;-0.253418;0.033203;0.969238;-0.77;-0.91;0.77;279.0;-0.266337;-0.079322
3.1;11.0;5.0;8.75;2.5;0.5;0.0;0.25;0.0;2.0;0.25;0.5;0.0;0.0;2.0;0.25;0.0;-0.23877;0.019043;0.987793;-0.63;0.49;0.63;380.0;-0.237806;0.051986;4.75;6.5;4.0;4.75;0.5;1.0;0.0;0.25;0.0;0.0;0.75;0.5;0.5;0.75;0.0;0.0;-0.250977;0.03418;0.969727;-0.84;-1.05;0.7;273.0;-0.271378;-0.079215
3.11;11.0;5.25;8.75;2.5;0.5;0.0;0.25;0.0;2.0;0.25;0.5;0.25;0.0;2.0;0.25;0.0;-0.237793;0.020508;0.98291;-0.63;0.35;0.63;386.0;-0.235636;0.047959;4.75;6.5;4.0;5.0;0.5;0.75;0.0;0.5;0.0;0.25;0.75;0.5;0.5;0.75;0.0;0.25;-0.252441;0.026855;0.974121;-0.84;-0.91;0.77;282.0;-0.260489;-0.083129
3.12;11.0;5.0;8.5;2.5;0.75;0.0;0.25;0.0;2.0;0.25;0.75;0.25;0.0;1.75;0.25;0.0;-0.230957;0.016602;0.986328;-0.63;0.56;0.56;384.0;-0.233827;0.047136;4.5;6.75;4.0;4.75;0.5;0.75;0.0;0.5;0.0;0.25;0.75;0.75;0.75;0.25;0.0;0.0;-0.249023;0.030273;0.96875;-0.77;-0.91;0.77;277.0;-0.266212;-0.092863
3.13;11.0;5.25;8.75;2.25;0.5;0.0;0.25;0.0;2.0;0.25;0.75;0.25;0.0;1.5;0.0;0.25;-0.236328;0.018555;0.985352;-0.56;0.42;0.56;380.0;-0.242208;0.046862;5.0;6.5;4.0;5.0;0.5;1.0;0.0;0.5;0.25;0.25;0.75;0.75;0.75;0.5;0.0;0.0;-0.254395;0.032715;0.972168;-0.63;-0.84;0.77;292.0;-0.254848;-0.084875
3.14;11.0;5.25;8.75;2.5;0.5;0.0;0.25;0.0;2.25;0.25;0.5;0.25;0.0;1.5;0.25;0.25;-0.23291;0.022949;0.985352;-0.63;0.56;0.49;386.0;-0.236585;0.047107;4.5;6.5;4.0;4.75;0.5;0.75;0.0;0.25;0.25;0.25;0.75;0.75;0.5;0.5;0.0;0.0;-0.253418;0.034668;0.97168;-0.63;-0.84;0.77;274.0;-0.259863;-0.077408
3.15;10.75;5.25;8.75;2.5;0.5;0.0;0.25;0.0;2.25;0.25;0.5;0.25;0.0;1.25;0.5;0.25;-0.229492;0.020508;0.989258;-0.7;0.35;0.56;384.0;-0.234472;0.044896;4.75;6.75;4.0;4.75;0.5;1.0;0.0;0.25;0.0;0.25;0.75;0.25;0.25;0.5;0.0;0.0;-0.251953;0.03418;0.970215;-0.77;-0.91;0.77;271.0;-0.282165;-0.075098
3.16;10.75;5.25;8.75;2.5;0.5;0.0;0.25;0.0;2.0;0.25;0.5;0.25;0.0;1.25;0.5;0.25;-0.230469;0.01709;0.985352;-0.49;0.49;0.56;380.0;-0.239088;0.042738;4.75;6.75;4.0;5.0;0.5;1.0;0.0;0.5;0.0;0.0;0.75;0.25;0.25;0.5;0.25;0.0;-0.247559;0.03418;0.974609;-0.77;-0.84;0.84;278.0;-0.276414;-0.082948
3.17;11.0;5.25;8.75;2.5;0.5;0.0;0.25;0.0;1.75;0.0;0.5;0.25;0.0;1.75;0.25;0.0;-0.236816;0.020996;0.984863;-0.56;0.42;0.56;377.0;-0.247886;0.044892;4.75;6.5;4.0;4.75;0.5;1.0;0.0;0.25;0.0;0.0;1.0;0.25;0.5;0.75;0.5;0.0;-0.253418;0.029297;0.972656;-0.7;-0.91;0.77;279.0;-0.257282;-0.077416
3.18;11.0;5.25;8.75;2.5;0.5;0.0;0.25;0.0;2.0;0.0;0.5;0.25;0.0;1.5;0.25;0.0;-0.23291;0.019043;0.978516;-0.7;0.63;0.63;378.0;-0.247171;0.046246;4.25;6.75;4.0;5.0;0.5;1.0;0.0;0.25;0.0;0.0;0.75;0.25;0.75;0.75;0.0;0.0;-0.253418;0.03418;0.972168;-0.7;-0.91;0.77;272.0;-0.271434;-0.086546
3.19;11.0;5.25;8.75;2.5;0.75;0.0;0.25;0.0;2.0;0.0;0.5;0.0;0.0;1.5;0.25;0.0;-0.226562;0.023926;0.984863;-0.63;0.42;0.63;378.0;-0.24968;0.048974;4.25;6.75;4.0;4.5;0.5;1.0;0.0;0.25;0.0;0.0;0.75;0.5;0.5;0.75;0.0;0.0;-0.251953;0.030762;0.973145;-0.7;-0.91;0.7;267.0;-0.269771;-0.082385
3.2;11.0;5.0;8.5;2.75;0.75;0.0;0.25;0.0;2.25;0.25;0.5;0.0;0.0;1.75;0.5;0.0;-0.233887;0.018555;0.991211;-0.7;0.56;0.63;387.0;-0.23166;0.049929;4.5;6.5;4.0;4.75;0.5;1.0;0.0;0.25;0.0;0.0;0.75;0.25;0.5;0.75;0.0;0.0;-0.25293;0.035156;0.97168;-0.77;-0.84;0.77;267.0;-0.275162;-0.078873
3.21;11.25;5.25;8.5;2.75;0.5;0.0;0.25;0.0;2.5;0.0;0.5;0.0;0.0;1.75;0.5;0.25;-0.228516;0.017578;0.98584;-0.77;0.49;0.56;392.0;-0.231635;0.049449;4.75;6.75;4.25;5.25;0.5;1.0;0.0;0.5;0.0;0.0;0.75;0.25;0.5;0.75;0.0;0.0;-0.256836;0.030273;0.966797;-0.7;-0.84;0.77;286.0;-0.274007;-0.08361
3.22;10.75;5.25;8.25;2.5;0.5;0.0;0.25;0.0;2.25;0.0;0.5;0.0;0.0;1.75;0.5;0.0;-0.230469;0.015137;0.984863;-0.7;0.56;0.63;375.0;-0.235314;0.049711;4.5;6.75;4.0;5.0;0.5;1.0;0.0;0.5;0.0;0.25;0.75;0.5;0.5;0.75;0.25;0.25;-0.253906;0.030273;0.972168;-0.7;-0.91;0.77;287.0;-0.252662;-0.087706
3.23;11.0;5.25;8.5;2.5;0.5;0.0;0.25;0.0;2.0;0.25;0.5;0.0;0.0;1.75;0.25;0.0;-0.237793;0.01709;0.989258;-0.7;0.49;0.63;377.0;-0.242777;0.049455;4.5;6.75;4.0;5.0;0.5;1.0;0.0;0.5;0.0;0.0;0.5;0.5;0.5;0.75;0.0;0.0;-0.254395;0.030762;0.96875;-0.84;-0.98;0.84;277.0;-0.272768;-0.08782
3.24;10.75;5.25;8.5;2.5;0.5;0.0;0.25;0.0;2.25;0.25;0.5;0.25;0.0;1.5;0.25;0.0;-0.234863;0.023438;0.979492;-0.7;0.63;0.49;379.0;-0.237442;0.047718;4.5;6.75;4.0;4.75;0.5;1.0;0.0;0.25;0.0;0.0;0.75;0.25;0.5;0.75;0.0;0.0;-0.252441;0.030273;0.97168;-0.84;-0.98;0.77;270.0;-0.276483;-0.079688
3.25;11.0;5.25;8.75;2.5;0.5;0.0;0.25;0.0;2.25;0.0;0.5;0.25;0.0;1.75;0.25;0.0;-0.235352;0.014648;0.986328;-0.7;0.56;0.56;384.0;-0.238495;0.049164;4.25;6.5;4.0;5.0;0.5;1.0;0.0;0.25;0.25;0.0;0.75;0.25;0.5;0.75;0.0;0.25;-0.249512;0.035156;0.96875;-0.7;-0.84;0.77;273.0;-0.263539;-0.079068
3.26;11.25;5.25;8.5;2.25;0.5;0.0;0.25;0.0;2.0;0.25;0.25;0.25;0.0;1.75;0.25;0.0;-0.227539;0.015625;0.983887;-0.63;0.63;0.56;377.0;-0.243726;0.050694;4.5;6.5;4.0;4.75;0.5;1.0;0.0;0.5;0.0;0.25;0.75;0.25;0.5;0.75;0.0;0.25;-0.247559;0.026367;0.972168;-0.77;-0.84;0.7;276.0;-0.262469;-0.083385
3.27;11.0;5.25;8.5;2.25;0.5;0.0;0.25;0.0;2.0;0.25;0.5;0.25;0.0;1.75;0.25;0.0;-0.231445;0.019043;0.982422;-0.77;0.56;0.49;377.0;-0.23897;0.048995;4.5;6.5;4.0;5.25;0.5;1.0;0.0;0.5;0.0;0.25;1.0;0.25;0.5;0.75;0.0;0.25;-0.247559;0.036133;0.977051;-0.77;-0.91;0.7;285.0;-0.258091;-0.086692
3.28;10.75;5.25;8.5;2.5;0.5;0.0;0.25;0.0;2.0;0.25;0.5;0.25;0.0;1.5;0.5;0.0;-0.230957;0.02002;0.988281;-0.84;0.63;0.42;378.0;-0.237223;0.044589;4.5;6.5;4.0;5.0;0.75;1.0;0.0;0.5;0.0;0.0;1.0;0.25;0.75;1.0;0.0;0.25;-0.254883;0.030273;0.972656;-0.7;-0.77;0.77;287.0;-0.252391;-0.086129
3.29;11.0;4.75;8.75;2.5;0.5;0.0;0.25;0.0;2.25;0.25;0.25;0.25;0.0;1.75;0.5;0.0;-0.233887;0.019531;0.983887;-0.7;0.56;0.49;382.0;-0.231207;0.052366;4.5;6.5;4.0;5.0;0.5;1.0;0.0;0.5;0.0;0.25;0.75;0.25;0.75;0.75;0.0;0.0;-0.256836;0.034668;0.973145;-0.7;-0.84;0.77;280.0;-0.262402;-0.086867
3.3;11.0;5.0;8.75;2.5;0.5;0.0;0.25;0.0;1.25;0.25;0.25;0.0;0.0;1.75;0.25;0.0;-0.235352;0.013672;0.984375;-0.7;0.35;0.56;364.0;-0.260142;0.045955;4.5;6.5;4.0;4.75;0.25;1.0;0.0;0.5;0.0;0.25;1.0;0.25;0.5;0.75;0.0;0.25;-0.255371;0.027832;0.969238;-0.77;-0.84;0.77;276.0;-0.258896;-0.085297
3.31;10.75;5.0;8.75;2.25;0.5;0.0;0.25;0.0;2.0;0.25;0.25;0.25;0.0;2.0;0.25;0.0;-0.234863;0.018555;0.982422;-0.7;0.49;0.35;374.0;-0.23626;0.052375;4.5;6.5;4.0;4.75;0.5;1.0;0.0;0.5;0.0;0.25;1.0;0.25;0.5;0.75;0.0;0.25;-0.252441;0.034668;0.967285;-0.77;-0.91;0.77;279.0;-0.257457;-0.083718
3.32;10.75;5.0;8.75;2.5;0.5;0.25;0.25;0.0;2.25;0.25;0.5;0.25;0.0;2.0;0.25;0.0;-0.23584;0.019043;0.987305;-0.77;0.56;0.42;387.0;-0.22804;0.048533;4.5;6.5;4.0;4.75;0.5;1.0;0.0;0.5;0.0;0.25;0.75;0.25;0.5;0.75;0.0;0.0;-0.25293;0.029785;0.974121;-0.77;-0.84;0.7;274.0;-0.265833;-0.082143
3.33;11.25;5.0;8.5;2.5;0.5;0.25;0.25;0.0;2.0;0.25;0.5;0.25;0.0;1.75;0.25;0.25;-0.232422;0.012695;0.985352;-0.7;0.42;0.56;385.0;-0.236417;0.044829;4.5;6.5;4.0;4.75;0.5;1.0;0.0;0.25;0.25;0.25;0.75;0.5;0.5;0.75;0.0;0.0;-0.247559;0.03418;0.967285;-0.77;-0.84;0.77;277.0;-0.257949;-0.075097
3.34;11.25;5.0;8.5;2.25;0.5;0.0;0.25;0.0;2.0;0.25;0.25;0.25;0.0;2.0;0.25;0.25;-0.238281;0.021973;0.97998;-0.77;0.49;0.42;379.0;-0.236186;0.051491;4.5;6.5;4.25;4.75;0.5;1.25;0.0;0.5;0.0;0.25;1.0;0.5;0.5;0.75;0.0;0.0;-0.256348;0.035156;0.973145;-0.84;-0.84;0.84;286.0;-0.254949;-0.084785
3.35;11.25;5.0;8.75;2.5;0.75;0.0;0.25;0.0;2.25;0.25;0.25;0.25;0.0;1.75;0.25;0.0;-0.237305;0.016113;0.981445;-0.77;0.49;0.49;387.0;-0.237577;0.052423;4.5;6.5;4.0;4.5;0.5;1.0;0.0;0.25;0.0;0.25;0.75;0.5;0.5;0.75;0.0;0.0;-0.255371;0.035156;0.970703;-0.84;-0.98;0.77;270.0;-0.264431;-0.078062
3.36;11.0;5.25;8.75;2.5;0.5;0.0;0.25;0.0;2.25;0.25;0.5;0.0;0.0;1.75;0.25;0.0;-0.235352;0.022461;0.980957;-0.63;0.21;0.56;384.0;-0.238308;0.051865;4.5;6.5;4.0;5.25;0.5;1.0;0.0;0.25;0.25;0.0;0.75;0.75;0.75;0.75;0.25;0.25;-0.254395;0.02832;0.97168;-0.77;-1.05;0.84;289.0;-0.245573;-0.086196
3.37;11.25;5.0;8.75;2.5;0.5;0.0;0.25;0.0;2.25;0.25;0.5;0.25;0.0;1.75;0.25;0.25;-0.23584;0.016602;0.981445;-0.77;0.49;0.49;389.0;-0.232755;0.04972;4.5;6.5;4.0;4.25;0.75;1.0;0.0;0.5;0.0;0.0;1.0;0.75;0.75;0.75;0.0;0.0;-0.251953;0.034668;0.976074;-0.77;-1.05;0.84;280.0;-0.250514;-0.086967
3.38;11.25;5.0;8.5;2.5;0.5;0.0;0.25;0.0;2.5;0.25;0.5;0.0;0.0;1.5;0.25;0.0;-0.236328;0.01709;0.994141;-0.84;0.42;0.56;383.0;-0.237462;0.05474;4.75;6.5;4.0;4.75;0.25;1.0;0.0;0.5;0.0;0.25;1.0;0.75;0.5;0.75;0.25;0.0;-0.253906;0.033691;0.974609;-0.77;-0.84;0.77;286.0;-0.247409;-0.086401
3.39;10.75;5.25;8.75;2.5;0.5;0.0;0.25;0.0;2.25;0.25;0.25;0.0;0.0;1.5;0.25;0.0;-0.23291;0.017578;0.979004;-0.77;0.35;0.49;376.0;-0.244616;0.051934;4.5;6.5;4.0;5.0;0.5;1.0;0.0;0.5;0.25;0.0;0.75;0.75;0.5;0.75;0.0;0.25;-0.254883;0.032715;0.970215;-0.77;-0.84;0.84;285.0;-0.251713;-0.086139
3.4;11.0;5.25;8.75;2.5;0.5;0.0;0.25;0.0;2.25;0.0;0.5;0.0;0.0;1.5;0.25;0.25;-0.238281;0.018555;0.985352;-0.7;0.42;0.49;380.0;-0.243526;0.049582;4.5;6.5;3.75;5.0;0.75;1.0;0.0;0.5;0.0;0.0;0.75;0.75;0.5;0.75;0.0;0.25;-0.255371;0.03418;0.972168;-0.77;-0.98;0.84;282.0;-0.256668;-0.091044
3.41;11.25;5.0;8.75;2.5;0.75;0.0;0.25;0.0;2.25;0.0;0.5;0.0;0.0;1.75;0.25;0.0;-0.233887;0.013672;0.987305;-0.7;0.49;0.56;384.0;-0.24101;0.053698;4.5;6.5;4.0;5.0;0.5;0.75;0.0;0.5;0.0;0.25;0.75;0.75;0.75;0.75;0.0;0.0;-0.256348;0.036133;0.974609;-0.7;-0.91;0.77;283.0;-0.253942;-0.089165
3.42;11.0;5.0;8.75;2.75;0.5;0.0;0.25;0.0;2.25;0.0;0.5;0.25;0.0;2.0;0.25;0.0;-0.233398;0.016113;0.987305;-0.7;0.63;0.56;387.0;-0.233808;0.049215;4.5;6.5;4.0;4.75;0.5;0.75;0.0;0.5;0.0;0.25;0.75;0.75;0.5;0.5;0.0;0.0;-0.251465;0.03418;0.967773;-0.77;-0.91;0.7;275.0;-0.262831;-0.086747
3.43;10.75;5.25;8.75;2.75;0.5;0.0;0.25;0.0;2.25;0.25;0.5;0.25;0.0;2.0;0.5;0.0;-0.23291;0.022461;0.987305;-0.63;0.56;0.63;392.0;-0.225637;0.046548;4.5;6.5;4.0;5.0;0.5;0.75;0.0;0.5;0.0;0.25;1.0;0.75;0.5;0.5;0.0;0.25;-0.248047;0.028809;0.973633;-0.77;-0.98;0.7;282.0;-0.254868;-0.0897
3.44;10.75;5.25;8.5;2.5;0.5;0.0;0.25;0.0;2.25;0.25;0.5;0.25;0.0;2.0;0.25;0.0;-0.231934;0.021973;0.98877;-0.63;0.49;0.56;383.0;-0.229571;0.049293;4.25;6.5;4.0;4.75;0.5;1.0;0.0;0.5;0.0;0.25;0.75;0.75;0.5;0.5;0.0;0.0;-0.250977;0.028809;0.969727;-0.84;-0.98;0.7;275.0;-0.260189;-0.090772
3.45;11.0;5.0;8.75;2.5;0.5;0.0;0.25;0.0;2.25;0.5;0.5;0.0;0.0;2.0;0.25;0.0;-0.233887;0.016113;0.988281;-0.56;0.49;0.49;387.0;-0.22972;0.05413;4.5;6.5;4.0;4.75;0.5;1.0;0.0;0.5;0.0;0.0;0.75;0.75;0.5;0.75;0.0;0.0;-0.251465;0.035645;0.976074;-0.77;-1.19;0.84;277.0;-0.261149;-0.088074
3.46;11.0;5.0;8.75;2.5;0.75;0.0;0.25;0.0;2.25;0.5;0.5;0.0;0.0;1.75;0.25;0.25;-0.22998;0.018555;0.981934;-0.56;0.63;0.63;389.0;-0.2305;0.052046;4.75;6.5;4.0;4.75;0.5;1.0;0.0;0.5;0.0;0.0;1.0;0.5;0.75;0.25;0.0;0.0;-0.251465;0.033203;0.970703;-0.77;-0.91;0.77;278.0;-0.270071;-0.091811
3.47;11.25;5.25;8.75;2.5;0.75;0.0;0.25;0.0;2.25;0.25;0.5;0.0;0.0;1.75;0.5;0.25;-0.229004;0.01709;0.981445;-0.49;0.56;0.63;394.0;-0.231686;0.049999;4.5;6.5;4.0;5.0;0.5;1.0;0.0;0.5;0.0;0.25;1.0;0.5;0.5;0.5;0.0;0.0;-0.25293;0.032227;0.974121;-0.63;-0.84;0.7;281.0;-0.261789;-0.088348
3.48;10.75;5.0;9.0;2.5;0.75;0.0;0.25;0.0;2.25;0.0;0.25;0.0;0.0;1.75;0.5;0.0;-0.229492;0.018555;0.98291;-0.56;0.49;0.63;382.0;-0.237429;0.053414;4.5;6.5;4.0;5.0;0.5;1.0;0.0;0.5;0.0;0.25;1.0;0.75;0.5;0.5;0.0;0.0;-0.250977;0.030762;0.966797;-0.77;-0.91;0.77;284.0;-0.257005;-0.090453
3.49;11.0;5.0;8.75;2.5;0.5;0.0;0.25;0.0;2.5;0.25;0.25;0.25;0.0;1.75;0.5;0.0;-0.229004;0.019531;0.980469;-0.49;0.7;0.56;388.0;-0.227917;0.052993;4.75;6.75;4.0;4.75;0.75;1.0;0.0;0.5;0.0;0.0;0.75;0.75;0.5;0.5;0.0;0.0;-0.252441;0.02832;0.968262;-0.7;-0.84;0.7;283.0;-0.268033;-0.087397
3.5;11.0;5.0;8.5;2.5;0.5;0.0;0.25;0.0;2.25;0.25;0.5;0.25;0.0;1.75;0.25;0.0;-0.232422;0.02002;0.985352;-0.35;0.35;0.63;381.0;-0.233532;0.050377;4.75;6.75;4.0;5.0;0.75;1.0;0.0;0.5;0.0;0.25;0.75;0.75;0.75;0.75;0.0;0.0;-0.251465;0.025879;0.972168;-0.77;-0.91;0.77;294.0;-0.254433;-0.088242
3.51;11.0;5.5;8.5;2.75;0.5;0.0;0.25;0.0;2.0;0.25;0.5;0.0;0.0;2.0;0.25;0.0;-0.232422;0.017578;0.980957;-0.35;0.56;0.56;385.0;-0.240314;0.046683;4.5;6.5;4.0;4.25;0.75;1.0;0.0;0.5;0.25;0.25;0.75;0.75;0.5;0.5;0.0;0.0;-0.255859;0.029297;0.974609;-0.77;-0.98;0.77;278.0;-0.252965;-0.079526
3.52;11.0;5.25;8.5;2.25;0.5;0.0;0.25;0.0;2.0;0.25;0.5;0.0;0.0;1.75;0.25;0.0;-0.23584;0.016602;0.980957;-0.49;0.42;0.56;374.0;-0.242418;0.051651;4.5;6.5;4.0;5.0;0.5;1.0;0.0;0.5;0.25;0.25;1.0;0.75;0.5;0.75;0.0;0.0;-0.24707;0.033691;0.969727;-0.77;-0.91;0.77;290.0;-0.245298;-0.083798
3.53;11.0;5.25;8.5;2.5;0.5;0.0;0.25;0.0;2.0;0.25;0.5;0.0;0.0;1.5;0.0;0.0;-0.232422;0.021484;0.980957;-0.56;0.49;0.56;372.0;-0.251872;0.049668;4.5;6.25;4.0;5.25;0.5;1.0;0.0;0.5;0.25;0.25;1.0;0.75;0.5;0.5;0.0;0.25;-0.25293;0.029785;0.974121;-0.77;-0.84;0.7;289.0;-0.24642;-0.087818
3.54;11.0;5.5;8.75;2.5;0.75;0.0;0.25;0.0;2.0;0.0;0.75;0.25;0.0;1.75;0.25;0.25;-0.229004;0.019531;0.985352;-0.35;0.42;0.63;390.0;-0.237633;0.043219;4.5;6.5;4.0;5.0;0.5;0.75;0.0;0.5;0.25;0.0;1.0;0.75;0.5;0.5;0.0;0.0;-0.255371;0.032715;0.968262;-0.77;-0.91;0.7;281.0;-0.256612;-0.085448
3.55;11.0;5.25;8.75;2.5;0.5;0.0;0.25;0.0;2.25;0.0;0.5;0.0;0.0;1.75;0.25;0.0;-0.235352;0.018555;0.984863;-0.42;0.35;0.49;381.0;-0.241878;0.051775;4.25;6.5;4.0;5.0;0.5;1.0;0.0;0.5;0.25;0.0;1.0;0.75;0.5;0.75;0.0;0.25;-0.251953;0.030273;0.971191;-0.77;-0.84;0.77;285.0;-0.245424;-0.08837
3.56;11.0;5.0;8.75;2.5;0.75;0.0;0.25;0.0;2.5;0.0;0.5;0.0;0.0;1.75;0.25;0.0;-0.233887;0.015137;0.979492;-0.35;0.35;0.7;385.0;-0.235201;0.055341;4.25;6.5;4.0;5.0;0.5;1.25;0.0;0.5;0.25;0.25;1.0;0.75;0.75;0.75;0.25;0.25;-0.25;0.032227;0.970703;-0.63;-0.77;0.77;296.0;-0.230221;-0.091667
3.57;11.0;5.25;8.75;2.5;0.5;0.0;0.25;0.0;2.0;0.25;0.5;0.0;0.0;1.5;0.25;0.0;-0.233887;0.021484;0.984863;-0.49;0.42;0.56;378.0;-0.246983;0.048988;4.25;6.5;4.0;5.25;0.5;1.0;0.0;0.5;0.0;0.25;1.0;0.75;0.5;0.75;0.25;0.25;-0.252441;0.034668;0.97168;-0.7;-0.84;0.77;291.0;-0.24084;-0.092694
3.58;10.75;5.0;8.5;2.5;0.5;0.0;0.25;0.0;2.0;0.25;0.25;0.25;0.0;1.75;0.25;0.25;-0.233887;0.01709;0.98291;-0.56;0.56;0.56;374.0;-0.238098;0.047618;4.25;6.5;4.0;4.5;0.5;1.25;0.0;0.5;0.0;0.0;0.75;0.75;0.5;0.75;0.25;0.5;-0.252441;0.030762;0.974609;-0.77;-0.77;0.77;280.0;-0.244865;-0.092881
3.59;10.75;5.0;8.75;2.25;0.5;0.0;0.25;0.0;2.25;0.25;0.25;0.25;0.0;2.0;0.25;0.0;-0.231445;0.017578;0.980469;-0.49;0.42;0.56;378.0;-0.231599;0.054475;4.25;6.5;4.0;4.5;0.5;1.0;0.0;0.5;0.0;0.0;0.75;0.5;0.75;0.75;0.0;0.25;-0.25;0.031738;0.963379;-0.63;-0.84;0.77;272.0;-0.257255;-0.090873
3.6;10.75;4.75;8.75;2.25;0.5;0.0;0.25;0.0;2.25;0.0;0.25;0.25;0.0;2.0;0.25;0.0;-0.230957;0.01416;0.985352;-0.63;0.56;0.49;373.0;-0.233948;0.055894;4.25;6.25;4.0;4.5;0.5;1.0;0.0;0.5;0.0;0.0;0.75;0.5;0.5;1.0;0.0;0.25;-0.251465;0.029785;0.972168;-0.7;-0.77;0.63;270.0;-0.253727;-0.084626
3.61;10.75;5.25;8.75;2.5;0.75;0.25;0.25;0.0;2.25;0.25;0.25;0.0;0.0;2.0;0.5;0.0;-0.233398;0.019043;0.983887;-0.56;0.49;0.49;390.0;-0.230358;0.050039;5.25;6.25;4.0;4.5;0.75;1.0;0.0;0.5;0.0;0.25;1.0;0.75;0.5;0.75;0.0;0.0;-0.250977;0.031738;0.972656;-0.7;-0.7;0.77;289.0;-0.252531;-0.07742
3.62;10.75;5.0;8.75;2.5;0.75;0.0;0.25;0.0;2.25;0.25;0.25;0.0;0.0;2.0;0.5;0.0;-0.232422;0.020996;0.983398;-0.7;0.42;0.49;384.0;-0.229741;0.053959;4.75;6.25;4.0;4.5;0.5;1.0;0.0;0.5;0.25;0.25;1.0;0.5;0.5;0.25;0.0;0.0;-0.251465;0.03125;0.96875;-0.7;-0.84;0.77;276.0;-0.260225;-0.080198
3.63;10.75;5.0;8.75;2.5;0.5;0.0;0.25;0.0;2.25;0.25;0.25;0.25;0.0;2.0;0.5;0.0;-0.230957;0.021973;0.981934;-0.56;0.42;0.49;384.0;-0.227264;0.051273;4.5;6.0;4.0;4.5;0.5;1.0;0.0;0.5;0.25;0.25;1.0;0.25;0.5;0.25;0.25;0.0;-0.254395;0.027832;0.976562;-0.77;-0.7;0.7;271.0;-0.255204;-0.079104
3.64;10.75;4.75;8.75;2.5;0.5;0.0;0.25;0.0;2.25;0.25;0.5;0.25;0.0;1.75;0.5;0.0;-0.229492;0.015625;0.982422;-0.63;0.35;0.56;382.0;-0.226509;0.050687;4.5;6.25;4.0;4.25;0.5;1.0;0.0;0.5;0.0;0.5;1.0;0.5;0.75;0.5;0.0;0.0;-0.252441;0.029785;0.970215;-0.7;-0.63;0.63;274.0;-0.250623;-0.084786
3.65;10.75;5.0;8.75;2.5;0.5;0.0;0.25;0.0;2.5;0.25;0.5;0.25;0.0;2.0;0.5;0.0;-0.225098;0.018066;0.989258;-0.7;0.49;0.56;390.0;-0.219512;0.052092;4.5;6.5;4.0;4.25;0.5;1.25;0.0;0.5;0.0;0.25;1.0;0.75;0.5;0.75;0.0;0.25;-0.251465;0.032227;0.970703;-0.77;-0.7;0.77;281.0;-0.24615;-0.087047
3.66;10.75;5.0;8.75;2.25;0.5;0.0;0.25;0.0;2.5;0.0;0.5;0.25;0.0;2.25;0.5;0.0;-0.228027;0.020996;0.983398;-0.77;0.63;0.42;387.0;-0.218571;0.054906;4.75;6.25;3.75;4.25;0.5;1.0;0.0;0.5;0.0;0.25;0.75;0.75;0.5;0.75;0.0;0.25;-0.251953;0.036133;0.973145;-0.77;-0.7;0.77;273.0;-0.25196;-0.083928
3.67;10.5;5.0;8.5;2.25;0.5;0.0;0.25;0.0;2.5;0.0;0.5;0.25;0.0;2.0;0.5;0.0;-0.235352;0.021973;0.986328;-0.84;0.56;0.42;379.0;-0.220682;0.053472;4.25;5.75;4.0;4.25;0.5;1.0;0.0;0.5;0.0;0.25;1.0;0.75;0.5;1.0;0.0;0.25;-0.251953;0.03125;0.973145;-0.77;-0.7;0.7;270.0;-0.235117;-0.082568
3.68;10.5;4.75;8.5;2.5;0.5;0.0;0.25;0.0;2.5;0.25;0.5;0.25;0.0;2.0;0.5;0.0;-0.234863;0.019043;0.983887;-0.77;0.7;0.42;382.0;-0.216483;0.052814;4.25;6.0;4.0;4.25;0.5;1.0;0.0;0.5;0.0;0.0;1.0;0.75;0.5;0.75;0.0;0.25;-0.255371;0.028809;0.96875;-0.91;-0.77;0.77;268.0;-0.247487;-0.087165
3.69;11.0;4.75;8.75;2.5;0.75;0.0;0.25;0.0;2.25;0.25;0.5;0.0;0.0;1.75;0.25;0.0;-0.23877;0.018066;0.983887;-0.7;0.63;0.49;382.0;-0.235067;0.054816;4.25;6.0;3.75;4.5;0.75;1.0;0.0;0.5;0.0;0.0;1.0;0.75;0.5;0.75;0.0;0.25;-0.254395;0.033691;0.971191;-0.91;-0.84;0.7;271.0;-0.246374;-0.089032
3.7;11.0;5.0;8.75;2.5;0.75;0.0;0.25;0.0;2.25;0.0;0.5;0.25;0.0;2.0;0.25;0.25;-0.235352;0.01709;0.990234;-0.91;0.49;0.49;388.0;-0.230288;0.05004;4.5;6.0;4.0;4.25;0.75;1.0;0.0;0.5;0.0;0.25;1.0;0.75;0.75;0.75;0.0;0.25;-0.250488;0.032227;0.967285;-0.91;-0.91;0.77;279.0;-0.23926;-0.085201
3.71;10.75;4.75;8.75;2.25;0.5;0.0;0.25;0.0;2.5;0.25;0.5;0.0;0.0;2.0;0.25;0.0;-0.236328;0.021484;0.981445;-0.77;0.7;0.42;379.0;-0.225663;0.059396;4.5;5.75;4.0;4.25;0.5;1.0;0.0;0.5;0.25;0.25;1.25;0.75;0.75;0.75;0.0;0.0;-0.258789;0.030762;0.972168;-0.91;-0.84;0.7;278.0;-0.230923;-0.080527
3.72;10.75;4.75;8.5;2.25;0.5;0.0;0.25;0.0;2.5;0.5;0.5;0.0;0.0;2.25;0.25;0.0;-0.240234;0.01709;0.988281;-0.7;0.56;0.49;381.0;-0.217982;0.059912;4.25;5.75;4.0;4.25;0.75;1.0;0.0;0.5;0.0;0.25;1.0;0.75;0.75;0.75;0.0;0.0;-0.251465;0.032715;0.975586;-0.98;-0.91;0.84;272.0;-0.239176;-0.085226
3.73;10.75;4.75;8.5;2.25;0.5;0.0;0.25;0.0;2.5;0.25;0.75;0.25;0.0;2.25;0.25;0.0;-0.233398;0.019531;0.98584;-0.56;0.63;0.63;384.0;-0.214865;0.055901;4.25;6.0;4.0;4.25;0.75;1.0;0.0;0.5;0.0;0.25;0.75;0.5;0.75;0.75;0.0;0.25;-0.248535;0.02832;0.974121;-0.98;-0.84;0.7;270.0;-0.247246;-0.084665
3.74;10.25;4.75;8.5;2.5;0.5;0.0;0.25;0.0;2.5;0.25;0.5;0.25;0.0;2.0;0.5;0.0;-0.232422;0.020996;0.979492;-0.56;0.7;0.56;379.0;-0.215088;0.052395;4.5;6.0;4.0;4.25;0.5;0.75;0.0;0.5;0.25;0.25;0.75;0.5;0.5;0.75;0.0;0.25;-0.255371;0.036133;0.970215;-0.84;-0.91;0.77;268.0;-0.248252;-0.074077
3.75;10.25;5.0;8.25;2.5;0.5;0.0;0.25;0.0;2.5;0.25;0.5;0.25;0.0;2.0;0.25;0.0;-0.236328;0.021973;0.989258;-0.63;0.63;0.63;376.0;-0.220782;0.051657;4.5;6.0;3.75;4.25;0.5;0.75;0.0;0.5;0.0;0.25;1.0;0.5;0.5;0.75;0.25;0.25;-0.251953;0.035156;0.964355;-0.91;-0.98;0.7;267.0;-0.242703;-0.081134
3.76;10.5;4.75;8.75;2.5;0.5;0.0;0.25;0.0;2.5;0.25;0.5;0.0;0.0;2.0;0.25;0.0;-0.235352;0.02002;0.983887;-0.7;0.63;0.56;379.0;-0.224827;0.056779;4.25;6.25;3.75;4.25;0.5;1.0;0.0;0.5;0.0;0.0;1.0;0.5;0.5;0.75;0.0;0.25;-0.244141;0.031738;0.971191;-0.77;-0.98;0.84;264.0;-0.25387;-0.087683
3.77;10.75;4.5;8.5;2.25;0.5;0.0;0.25;0.0;2.25;0.25;0.5;0.0;0.0;2.0;0.25;0.25;-0.233887;0.015625;0.983887;-0.63;0.7;0.56;371.0;-0.226344;0.057123;4.5;6.0;4.0;4.5;0.5;1.0;0.0;0.5;0.0;0.25;0.75;0.75;0.5;1.0;0.0;0.25;-0.25;0.033203;0.970215;-0.84;-0.98;0.7;276.0;-0.243849;-0.08257
3.78;10.75;4.75;8.5;2.25;0.5;0.0;0.25;0.0;2.25;0.25;0.5;0.25;0.0;1.75;0.5;0.0;-0.237793;0.024414;0.973145;-0.63;0.63;0.63;376.0;-0.225706;0.052572;4.25;5.75;3.75;4.5;0.75;1.0;0.0;0.5;0.0;0.25;1.0;0.75;0.5;0.75;0.0;0.25;-0.254883;0.033203;0.974609;-0.7;-0.98;0.77;271.0;-0.239687;-0.086712
3.79;10.75;5.0;8.5;2.25;0.5;0.0;0.25;0.0;2.25;0.5;0.5;0.25;0.0;1.75;0.25;0.0;-0.231934;0.020508;0.983398;-0.49;0.63;0.56;378.0;-0.228274;0.052221;4.5;5.5;3.75;4.25;0.75;1.0;0.0;0.5;0.0;0.0;0.75;0.75;0.5;0.75;0.25;0.25;-0.25293;0.036621;0.969238;-0.91;-0.91;0.84;266.0;-0.242377;-0.083563
3.8;10.75;4.75;8.5;2.5;0.5;0.0;0.25;0.0;2.25;0.25;0.5;0.0;0.0;1.75;0.25;0.0;-0.22998;0.019531;0.98291;-0.7;0.63;0.56;373.0;-0.234426;0.054071;4.5;5.75;4.0;4.25;0.5;1.0;0.0;0.5;0.0;0.25;0.5;0.75;0.5;0.75;0.0;0.25;-0.255859;0.030273;0.974609;-0.7;-0.91;0.77;265.0;-0.252523;-0.082085
3.81;10.75;5.0;8.5;2.25;0.5;0.0;0.25;0.0;2.0;0.25;0.25;0.0;0.0;1.75;0.25;0.0;-0.237305;0.017578;0.980469;-0.63;0.56;0.7;366.0;-0.243634;0.054016;4.5;6.0;4.0;4.25;0.75;0.75;0.0;0.5;0.0;0.25;0.75;0.75;0.5;0.75;0.0;0.25;-0.250977;0.033203;0.978516;-0.7;-0.77;0.77;271.0;-0.248688;-0.079538
3.82;10.5;5.0;8.75;2.25;0.5;0.0;0.25;0.0;2.0;0.25;0.5;0.0;0.0;1.5;0.0;0.25;-0.23291;0.020508;0.989258;-0.77;0.7;0.7;366.0;-0.245731;0.051346;4.5;6.0;4.0;4.25;0.5;1.0;0.0;0.5;0.0;0.0;0.75;0.75;0.75;0.75;0.0;0.0;-0.249512;0.029297;0.971191;-0.77;-0.91;0.7;269.0;-0.253868;-0.08683
3.83;10.25;5.0;8.5;2.25;0.5;0.0;0.25;0.0;2.0;0.5;0.5;0.0;0.0;1.75;0.25;0.0;-0.22998;0.015137;0.98584;-0.7;0.56;0.63;366.0;-0.233743;0.051917;4.25;6.0;4.0;4.25;0.5;1.0;0.0;0.5;0.0;0.0;0.75;0.75;0.25;1.0;0.0;0.0;-0.248535;0.035645;0.969238;-0.7;-0.98;0.84;263.0;-0.253956;-0.079899
3.84;10.5;4.5;8.5;2.25;0.5;0.0;0.25;0.0;2.0;0.25;0.5;0.0;0.0;1.75;0.25;0.0;-0.233887;0.016113;0.989746;-0.77;0.49;0.56;361.0;-0.23625;0.055312;4.25;6.0;4.0;4.25;0.75;1.0;0.0;0.5;0.25;0.0;0.75;0.75;0.25;1.0;0.0;0.25;-0.255371;0.030762;0.972168;-0.84;-0.98;0.77;271.0;-0.242458;-0.074946
3.85;10.75;4.5;8.5;2.25;0.5;0.0;0.25;0.0;2.25;0.25;0.25;0.0;0.0;1.5;0.25;0.0;-0.237793;0.019531;0.991699;-0.7;0.49;0.56;362.0;-0.240496;0.058458;4.5;5.75;4.0;4.25;0.5;1.0;0.0;0.5;0.25;0.0;0.75;0.75;0.5;1.0;0.0;0.0;-0.255859;0.037598;0.973633;-0.7;-0.91;0.7;270.0;-0.243537;-0.075748
3.86;10.75;4.75;8.5;2.25;0.5;0.0;0.25;0.0;2.25;0.25;0.25;0.25;0.0;2.0;0.25;0.25;-0.233887;0.015625;0.98584;-0.77;0.42;0.63;374.0;-0.22773;0.054219;4.5;6.0;4.0;4.5;0.5;1.0;0.0;0.5;0.25;0.25;1.0;0.5;0.5;1.0;0.0;0.25;-0.254883;0.03418;0.969727;-0.77;-0.98;0.7;279.0;-0.23731;-0.076148
3.87;10.5;4.75;8.75;2.25;0.5;0.0;0.25;0.0;2.25;0.25;0.5;0.25;0.0;2.0;0.25;0.0;-0.239746;0.017578;0.984375;-0.84;0.42;0.56;376.0;-0.22558;0.054247;4.25;6.25;4.0;4.25;0.5;0.75;0.0;0.5;0.25;0.0;1.0;0.75;0.5;0.75;0.0;0.0;-0.253906;0.032715;0.970215;-0.84;-0.98;0.77;269.0;-0.246776;-0.079811
3.88;10.75;4.75;8.75;2.25;0.5;0.0;0.25;0.0;2.0;0.25;0.5;0.25;0.0;1.75;0.25;0.0;-0.236816;0.019531;0.987793;-0.91;0.63;0.56;372.0;-0.235534;0.05178;4.25;6.0;4.0;4.25;0.5;1.0;0.0;0.5;0.0;0.25;1.0;0.75;0.5;0.75;0.0;0.0;-0.249512;0.033691;0.973145;-0.7;-1.05;0.7;269.0;-0.245681;-0.084325
3.89;11.0;5.0;8.75;2.25;0.5;0.0;0.25;0.0;2.25;0.25;0.5;0.25;0.0;2.0;0.25;0.0;-0.233398;0.016602;0.980469;-0.77;0.56;0.56;384.0;-0.229455;0.053607;4.5;6.25;4.0;4.5;0.5;1.0;0.0;0.5;0.25;0.25;0.75;0.75;0.25;0.75;0.0;0.0;-0.255371;0.032715;0.966797;-0.7;-0.98;0.77;276.0;-0.251238;-0.076421
3.9;10.5;4.75;8.75;2.25;0.5;0.0;0.25;0.0;2.5;0.25;0.25;0.25;0.0;1.75;0.25;0.0;-0.22998;0.01416;0.985352;-0.7;0.56;0.56;374.0;-0.228385;0.056886;4.5;6.25;4.0;4.25;0.5;1.0;0.0;0.5;0.0;0.25;0.75;0.75;0.25;0.75;0.0;0.0;-0.251953;0.032227;0.970703;-0.7;-0.91;0.77;269.0;-0.257576;-0.079426
3.91;10.5;4.75;8.5;2.25;0.5;0.0;0.25;0.0;2.5;0.25;0.25;0.0;0.0;1.5;0.5;0.25;-0.229492;0.013672;0.986328;-0.84;0.42;0.49;370.0;-0.228222;0.05605;4.25;6.25;4.0;4.25;0.25;1.0;0.0;0.5;0.0;0.0;0.75;0.5;0.5;0.75;0.0;0.0;-0.256348;0.030762;0.967773;-0.63;-0.91;0.77;260.0;-0.264264;-0.08573
3.92;10.75;4.75;8.25;2.5;0.5;0.0;0.25;0.0;2.25;0.25;0.5;0.0;0.0;1.75;0.25;0.25;-0.235352;0.019043;0.984863;-0.77;0.35;0.49;372.0;-0.231799;0.052316;4.5;6.25;4.0;4.5;0.5;0.75;0.0;0.5;0.0;0.0;1.0;0.5;0.5;0.25;0.0;0.0;-0.249512;0.029297;0.972656;-0.63;-0.91;0.84;264.0;-0.27229;-0.086404
3.93;10.75;4.75;8.5;2.5;0.5;0.0;0.25;0.0;2.25;0.25;0.5;0.0;0.0;1.75;0.25;0.0;-0.237305;0.019043;0.982422;-0.63;0.35;0.63;373.0;-0.234426;0.054071;4.75;6.0;4.0;4.25;0.5;1.0;0.0;0.5;0.0;0.25;1.0;0.75;0.5;0.25;0.0;0.0;-0.249023;0.034668;0.972168;-0.7;-0.91;0.77;270.0;-0.260295;-0.084781
3.94;10.5;4.75;8.75;2.5;0.5;0.0;0.25;0.0;2.5;0.25;0.5;0.0;0.0;2.0;0.25;0.0;-0.23291;0.019531;0.979492;-0.77;0.56;0.49;379.0;-0.224827;0.056779;4.5;6.25;4.0;4.25;0.5;1.0;0.0;0.5;0.25;0.25;1.0;0.5;0.75;0.5;0.0;0.25;-0.250488;0.031738;0.96582;-0.7;-0.84;0.77;277.0;-0.245842;-0.082895
3.95;10.5;4.75;8.5;2.5;0.5;0.0;0.25;0.0;2.5;0.25;0.5;0.0;0.0;2.0;0.25;0.25;-0.233398;0.01709;0.984375;-0.77;0.49;0.49;378.0;-0.222203;0.055063;4.5;6.25;4.0;4.5;0.5;1.0;0.0;0.5;0.25;0.25;0.75;0.5;0.75;0.25;0.0;0.25;-0.260254;0.033691;0.969727;-0.77;-0.91;0.7;275.0;-0.25678;-0.086305
3.96;10.75;4.75;8.5;2.5;0.5;0.0;0.25;0.0;2.25;0.25;0.5;0.25;0.0;2.0;0.25;0.25;-0.236328;0.011719;0.98291;-0.7;0.49;0.63;380.0;-0.224787;0.050735;4.5;6.5;4.0;4.25;0.5;1.0;0.0;0.5;0.0;0.25;1.0;0.75;0.5;0.25;0.25;0.25;-0.25;0.028809;0.970703;-0.7;-0.84;0.84;277.0;-0.251439;-0.08944
3.97;10.75;4.75;8.75;2.5;0.5;0.0;0.25;0.0;2.0;0.25;0.75;0.0;0.0;1.75;0.5;0.0;-0.23584;0.018555;0.984375;-0.7;0.35;0.49;378.0;-0.230971;0.049956;4.5;6.5;4.0;4.75;0.5;1.0;0.0;0.5;0.0;0.0;1.0;0.75;0.5;0.25;0.0;0.0;-0.250488;0.030273;0.971191;-0.63;-0.98;0.84;276.0;-0.267445;-0.09284
3.98;10.5;4.75;8.75;2.5;0.5;0.0;0.25;0.0;2.5;0.25;0.5;0.0;0.0;2.0;0.5;0.0;-0.229492;0.015625;0.98291;-0.84;0.28;0.56;382.0;-0.220082;0.055737;4.5;6.25;4.0;4.75;0.5;1.0;0.0;0.5;0.0;0.0;1.0;0.75;0.5;0.25;0.0;0.25;-0.253906;0.035156;0.973633;-0.7;-0.91;0.84;274.0;-0.262686;-0.093358
3.99;10.5;5.0;8.5;2.25;0.5;0.0;0.25;0.0;2.5;0.25;0.5;0.0;0.0;1.75;0.5;0.25;-0.233887;0.016113;0.97998;-0.77;0.42;0.49;378.0;-0.222103;0.054014;4.5;6.25;4.0;4.75;0.5;0.75;0.0;0.5;0.0;0.25;0.75;0.75;0.5;0.25;0.0;0.5;-0.251953;0.035156;0.967285;-0.56;-0.91;0.84;273.0;-0.260389;-0.090722
4.0;10.75;5.0;8.75;2.5;0.75;0.0;0.25;0.0;2.25;0.25;0.5;0.0;0.0;1.5;0.25;0.0;-0.231445;0.018555;0.989746;-0.84;0.42;0.49;379.0;-0.238982;0.052192;4.75;6.25;4.0;4.5;0.5;0.75;0.0;0.5;0.0;0.25;0.75;0.75;0.5;0.5;0.0;0.25;-0.255371;0.032715;0.973633;-0.63;-0.91;0.77;274.0;-0.259221;-0.083707
4.01;11.0;4.5;8.75;2.75;0.75;0.0;0.25;0.0;2.5;0.25;0.25;0.0;0.0;1.75;0.25;0.0;-0.233887;0.012207;0.980957;-0.77;0.35;0.49;383.0;-0.233138;0.057403;4.75;6.0;4.0;4.25;0.5;0.75;0.0;0.5;0.0;0.25;0.75;0.75;0.5;0.25;0.0;0.0;-0.254395;0.030273;0.973145;-0.63;-0.91;0.77;264.0;-0.266771;-0.082328
4.02;11.0;5.0;8.75;2.5;0.75;0.0;0.25;0.0;2.25;0.25;0.25;0.0;0.0;1.75;0.25;0.0;-0.232422;0.015137;0.98584;-0.63;0.28;0.56;382.0;-0.239721;0.054636;4.75;6.25;4.0;4.5;0.5;0.75;0.0;0.5;0.0;0.0;0.75;0.5;0.5;0.25;0.0;0.0;-0.254395;0.032227;0.973145;-0.7;-0.98;0.77;264.0;-0.279089;-0.083993
4.03;10.75;5.0;8.5;2.25;0.5;0.0;0.25;0.0;2.25;0.25;0.25;0.0;0.0;1.75;0.25;0.0;-0.232422;0.021484;0.983887;-0.7;0.56;0.56;370.0;-0.238797;0.056146;4.5;6.5;4.0;4.5;0.5;1.0;0.0;0.5;0.0;0.0;0.75;0.5;0.5;0.75;0.0;0.25;-0.260742;0.035156;0.969238;-0.63;-0.91;0.7;273.0;-0.26245;-0.085604
4.04;10.75;5.0;8.5;2.25;0.75;0.0;0.25;0.0;2.5;0.5;0.5;0.0;0.0;1.75;0.5;0.0;-0.23584;0.018066;0.984863;-0.7;0.49;0.56;385.0;-0.221507;0.055964;4.5;6.5;4.0;4.5;0.5;1.25;0.0;0.5;0.0;0.0;0.75;0.5;0.75;0.75;0.0;0.25;-0.258301;0.03418;0.967285;-0.7;-0.98;0.77;278.0;-0.257617;-0.090789
4.05;11.0;4.75;8.75;2.25;0.5;0.25;0.25;0.0;2.0;0.25;0.5;0.0;0.0;1.5;0.25;0.0;-0.23291;0.01709;0.980957;-0.77;0.42;0.49;373.0;-0.243609;0.051528;4.5;6.25;4.0;4.5;0.5;1.0;0.0;0.5;0.0;0.25;1.0;0.5;0.5;0.75;0.0;0.25;-0.251953;0.035645;0.974121;-0.7;-1.12;0.77;276.0;-0.250807;-0.083644
4.06;10.75;4.75;8.75;2.5;0.5;0.0;0.25;0.0;2.5;0.0;0.5;0.0;0.0;2.0;0.25;0.0;-0.23291;0.016602;0.984863;-0.7;0.35;0.56;379.0;-0.229645;0.057114;4.75;6.0;4.0;4.75;0.5;1.0;0.0;0.25;0.0;0.25;0.75;0.5;0.5;0.5;0.0;0.25;-0.258301;0.033691;0.97168;-0.7;-1.12;0.84;270.0;-0.265692;-0.079579
4.07;11.0;4.75;8.75;2.5;0.75;0.0;0.25;0.0;2.5;0.25;0.25;0.0;0.0;2.0;0.5;0.0;-0.233398;0.020996;0.981934;-0.7;0.42;0.56;388.0;-0.22531;0.057822;4.5;6.25;3.75;5.0;0.5;1.0;0.0;0.5;0.25;0.25;1.0;0.75;0.25;0.5;0.0;0.25;-0.253418;0.036621;0.96582;-0.63;-0.98;0.77;281.0;-0.24926;-0.085143
4.08;11.0;5.0;8.5;2.5;0.75;0.0;0.25;0.0;2.25;0.25;0.25;0.25;0.0;2.0;0.25;0.0;-0.231445;0.018066;0.987305;-0.77;0.42;0.56;384.0;-0.232202;0.052472;4.5;6.25;4.0;4.5;0.5;1.0;0.0;0.5;0.0;0.25;0.75;0.75;0.25;0.75;0.0;0.25;-0.249023;0.032715;0.966309;-0.77;-0.98;0.7;274.0;-0.25456;-0.082286
4.09;11.25;5.25;8.75;2.5;0.5;0.0;0.25;0.0;2.25;0.25;0.5;0.25;0.0;1.75;0.0;0.0;-0.239258;0.018066;0.986816;-0.77;0.49;0.56;387.0;-0.240968;0.050682;4.5;6.25;4.0;4.25;0.5;1.0;0.0;0.5;0.0;0.25;1.0;0.5;0.25;0.75;0.0;0.25;-0.256348;0.03418;0.967285;-0.77;-0.98;0.84;271.0;-0.254054;-0.078792
4.1;11.25;5.25;8.75;2.5;0.75;0.0;0.25;0.0;2.25;0.25;0.5;0.0;0.0;2.0;0.25;0.0;-0.230469;0.018555;0.981934;-0.7;0.63;0.56;392.0;-0.234782;0.053094;4.5;6.5;4.0;4.5;0.5;1.0;0.0;0.5;0.0;0.25;1.0;0.75;0.5;0.25;0.0;0.25;-0.252441;0.033203;0.966309;-0.77;-0.91;0.77;277.0;-0.258653;-0.090982
4.11;10.75;4.75;8.75;2.5;0.75;0.0;0.25;0.0;2.25;0.25;0.5;0.25;0.0;1.75;0.5;0.0;-0.229492;0.01709;0.984375;-0.63;0.56;0.63;385.0;-0.22572;0.050771;4.5;6.5;4.0;4.5;0.5;1.0;0.0;0.5;0.0;0.25;1.0;0.75;0.5;0.25;0.0;0.25;-0.253418;0.033691;0.973633;-0.7;-1.05;0.77;277.0;-0.258653;-0.090982
4.12;11.0;4.75;8.75;2.5;0.75;0.0;0.25;0.0;2.5;0.25;0.5;0.25;0.0;1.75;0.25;0.25;-0.226562;0.019531;0.98291;-0.56;0.49;0.56;390.0;-0.225016;0.052835;4.5;6.5;4.0;4.75;0.75;1.0;0.0;0.5;0.0;0.0;1.0;0.75;0.5;0.5;0.0;0.0;-0.257812;0.032715;0.970703;-0.77;-0.98;0.91;281.0;-0.260306;-0.088958
4.13;11.0;5.25;8.75;2.5;0.75;0.0;0.25;0.0;2.5;0.25;0.5;0.0;0.0;2.0;0.25;0.0;-0.237305;0.014648;0.985352;-0.63;0.63;0.63;393.0;-0.229097;0.054706;4.5;6.0;4.0;4.75;0.75;1.0;0.0;0.5;0.0;0.0;0.75;0.5;0.5;0.75;0.0;0.0;-0.257812;0.02832;0.974609;-0.56;-0.91;0.77;272.0;-0.26175;-0.082789
4.14;11.0;5.25;8.75;2.5;0.75;0.0;0.25;0.0;2.25;0.25;0.5;0.0;0.0;1.75;0.25;0.0;-0.234863;0.01709;0.982422;-0.63;0.63;0.63;387.0;-0.237432;0.051938;4.5;6.5;4.0;4.75;0.5;1.0;0.0;0.5;0.0;0.0;0.75;0.5;0.5;0.75;0.0;0.0;-0.256348;0.033691;0.974609;-0.7;-0.91;0.77;274.0;-0.266088;-0.085896
4.15;10.75;5.25;8.75;2.25;0.75;0.0;0.25;0.0;2.25;0.25;0.5;0.0;0.0;2.0;0.25;0.0;-0.231934;0.01416;0.98291;-0.49;0.49;0.63;384.0;-0.231882;0.054443;4.25;6.5;4.0;4.5;0.5;1.0;0.0;0.25;0.0;0.0;1.0;0.5;0.5;0.5;0.0;0.25;-0.245605;0.033203;0.973633;-0.7;-0.91;0.77;266.0;-0.265501;-0.085503
