Time;left pressure 1[N/cm²];left pressure 2[N/cm²];left pressure 3[N/cm²];left pressure 4[N/cm²];left pressure 5[N/cm²];left pressure 6[N/cm²];left pressure 7[N/cm²];left pressure 8[N/cm²];left pressure 9[N/cm²];left pressure 10[N/cm²];left pressure 11[N/cm²];left pressure 12[N/cm²];left pressure 13[N/cm²];left pressure 14[N/cm²];left pressure 15[N/cm²];left pressure 16[N/cm²];left acceleration X[g];left acceleration Y[g];left acceleration Z[g];left angular X[dps];left angular Y[dps];left angular Z[dps];left total force[N];left center of pressure X[-0.5...+0.5];left center of pressure Y[-0.5...+0.5];right pressure 1[N/cm²];right pressure 2[N/cm²];right pressure 3[N/cm²];right pressure 4[N/cm²];right pressure 5[N/cm²];right pressure 6[N/cm²];right pressure 7[N/cm²];right pressure 8[N/cm²];right pressure 9[N/cm²];right pressure 10[N/cm²];right pressure 11[N/cm²];right pressure 12[N/cm²];right pressure 13[N/cm²];right pressure 14[N/cm²];right pressure 15[N/cm²];right pressure 16[N/cm²];right acceleration X[g];right acceleration Y[g];right acceleration Z[g];right angular X[dps];right angular Y[dps];right angular Z[dps];right total force[N];right center of pressure X[-0.5...+0.5];right center of pressure Y[-0.5...+0.5]
0.0;9.0;8.0;8.25;9.25;2.5;3.75;0.25;1.5;1.5;2.5;3.25;3.75;2.75;3.5;1.0;2.0;-0.23291;0.046387;0.969727;-1.47;0.77;-0.35;544.0;-0.122332;-0.08128;0.0;0.0;0.0;0.0;0.0;0.0;0.0;0.0;0.0;0.0;0.0;0.0;0.0;0.0;0.0;0.0;-0.167969;0.031738;0.920898;4.83;35.77;20.719999;0.0;0.0;0.0
0.01;9.0;8.0;8.25;9.75;2.5;3.5;0.25;1.5;1.5;2.5;2.5;3.5;2.75;3.75;0.75;1.75;-0.230957;0.048828;0.966309;-1.68;0.84;-0.42;536.0;-0.130688;-0.079023;0.0;0.0;0.0;0.0;0.0;0.0;0.0;0.0;0.0;0.0;0.0;0.0;0.0;0.0;0.0;0.0;-0.167969;0.031738;0.920898;4.83;35.77;20.719999;0.0;0.0;0.0
0.02;9.0;7.75;8.25;9.75;2.25;3.5;0.25;1.5;1.25;2.5;2.75;3.5;2.75;3.75;0.25;1.75;-0.23291;0.052734;0.96582;-1.61;0.63;-0.49;527.0;-0.134722;-0.08128;0.0;0.0;0.0;0.0;0.0;0.0;0.0;0.0;0.0;0.0;0.0;0.0;0.0;0.0;0.0;0.0;-0.167969;0.031738;0.920898;4.83;35.77;20.719999;0.0;0.0;0.0
0.03;9.0;7.75;8.25;9.5;2.5;3.5;0.25;1.5;1.25;2.25;3.0;3.75;2.75;3.75;0.0;1.0;-0.239258;0.04834;0.968262;-1.68;0.7;-0.42;523.0;-0.138161;-0.080147;0.0;0.0;0.0;0.0;0.0;0.0;0.0;0.0;0.0;0.0;0.0;0.0;0.0;0.0;0.0;0.0;-0.159668;0.03418;0.915039;5.46;36.610001;20.65;0.0;0.0;0.0
0.04;8.75;7.75;8.0;9.75;2.5;3.75;0.25;1.5;1.25;2.0;2.75;4.0;2.75;3.75;0.25;1.25;-0.232422;0.053223;0.972168;-1.75;0.7;-0.42;525.0;-0.135451;-0.085024;0.0;0.25;0.0;0.0;0.0;0.0;0.0;0.0;0.0;0.0;0.0;0.0;0.0;0.0;0.0;0.0;-0.149902;0.030762;0.910156;7.63;38.290001;19.809999;2.0;0.0;0.0
0.05;9.0;7.75;8.25;9.75;2.5;3.75;0.25;1.5;1.0;2.25;3.0;4.0;3.0;3.75;0.0;1.5;-0.233887;0.055176;0.96582;-1.89;0.77;-0.49;532.0;-0.136244;-0.086642;0.0;0.25;0.0;0.0;0.0;0.0;0.0;0.0;0.0;0.0;0.0;0.0;0.0;0.0;0.0;0.0;-0.126953;0.039062;0.88916;10.85;39.759998;17.639999;2.0;0.0;0.0
0.06;8.75;7.75;8.25;9.25;2.5;3.5;0.25;1.25;1.25;2.25;2.75;4.0;2.75;4.25;0.0;1.5;-0.230957;0.04834;0.967773;-1.75;0.63;-0.49;522.0;-0.131257;-0.078414;0.0;0.25;0.0;0.0;0.0;0.0;0.0;0.0;0.0;0.0;0.0;0.0;0.0;0.0;0.0;0.0;-0.132324;0.041016;0.848633;14.63;42.209999;13.58;2.0;0.0;0.0
0.07;8.75;7.75;8.25;9.75;2.5;3.75;0.25;1.25;1.0;2.0;3.0;4.25;3.0;4.25;0.0;1.5;-0.238281;0.05127;0.972168;-1.82;0.63;-0.49;530.0;-0.132295;-0.085313;0.0;0.0;0.0;0.0;0.0;0.0;0.0;0.0;0.0;0.0;0.0;0.0;0.0;0.0;0.0;0.0;0.024902;-0.362305;0.371582;22.190001;52.57;6.23;0.0;0.0;0.0
0.08;8.75;7.75;8.0;9.75;2.25;3.75;0.25;1.5;1.25;2.0;2.75;3.5;3.25;3.75;0.25;1.75;-0.231934;0.049805;0.963867;-1.89;0.77;-0.49;524.0;-0.134091;-0.087529;0.0;0.0;0.0;0.0;0.0;0.0;0.0;0.0;0.0;0.0;0.0;0.0;0.0;0.0;0.0;0.0;0.45166;-0.38916;1.126465;-105.769997;26.67;-4.62;0.0;0.0;0.0
0.09;9.0;7.75;8.25;9.75;2.25;3.5;0.0;1.25;1.0;2.5;2.75;3.0;2.75;3.75;0.25;1.5;-0.237305;0.04834;0.960449;-1.61;0.84;-0.42;512.0;-0.142991;-0.080915;0.0;0.0;0.0;0.0;0.0;0.0;0.0;0.0;0.0;0.0;0.0;0.0;0.0;0.0;0.0;0.0;0.587402;0.002441;1.192871;-62.299999;1.05;11.2;0.0;0.0;0.0
0.1;8.75;7.75;8.75;9.75;2.5;3.5;0.0;1.25;1.0;2.5;2.75;3.25;2.75;3.25;0.5;1.5;-0.232422;0.053223;0.967285;-1.61;0.84;-0.42;518.0;-0.142918;-0.082252;0.0;0.0;0.0;0.0;0.0;0.0;0.0;0.0;0.0;0.0;0.0;0.0;0.0;0.0;0.0;0.0;0.704102;-0.163574;1.285156;-16.66;-10.15;-10.29;0.0;0.0;0.0
0.11;8.75;8.0;8.25;9.75;2.25;3.5;0.25;1.25;1.5;2.25;3.0;3.5;3.0;3.75;0.25;1.25;-0.231445;0.047852;0.967285;-1.54;0.91;-0.42;526.0;-0.134498;-0.079704;0.0;0.0;0.0;0.0;0.0;0.0;0.0;0.0;0.0;0.0;0.0;0.0;0.0;0.25;0.0;0.0;0.79541;-0.263184;1.261719;-1.26;-24.08;-33.25;2.0;0.0;0.0
0.12;8.75;7.75;8.25;9.75;2.25;3.5;0.0;1.25;0.75;2.0;3.25;3.75;3.0;4.25;0.25;1.25;-0.229492;0.048828;0.970215;-1.4;0.91;-0.42;518.0;-0.135784;-0.086889;0.0;0.0;0.0;0.0;0.0;0.0;0.0;0.0;0.0;0.0;0.0;0.0;0.0;0.25;0.0;0.0;1.032715;0.061523;1.561035;-0.07;-32.34;-34.650002;2.0;0.0;0.0
0.13;9.0;7.75;8.25;9.25;2.25;3.5;0.0;1.0;0.5;1.25;3.25;3.25;2.75;4.25;0.5;1.5;-0.234863;0.052246;0.971191;-1.47;0.91;-0.42;500.0;-0.144008;-0.084066;0.0;0.0;0.0;0.0;0.0;0.0;0.0;0.0;0.0;0.0;0.0;0.25;0.25;0.5;0.0;0.0;-0.287598;0.004883;1.006348;5.18;-22.049999;-1.68;8.0;0.0;0.0
0.14;8.5;7.75;8.25;9.25;2.25;3.5;0.0;1.0;0.5;1.25;3.0;3.25;2.75;3.5;0.25;1.5;-0.23584;0.047363;0.96582;-1.47;0.98;-0.42;486.0;-0.152028;-0.088541;0.0;0.0;0.0;0.0;0.0;0.0;0.0;0.0;0.0;0.0;0.25;0.25;0.5;0.75;0.0;0.0;-0.227539;-0.052246;0.955566;8.4;-4.13;-0.91;13.0;0.0;0.0
0.15;8.5;7.5;7.75;8.75;2.25;3.25;0.0;1.25;0.75;2.0;3.0;3.25;3.0;4.25;0.0;1.75;-0.229492;0.049316;0.970215;-1.54;1.4;-0.42;491.0;-0.134204;-0.084751;0.0;0.25;0.25;0.0;0.0;0.0;0.0;0.25;0.0;0.25;0.5;0.25;0.25;1.25;0.0;0.25;-0.280762;0.040039;0.977051;5.04;-5.18;-0.0;28.0;0.0;0.0
0.16;8.0;7.25;7.75;8.75;2.25;3.25;0.0;1.25;1.0;1.75;3.0;3.75;2.75;4.25;0.25;1.25;-0.234375;0.050781;0.965332;-1.61;1.68;-0.49;488.0;-0.128088;-0.084201;0.25;0.5;0.5;0.25;0.0;0.0;0.0;0.25;0.0;0.25;0.5;0.25;0.25;1.75;0.0;0.0;-0.262207;0.010742;0.959961;0.49;-3.15;0.28;39.0;0.0;0.0
0.17;8.0;7.0;7.5;8.25;2.25;2.75;0.0;1.0;1.0;1.75;3.0;3.5;2.75;3.75;0.5;1.25;-0.234375;0.049316;0.962402;-1.61;2.03;-0.42;468.0;-0.128396;-0.080424;0.5;0.75;0.5;0.5;0.0;0.25;0.0;0.25;0.0;0.25;0.25;0.5;0.25;1.75;0.0;0.25;-0.233398;-0.001953;0.983398;-1.68;-3.01;0.77;49.0;0.0;0.0
0.18;7.75;7.0;7.5;8.0;2.0;2.5;0.0;0.75;1.0;1.5;2.75;3.25;2.75;4.25;0.25;1.5;-0.236816;0.05127;0.966797;-1.68;2.38;-0.63;452.0;-0.129223;-0.076166;0.5;1.0;0.75;0.75;0.0;0.25;0.0;0.25;0.25;0.5;0.25;0.75;0.25;2.0;0.0;0.25;-0.244141;0.0;0.98877;-1.26;-2.73;1.12;65.0;0.016745;-0.053272
0.19;7.5;6.5;7.25;8.0;2.0;2.5;0.0;1.0;1.0;1.5;2.75;3.25;2.5;3.0;0.0;1.25;-0.231445;0.050781;0.96875;-1.89;2.59;-0.77;433.0;-0.140232;-0.082465;0.75;1.0;1.0;1.0;0.0;0.25;0.0;0.25;0.25;0.25;0.75;1.0;0.75;2.75;0.0;0.25;-0.241699;-0.001953;0.977539;-0.14;-2.03;1.82;85.0;0.031757;-0.065437
0.2;7.0;6.25;6.75;7.25;2.0;2.5;0.0;0.75;1.25;1.75;2.75;3.25;2.25;3.5;0.0;1.25;-0.238281;0.052734;0.968262;-1.89;2.59;-0.7;418.0;-0.125428;-0.074295;1.0;0.75;1.0;0.75;0.25;0.25;0.0;0.5;0.25;0.5;1.0;1.0;1.0;3.0;0.0;0.5;-0.231934;0.009766;0.978027;0.49;-1.68;1.82;97.0;0.055823;-0.067634
0.21;7.0;6.25;6.75;7.0;1.75;2.0;0.0;0.75;1.0;1.75;2.75;3.0;2.25;3.5;0.0;1.25;-0.235352;0.054688;0.963867;-2.45;2.8;-0.91;404.0;-0.12862;-0.073127;0.75;1.0;1.0;0.75;0.0;0.5;0.0;0.5;0.25;0.5;0.75;1.0;1.0;3.0;0.0;0.5;-0.237793;-0.003906;0.96875;0.91;-1.4;1.96;95.0;0.052187;-0.080581
0.22;6.5;5.75;6.75;6.75;1.5;1.5;0.0;0.5;0.25;1.0;2.0;2.5;1.75;3.75;0.25;1.25;-0.234375;0.053223;0.961426;-2.66;2.73;-1.12;358.0;-0.145197;-0.070611;0.75;1.0;1.0;1.0;0.0;0.5;0.0;0.5;0.25;0.25;1.0;1.25;1.25;3.0;0.0;0.5;-0.238281;0.016602;0.980957;1.19;-1.4;1.96;101.0;0.049725;-0.099304
0.23;6.5;5.75;6.5;6.5;1.5;1.5;0.0;0.5;0.5;1.25;2.0;2.75;1.5;4.25;0.5;0.75;-0.236816;0.052734;0.96582;-2.8;2.73;-1.05;362.0;-0.13191;-0.06272;1.0;1.0;1.0;1.0;0.0;0.5;0.0;0.25;0.25;0.25;1.25;1.75;1.25;3.0;0.0;0.75;-0.237793;0.023438;0.980469;1.33;-1.12;1.89;108.0;0.055794;-0.097159
0.24;6.25;5.75;6.0;5.75;1.5;1.25;0.0;0.5;0.75;1.0;3.0;3.0;2.25;3.75;0.25;0.75;-0.234863;0.053223;0.966309;-2.94;2.73;-1.19;358.0;-0.11797;-0.070646;1.0;1.0;1.5;1.25;0.0;0.75;0.0;0.5;0.5;0.5;1.5;1.75;1.75;2.5;0.0;0.75;-0.24707;0.009277;0.978027;1.26;-1.33;1.82;128.0;0.036093;-0.11089
0.25;6.25;5.0;5.5;5.5;1.25;0.75;0.0;0.75;0.25;1.0;2.75;2.5;1.75;3.75;0.25;1.0;-0.23291;0.050293;0.961426;-2.66;2.8;-1.05;327.0;-0.122386;-0.070295;0.75;1.25;1.5;1.25;0.25;1.0;0.0;0.75;0.5;0.25;1.75;1.75;2.0;3.5;0.25;0.5;-0.243164;0.019531;0.972168;0.98;-1.47;1.82;145.0;0.053262;-0.11172
0.26;6.0;4.25;5.5;5.0;1.25;1.0;0.0;0.5;0.25;1.5;2.0;2.5;1.5;4.75;0.25;0.75;-0.236328;0.051758;0.959961;-2.73;2.87;-0.98;315.0;-0.107529;-0.054131;0.75;1.5;1.5;1.25;0.25;1.0;0.0;1.0;0.5;0.25;1.75;1.75;2.25;3.5;0.0;0.5;-0.239258;0.014648;0.972168;0.77;-1.54;1.68;150.0;0.042038;-0.12307
0.27;5.75;4.0;5.25;4.25;1.25;0.5;0.0;0.0;0.75;1.0;1.75;2.25;1.25;4.75;0.0;1.0;-0.242676;0.053711;0.970215;-2.45;2.73;-0.84;285.0;-0.1062;-0.031958;1.0;1.5;1.5;1.25;0.5;1.0;0.0;2.0;0.5;0.5;1.75;1.75;2.5;2.75;0.0;0.75;-0.233398;0.018555;0.97168;0.7;-1.82;1.68;167.0;0.024069;-0.150254
0.28;5.5;3.75;4.75;3.75;1.25;0.25;0.0;0.0;1.25;1.0;2.0;2.0;1.0;4.5;0.25;0.75;-0.237305;0.054688;0.964844;-2.24;2.59;-0.77;272.0;-0.091092;-0.019007;1.25;1.75;1.5;1.5;0.25;0.75;0.0;1.25;0.25;0.75;1.75;2.5;2.5;3.25;0.0;1.0;-0.236328;0.016113;0.966797;0.21;-1.96;1.47;170.0;0.032495;-0.139757
0.29;5.25;3.75;4.75;3.75;1.25;0.5;0.0;0.0;1.25;1.0;2.0;2.0;1.0;4.5;0.25;0.75;-0.238281;0.056641;0.964844;-2.38;2.59;-0.7;272.0;-0.089118;-0.022149;1.25;1.75;2.25;2.0;0.25;1.0;0.0;1.75;0.25;0.75;1.75;3.0;2.75;3.75;0.0;1.0;-0.228027;0.033203;0.987305;-0.07;-2.1;1.4;200.0;0.023132;-0.143914
0.3;5.0;3.25;4.25;3.0;0.75;0.25;0.0;0.0;0.25;1.25;2.0;1.75;1.0;4.75;0.0;1.0;-0.23877;0.049316;0.966309;-2.38;2.52;-0.7;237.0;-0.084778;-0.026223;1.5;1.75;2.5;2.0;0.25;1.0;0.0;2.0;0.25;0.5;2.0;2.5;3.5;4.0;0.0;1.0;-0.237305;0.015137;0.987305;-0.7;-2.38;1.4;211.0;0.018145;-0.146722
0.31;4.0;3.0;3.5;2.75;0.75;0.25;0.0;0.0;0.25;1.5;2.25;1.75;0.75;4.5;0.0;1.0;-0.233398;0.049316;0.964355;-2.38;2.66;-0.63;218.0;-0.061126;-0.029988;2.25;1.75;2.25;2.75;0.25;1.25;0.0;2.0;0.25;0.5;2.0;3.0;3.5;3.5;0.0;1.25;-0.235352;0.015625;0.991211;-1.05;-2.45;1.19;226.0;-0.002871;-0.154355
0.32;3.5;2.75;3.5;2.75;0.5;0.0;0.0;0.0;0.75;1.25;2.25;2.0;0.75;3.5;0.25;0.75;-0.243652;0.051758;0.96582;-2.52;2.87;-0.63;207.0;-0.054557;-0.031921;1.75;2.5;2.5;2.75;0.5;1.75;0.0;2.25;0.25;0.75;2.0;2.75;3.5;3.75;0.25;1.25;-0.230469;0.01123;0.977051;-0.84;-2.17;1.26;244.0;-0.00509;-0.153934
0.33;3.25;2.0;3.0;2.5;0.5;0.0;0.0;0.0;0.75;1.5;2.25;2.25;0.75;3.5;0.25;0.5;-0.23584;0.04834;0.960938;-2.66;2.8;-0.7;195.0;-0.028356;-0.030409;1.75;2.75;2.75;2.75;0.75;2.0;0.0;2.5;0.5;0.75;2.25;3.25;3.5;4.25;0.25;1.25;-0.229492;0.00293;0.971191;-1.26;-2.17;1.4;269.0;0.000962;-0.147118
0.34;3.0;2.0;2.75;1.75;0.5;0.25;0.0;0.0;1.0;0.5;2.0;1.25;0.75;3.25;0.25;0.5;-0.241211;0.046875;0.972656;-2.66;2.8;-0.63;167.0;-0.041091;-0.016181;2.25;2.75;3.0;3.0;0.75;2.25;0.0;2.25;0.5;0.75;2.75;3.25;3.75;4.25;0.25;0.75;-0.249023;0.006836;0.980469;-1.12;-1.96;1.26;281.0;-0.00926;-0.140298
0.35;3.25;1.5;2.0;2.25;0.5;0.25;0.0;0.0;0.75;0.25;2.0;1.25;0.75;3.5;0.25;0.75;-0.243652;0.047852;0.959473;-2.66;3.08;-0.63;161.0;-0.035205;-0.027432;2.75;3.5;3.0;3.75;0.75;2.25;0.0;2.5;0.75;0.75;3.0;3.25;4.0;3.75;0.0;0.75;-0.233398;0.010742;0.973633;-0.91;-1.68;1.47;302.0;-0.031944;-0.144009
0.36;2.75;1.75;2.5;1.5;0.5;0.25;0.0;0.0;0.0;0.5;1.5;0.75;0.5;3.75;0.0;1.0;-0.246582;0.043457;0.968262;-2.59;3.22;-0.56;141.0;-0.053669;-0.018201;2.75;3.75;3.25;4.5;1.0;2.5;0.0;2.75;0.5;1.0;2.5;3.5;4.5;3.75;0.0;1.0;-0.223145;0.041992;0.971191;-0.56;-1.4;1.47;323.0;-0.041479;-0.153842
0.37;2.75;1.75;2.5;1.5;0.5;0.0;0.0;0.0;0.25;0.75;1.5;0.5;0.75;3.25;0.25;0.75;-0.249512;0.054199;0.964355;-2.59;3.29;-0.56;140.0;-0.050666;-0.012109;3.25;3.75;3.5;4.5;0.75;3.0;0.0;2.5;0.5;1.0;2.5;3.75;4.5;4.0;0.0;1.25;-0.237793;0.006836;0.98291;-0.28;-1.4;1.47;334.0;-0.043485;-0.149274
0.38;1.75;1.5;1.5;1.5;0.5;0.0;0.0;0.0;0.25;0.5;1.5;0.5;0.25;3.0;0.0;0.25;-0.243164;0.049316;0.963867;-2.66;3.22;-0.49;108.0;-0.036458;-0.009413;3.5;3.75;4.0;4.0;0.75;3.25;0.0;3.5;0.75;1.0;3.0;4.0;4.5;3.5;0.25;1.5;-0.227051;0.015625;0.978027;-0.0;-1.26;1.68;360.0;-0.03838;-0.153636
0.39;1.75;1.25;1.5;1.0;0.25;0.25;0.0;0.0;0.0;0.5;0.5;0.5;0.25;2.75;0.25;0.25;-0.249023;0.048828;0.966797;-3.29;3.15;-0.49;91.0;-0.048581;-0.007336;3.5;3.75;4.0;4.75;0.75;3.25;0.0;3.5;0.75;1.25;3.25;3.75;5.0;3.75;0.25;1.5;-0.230957;0.015625;0.976074;-0.0;-1.12;1.61;375.0;-0.037052;-0.154062
0.4;1.5;1.5;1.25;0.5;0.25;0.0;0.0;0.0;0.0;1.0;0.5;0.25;0.25;2.25;0.5;0.25;-0.248047;0.04541;0.95752;-3.85;2.94;-0.56;82.0;-0.024792;0.004126;3.25;4.25;4.25;5.0;1.0;3.25;0.0;3.5;0.75;1.25;3.25;3.75;5.0;4.0;0.25;1.5;-0.22168;0.041992;0.983887;-0.07;-1.12;1.54;385.0;-0.040099;-0.151779
0.41;1.75;1.0;0.5;0.75;0.25;0.0;0.0;0.0;0.0;0.5;0.75;0.25;0.0;1.5;0.5;0.25;-0.240723;0.04834;0.962402;-4.2;2.8;-0.56;66.0;-0.048078;-0.008593;3.5;4.5;4.25;5.25;1.0;3.5;0.0;3.5;0.75;1.5;3.25;3.75;5.0;4.25;0.0;1.75;-0.233398;0.015625;0.97998;-0.07;-1.19;1.54;397.0;-0.043743;-0.149728
0.42;1.25;1.0;0.5;0.5;0.25;0.0;0.0;0.0;0.25;0.5;1.0;0.5;0.25;1.5;0.25;0.25;-0.239258;0.04834;0.969727;-4.83;2.73;-0.7;66.0;0.004382;-0.020297;3.75;4.5;4.25;5.25;1.0;3.75;0.0;3.5;0.75;1.5;3.5;3.5;5.25;4.0;0.0;1.75;-0.233398;0.008301;0.980957;-0.35;-1.47;1.61;401.0;-0.047277;-0.150934
0.43;1.0;0.5;0.25;0.5;0.25;0.0;0.0;0.0;0.25;0.5;0.5;0.25;0.25;1.75;0.0;0.25;-0.250488;0.047363;0.960449;-5.46;2.66;-0.77;51.0;0.034833;0.010033;3.75;4.5;4.5;5.25;1.0;3.75;0.0;4.25;0.75;1.75;3.5;4.0;5.25;3.75;0.0;1.75;-0.241699;0.016113;0.999512;-0.42;-1.26;1.61;418.0;-0.04547;-0.156905
0.44;0.25;0.5;0.25;0.25;0.25;0.0;0.0;0.0;0.5;0.25;0.5;0.25;0.25;1.75;0.0;0.25;-0.23877;0.038086;0.961914;-6.02;2.59;-0.84;43.0;0.0;0.0;3.75;4.5;4.75;5.5;1.25;4.25;0.0;4.25;1.0;1.25;3.5;4.5;5.25;3.75;0.0;1.75;-0.242676;0.008301;0.975098;-0.42;-1.4;1.68;432.0;-0.047869;-0.156901
0.45;0.25;0.5;0.0;0.25;0.25;0.0;0.0;0.0;0.0;0.25;0.5;0.25;0.25;1.75;0.0;0.5;-0.249512;0.032227;0.971191;-6.37;2.31;-1.12;36.0;0.0;0.0;4.0;5.0;4.5;5.5;1.0;4.5;0.0;4.25;1.0;1.25;3.5;4.5;5.25;4.25;0.0;2.0;-0.233398;0.008301;0.97998;-0.49;-1.4;1.54;440.0;-0.047011;-0.156406
0.46;0.25;0.25;0.25;0.25;0.25;0.0;0.0;0.0;0.25;0.25;0.25;0.25;0.0;1.5;0.5;0.25;-0.23877;0.037598;0.961426;-6.65;1.68;-1.19;37.0;0.0;0.0;4.0;5.25;5.25;6.0;1.0;5.0;0.0;4.5;0.75;1.5;3.75;4.5;5.25;4.25;0.25;2.0;-0.225098;0.040039;0.984375;-0.42;-1.54;1.75;465.0;-0.051985;-0.15713
0.47;0.25;0.0;0.25;0.0;0.25;0.0;0.0;0.0;0.0;0.25;0.5;0.25;0.0;1.0;0.5;0.0;-0.249023;0.040527;0.964844;-6.72;1.33;-1.33;27.0;0.0;0.0;4.25;5.25;5.25;6.5;1.25;5.0;0.0;4.5;0.75;1.5;3.75;4.5;5.25;4.25;0.0;2.0;-0.236816;0.009766;0.975586;-0.28;-1.61;1.47;472.0;-0.058396;-0.155857
0.48;0.25;0.25;0.25;0.0;0.0;0.0;0.0;0.0;0.0;0.5;0.5;0.25;0.0;0.5;0.25;0.0;-0.243652;0.049316;0.961426;-7.0;1.05;-1.61;23.0;0.0;0.0;4.25;5.25;5.5;6.5;1.25;5.0;0.0;4.75;0.5;1.5;3.5;4.5;5.75;4.25;0.25;2.25;-0.23584;0.014648;0.996582;-0.49;-1.68;1.47;480.0;-0.057299;-0.161239
0.49;0.5;0.0;0.25;0.25;0.0;0.0;0.0;0.0;0.0;0.25;0.25;0.25;0.0;0.25;0.0;0.0;-0.236816;0.035645;0.959473;-7.35;1.05;-2.24;17.0;0.0;0.0;4.25;5.5;5.75;6.75;1.0;5.0;0.0;5.0;0.5;1.5;3.75;4.5;5.75;4.0;0.25;2.0;-0.244141;0.006836;0.981445;-0.35;-1.61;1.54;487.0;-0.061629;-0.163598
0.5;0.25;0.0;0.0;0.25;0.0;0.0;0.0;0.0;0.0;0.25;0.25;0.0;0.0;0.5;0.0;0.0;-0.248047;0.052734;0.946777;-7.91;0.7;-2.45;12.0;0.0;0.0;4.75;5.75;5.75;7.25;1.75;5.25;0.0;5.0;0.75;1.5;3.75;4.5;5.75;3.75;0.0;2.0;-0.243164;0.011719;0.978027;-0.42;-1.75;1.61;505.0;-0.07125;-0.158446
0.51;0.25;0.0;0.0;0.0;0.0;0.0;0.0;0.0;0.25;0.0;0.25;0.25;0.0;0.25;0.0;0.25;-0.232422;0.034668;0.968262;-8.26;-0.14;-2.52;12.0;0.0;0.0;5.25;5.75;5.75;7.5;1.75;5.5;0.0;4.75;0.75;1.75;4.0;4.5;5.75;3.75;0.0;2.0;-0.231934;0.017578;0.976074;-0.42;-1.89;1.54;515.0;-0.073144;-0.154443
0.52;0.0;0.0;0.0;0.0;0.0;0.0;0.0;0.0;0.0;0.0;0.0;0.25;0.0;0.0;0.0;0.0;-0.253906;0.046387;0.957031;-8.05;-1.26;-2.73;2.0;0.0;0.0;5.25;6.0;5.75;7.5;1.75;5.5;0.0;5.25;0.5;1.75;4.0;4.75;5.75;3.75;0.5;2.0;-0.239746;0.014648;0.977051;-0.56;-1.96;1.47;528.0;-0.070159;-0.159555
0.53;0.0;0.25;0.0;0.0;0.0;0.0;0.0;0.0;0.0;0.0;0.0;0.0;0.0;0.25;0.0;0.0;-0.257324;0.04248;0.971191;-8.12;-3.64;-3.08;4.0;0.0;0.0;5.25;6.25;6.25;7.75;2.0;5.75;0.0;5.0;0.5;2.0;4.0;5.0;5.75;3.0;0.25;1.75;-0.236328;0.012695;0.97168;-0.7;-1.96;1.54;534.0;-0.080336;-0.158865
0.54;0.25;0.0;0.0;0.0;0.0;0.0;0.0;0.0;0.0;0.0;0.0;0.0;0.0;0.0;0.0;0.25;-0.255371;0.033691;0.975586;-8.19;-5.88;-2.73;3.0;0.0;0.0;5.5;6.25;6.5;7.75;2.0;5.75;0.0;4.75;0.75;1.5;3.25;4.75;5.75;3.25;0.0;2.0;-0.26123;0.018066;0.977051;-0.84;-2.03;1.4;525.0;-0.088269;-0.154311
0.55;0.0;0.0;0.0;0.0;0.0;0.0;0.0;0.0;0.0;0.0;0.0;0.25;0.0;0.0;0.0;0.25;-0.242676;-0.015625;1.058594;-3.85;-7.21;-1.47;3.0;0.0;0.0;6.0;6.5;6.5;8.25;1.75;5.75;0.0;5.0;0.75;1.25;3.5;4.5;5.75;3.75;0.0;2.25;-0.237793;0.010254;0.974609;-0.77;-2.17;1.33;539.0;-0.090044;-0.15344
0.56;0.0;0.0;0.0;0.0;0.0;0.0;0.0;0.0;0.0;0.0;0.0;0.0;0.0;0.0;0.0;0.0;-0.231934;0.026367;1.038574;9.52;-9.24;-0.84;0.0;0.0;0.0;6.0;7.0;6.75;8.5;2.0;5.75;0.0;5.0;0.5;1.25;3.75;4.5;5.75;3.5;0.0;2.0;-0.246582;-0.010254;0.97998;-0.7;-2.1;1.47;547.0;-0.097129;-0.154632
0.57;0.0;0.0;0.0;0.0;0.0;0.0;0.0;0.0;0.0;0.0;0.0;0.0;0.0;0.0;0.0;0.0;-0.246582;0.008301;1.102539;32.48;-17.219999;-1.47;0.0;0.0;0.0;6.0;7.0;6.75;8.5;1.75;6.0;0.0;5.25;0.5;1.25;3.5;4.0;5.75;3.25;0.0;2.0;-0.231934;0.012207;0.974609;-0.49;-2.03;1.47;542.0;-0.10223;-0.157546
0.58;0.0;0.0;0.0;0.0;0.0;0.0;0.0;0.0;0.0;0.0;0.0;0.0;0.0;0.0;0.0;0.0;-0.231934;-0.02002;1.098145;50.889999;-21.49;1.61;0.0;0.0;0.0;6.0;7.25;7.0;8.75;1.75;6.0;0.0;5.25;0.5;1.25;3.5;4.0;5.75;3.5;0.25;1.75;-0.228027;0.036133;0.966797;-0.63;-1.96;1.47;551.0;-0.102031;-0.155093
0.59;0.0;0.0;0.0;0.25;0.0;0.0;0.0;0.0;0.0;0.0;0.0;0.0;0.0;0.0;0.0;0.0;-0.181641;0.01709;1.028809;61.32;-26.6;7.35;2.0;0.0;0.0;6.25;7.5;7.0;8.75;1.75;6.0;0.0;5.0;0.75;1.5;3.25;4.0;5.75;3.25;0.25;1.75;-0.239258;0.017578;0.979492;-0.56;-2.03;1.47;553.0;-0.104666;-0.15098
0.6;0.0;0.0;0.0;0.0;0.0;0.0;0.0;0.0;0.0;0.0;0.0;0.0;0.0;0.0;0.0;0.0;-0.207031;0.064941;0.971191;63.349998;-29.33;15.61;0.0;0.0;0.0;6.25;7.5;7.25;8.75;2.0;6.0;0.25;5.25;0.5;1.75;3.0;3.75;5.25;2.5;0.25;1.75;-0.244629;0.016113;0.956543;-0.63;-1.82;1.33;550.0;-0.113716;-0.150132
0.61;0.0;0.5;0.0;0.0;0.0;0.0;0.0;0.0;0.0;0.0;0.0;0.0;0.0;0.0;0.0;0.0;-0.23877;0.071289;0.922363;56.420002;-28.630001;29.049999;4.0;0.0;0.0;6.25;7.5;7.25;8.75;2.0;6.0;0.0;4.75;0.5;1.5;3.25;3.25;5.0;2.5;0.5;1.75;-0.236816;0.018066;0.976562;-0.7;-1.96;1.4;536.0;-0.117601;-0.147803
0.62;0.25;0.25;0.0;0.0;0.0;0.0;0.0;0.0;0.0;0.0;0.0;0.0;0.0;0.0;0.0;0.0;-0.214355;0.067871;0.921387;50.75;-28.280001;33.25;4.0;0.0;0.0;6.5;7.5;7.25;8.75;1.75;6.0;0.0;4.25;0.5;1.25;2.75;3.5;4.5;2.75;0.25;1.5;-0.223145;0.008789;0.977051;-0.84;-1.89;1.26;520.0;-0.126541;-0.143035
0.63;0.0;0.0;0.0;0.0;0.0;0.0;0.0;0.0;0.0;0.0;0.0;0.0;0.0;0.0;0.0;0.0;-0.254395;0.023438;0.947754;36.049999;-24.219999;44.240002;0.0;0.0;0.0;7.0;7.5;7.25;8.75;1.75;6.0;0.0;4.25;0.5;1.25;2.25;3.25;4.5;2.0;0.0;1.5;-0.23584;0.010254;0.979492;-1.05;-2.17;1.19;510.0;-0.141365;-0.144111
0.64;0.0;0.0;0.0;0.0;0.0;0.0;0.0;0.0;0.0;0.0;0.0;0.0;0.0;0.0;0.0;0.0;-0.271484;-0.034668;0.954102;23.66;-21.98;46.900002;0.0;0.0;0.0;7.0;7.75;7.75;9.0;2.0;6.25;0.0;4.25;0.5;1.0;2.5;3.25;4.5;2.25;0.0;1.25;-0.222656;0.04834;0.969238;-0.98;-2.03;1.12;524.0;-0.143353;-0.141401
0.65;0.0;0.0;0.0;0.0;0.0;0.0;0.0;0.0;0.0;0.0;0.0;0.0;0.0;0.0;0.0;0.0;-0.299805;-0.059082;0.943848;17.639999;-20.23;46.27;0.0;0.0;0.0;7.0;8.0;7.25;9.25;1.75;6.0;0.0;4.25;0.25;1.0;2.5;3.25;4.25;2.5;0.0;1.25;-0.233398;0.013184;0.976562;-1.26;-2.17;1.26;517.0;-0.145251;-0.144233
0.66;0.0;0.0;0.0;0.0;0.0;0.0;0.0;0.0;0.0;0.0;0.0;0.0;0.0;0.0;0.0;0.0;-0.302246;-0.088379;0.949219;12.74;-19.74;41.299999;0.0;0.0;0.0;7.25;8.25;7.75;9.0;2.25;6.0;0.0;3.5;0.0;1.0;2.25;2.5;4.25;2.25;0.0;1.0;-0.233398;0.01416;0.978516;-1.47;-2.17;1.19;504.0;-0.161792;-0.135302
0.67;0.0;0.0;0.0;0.0;0.0;0.0;0.0;0.0;0.0;0.0;0.0;0.0;0.0;0.0;0.0;0.0;-0.329102;-0.113281;0.945312;9.17;-19.32;34.790001;0.0;0.0;0.0;7.25;8.25;8.0;9.25;1.75;6.0;0.0;3.25;0.25;1.0;1.5;3.25;4.0;2.0;0.25;1.0;-0.231934;0.02002;0.970703;-1.4;-2.1;1.12;502.0;-0.162783;-0.134662
0.68;0.0;0.0;0.0;0.0;0.0;0.0;0.0;0.0;0.0;0.0;0.0;0.0;0.0;0.0;0.0;0.0;-0.333496;-0.133301;0.924805;2.66;-18.200001;28.0;0.0;0.0;0.0;7.75;8.25;8.25;9.25;1.25;6.0;0.0;3.5;0.25;1.0;1.75;2.5;3.75;1.75;0.25;1.25;-0.235352;0.013672;0.976074;-1.47;-2.17;1.19;500.0;-0.170035;-0.133059
0.69;0.0;0.0;0.0;0.0;0.0;0.0;0.0;0.0;0.0;0.0;0.0;0.0;0.0;0.0;0.0;0.0;-0.345215;-0.111328;0.929688;-8.75;-15.190001;18.620001;0.0;0.0;0.0;7.75;8.25;8.25;9.25;1.75;6.0;0.0;3.25;0.5;1.0;2.25;2.5;3.75;2.25;0.0;1.0;-0.234375;0.011719;0.973145;-1.26;-1.96;1.19;509.0;-0.164519;-0.124976
0.7;0.0;0.0;0.0;0.0;0.0;0.0;0.0;0.0;0.0;0.0;0.0;0.0;0.0;0.0;0.0;0.0;-0.338867;-0.07959;0.930176;-14.49;-13.65;13.09;0.0;0.0;0.0;7.75;8.25;8.0;9.25;1.75;6.0;0.0;3.25;0.5;1.0;1.75;2.5;3.5;2.5;0.25;1.0;-0.228516;0.007324;0.976562;-1.4;-1.89;1.12;504.0;-0.164097;-0.12356
0.71;0.0;0.0;0.0;0.0;0.0;0.0;0.0;0.0;0.0;0.0;0.0;0.0;0.0;0.0;0.0;0.0;-0.34082;-0.05127;0.92627;-18.059999;-12.18;7.77;0.0;0.0;0.0;8.25;8.25;8.0;9.75;1.75;6.0;0.0;2.75;0.25;1.0;1.75;2.25;3.75;2.75;0.0;1.0;-0.230957;0.012695;0.975098;-1.19;-1.68;1.19;503.0;-0.172369;-0.12085
0.72;0.0;0.0;0.0;0.0;0.0;0.0;0.0;0.0;0.0;0.0;0.0;0.0;0.0;0.0;0.0;0.0;-0.343262;-0.020996;0.934082;-20.16;-10.36;2.73;0.0;0.0;0.0;7.75;8.5;8.0;9.75;1.75;6.0;0.0;2.75;0.25;1.0;2.0;2.25;3.25;2.5;0.0;0.75;-0.228516;0.04248;0.948242;-1.05;-1.4;1.19;497.0;-0.175411;-0.12112
0.73;0.0;0.0;0.0;0.0;0.0;0.0;0.0;0.0;0.0;0.0;0.0;0.0;0.0;0.0;0.0;0.0;-0.347656;0.015625;0.921875;-21.700001;-8.68;-2.03;0.0;0.0;0.0;7.75;8.5;8.0;9.75;1.75;5.75;0.0;3.25;0.5;0.75;2.25;2.5;3.25;2.0;0.0;0.75;-0.231445;0.011719;0.977539;-1.26;-1.68;1.12;502.0;-0.173652;-0.12538
0.74;0.0;0.0;0.0;0.0;0.0;0.0;0.0;0.0;0.0;0.0;0.0;0.0;0.0;0.0;0.0;0.0;-0.352539;0.036133;0.907715;-23.52;-6.37;-6.16;0.0;0.0;0.0;7.75;8.25;8.0;9.25;1.75;6.0;0.0;3.25;0.5;0.75;1.75;2.75;3.5;2.5;0.25;0.75;-0.231934;0.009766;0.975586;-1.19;-1.61;1.26;503.0;-0.165405;-0.124692
0.75;0.0;0.0;0.0;0.0;0.0;0.0;0.0;0.0;0.0;0.0;0.0;0.0;0.0;0.0;0.0;0.0;-0.355469;0.070801;0.893555;-24.85;-1.05;-11.41;0.0;0.0;0.0;7.75;8.25;8.0;9.25;1.75;6.0;0.0;3.25;0.0;0.75;1.5;2.75;3.75;2.5;0.0;0.75;-0.247559;0.009277;0.968262;-1.12;-1.61;1.26;495.0;-0.173124;-0.130583
0.76;0.0;0.0;0.0;0.0;0.0;0.0;0.0;0.0;0.0;0.0;0.0;0.0;0.0;0.0;0.0;0.0;-0.351074;0.093262;0.898438;-24.360001;3.29;-13.93;0.0;0.0;0.0;7.75;8.25;8.0;9.25;1.25;6.0;0.0;2.75;0.0;1.0;1.5;3.0;3.25;2.25;0.0;1.0;-0.230957;0.016602;0.975098;-1.05;-1.54;1.12;484.0;-0.175587;-0.127916
0.77;0.0;0.0;0.0;0.0;0.0;0.0;0.0;0.0;0.0;0.0;0.0;0.0;0.0;0.0;0.0;0.0;-0.33252;0.111816;0.921875;-23.799999;7.21;-15.47;0.0;0.0;0.0;7.75;8.25;8.0;9.25;1.25;6.0;0.0;3.25;0.25;1.0;1.75;2.75;3.5;2.25;0.0;1.0;-0.22998;0.01123;0.978027;-1.26;-1.47;1.12;495.0;-0.169762;-0.129516
0.78;0.0;0.0;0.0;0.0;0.0;0.0;0.0;0.0;0.0;0.0;0.0;0.0;0.0;0.0;0.0;0.0;-0.318848;0.119629;0.929688;-23.309999;10.01;-15.96;0.0;0.0;0.0;8.25;8.25;8.25;9.25;1.75;6.25;0.0;3.25;0.5;1.25;2.0;2.75;3.75;2.5;0.0;1.25;-0.251953;-0.000977;0.966309;-1.33;-1.54;1.12;521.0;-0.161677;-0.123023
0.79;0.0;0.0;0.0;0.0;0.0;0.0;0.0;0.0;0.0;0.0;0.0;0.0;0.0;0.0;0.0;0.0;-0.310059;0.125488;0.940918;-23.17;12.53;-16.17;0.0;0.0;0.0;8.25;8.25;8.0;9.75;2.0;6.0;0.0;3.25;0.75;1.25;2.25;2.5;3.5;2.75;0.0;1.0;-0.23877;0.01123;0.979492;-1.12;-1.54;1.12;524.0;-0.160294;-0.117943
0.8;0.0;0.0;0.0;0.0;0.0;0.0;0.0;0.0;0.0;0.0;0.0;0.0;0.0;0.0;0.0;0.0;-0.300781;0.128418;0.938965;-23.24;14.56;-16.66;0.0;0.0;0.0;7.75;8.25;8.0;9.25;1.75;6.0;0.0;3.25;0.75;1.25;2.25;2.75;3.25;2.75;0.0;1.25;-0.228516;0.015137;0.973633;-1.26;-1.4;1.12;515.0;-0.155703;-0.11967
0.81;0.0;0.0;0.0;0.0;0.0;0.0;0.0;0.0;0.0;0.0;0.0;0.0;0.0;0.0;0.0;0.0;-0.267578;0.132324;0.943359;-22.33;16.309999;-17.710001;0.0;0.0;0.0;7.75;8.25;8.0;9.75;2.0;6.0;0.0;2.75;0.75;1.25;2.0;2.75;4.0;2.75;0.0;1.25;-0.232422;0.01123;0.974121;-1.12;-1.4;1.19;519.0;-0.156653;-0.12011
0.82;0.0;0.0;0.0;0.0;0.0;0.0;0.0;0.0;0.0;0.0;0.0;0.0;0.0;0.0;0.0;0.0;-0.242676;0.13916;0.949707;-22.049999;17.01;-18.27;0.0;0.0;0.0;7.75;8.25;8.5;9.75;1.75;6.0;0.0;2.75;0.5;1.0;2.0;3.0;3.25;2.75;0.0;1.25;-0.280273;0.019531;0.978516;-0.91;-1.33;1.26;513.0;-0.163604;-0.11899
0.83;0.0;0.0;0.0;0.0;0.0;0.0;0.0;0.0;0.0;0.0;0.0;0.0;0.0;0.0;0.0;0.0;-0.201172;0.144531;0.930176;-23.379999;17.290001;-17.92;0.0;0.0;0.0;7.75;8.25;8.25;9.75;2.0;6.0;0.0;3.25;0.5;1.25;2.0;2.75;3.5;2.75;0.0;1.0;-0.228516;0.008301;0.976074;-0.98;-1.33;1.19;520.0;-0.160997;-0.121732
0.84;0.0;0.0;0.0;0.0;0.0;0.0;0.0;0.0;0.0;0.0;0.0;0.0;0.0;0.0;0.0;0.0;-0.154297;0.174805;0.930664;-25.48;17.92;-16.379999;0.0;0.0;0.0;7.75;8.5;8.0;9.75;2.0;6.0;0.0;3.25;0.75;1.25;2.25;2.25;3.75;2.75;0.0;1.0;-0.230469;0.01416;0.981934;-0.98;-1.4;1.19;522.0;-0.159625;-0.120462
0.85;0.0;0.0;0.0;0.0;0.0;0.0;0.0;0.0;0.0;0.0;0.0;0.0;0.0;0.0;0.0;0.0;-0.104492;0.202148;0.945312;-23.52;17.219999;-14.0;0.0;0.0;0.0;7.75;8.5;8.25;9.25;2.25;6.0;0.0;2.5;0.25;1.25;2.0;2.75;3.75;2.0;0.0;1.25;-0.222656;0.005371;0.976074;-0.91;-1.33;1.26;505.0;-0.169452;-0.122034
0.86;0.0;0.0;0.0;0.0;0.0;0.0;0.0;0.0;0.0;0.0;0.0;0.0;0.0;0.0;0.0;0.0;-0.065918;0.210938;0.944824;-18.969999;15.75;-10.64;0.0;0.0;0.0;7.25;8.25;8.25;9.25;2.25;6.0;0.0;3.25;0.25;1.25;2.5;2.5;3.5;2.25;0.0;1.25;-0.238281;0.012207;0.975098;-1.05;-1.33;1.19;510.0;-0.161014;-0.125794
0.87;0.0;0.0;0.0;0.0;0.0;0.0;0.0;0.0;0.0;0.0;0.0;0.0;0.0;0.0;0.0;0.0;-0.035156;0.200684;0.915527;-12.88;13.86;-4.83;0.0;0.0;0.0;7.75;8.5;8.25;9.75;2.5;6.0;0.0;3.25;0.25;1.0;2.75;2.75;3.75;2.25;0.25;1.5;-0.230957;0.01123;0.974609;-1.26;-1.33;1.19;531.0;-0.158725;-0.1269
0.88;0.0;0.0;0.0;0.0;0.0;0.0;0.0;0.0;0.0;0.0;0.0;0.0;0.0;0.0;0.0;0.0;0.003906;0.1875;0.897949;-10.78;12.95;-0.49;0.0;0.0;0.0;7.25;8.0;8.25;9.25;2.25;5.75;0.0;3.25;0.5;1.0;2.5;3.0;3.5;2.5;0.0;1.5;-0.227051;0.010254;0.972656;-1.19;-1.26;1.05;514.0;-0.153229;-0.124481
0.89;0.0;0.0;0.0;0.0;0.0;0.0;0.0;0.0;0.0;0.0;0.0;0.0;0.0;0.0;0.0;0.0;0.035645;0.185547;0.891602;-10.36;12.74;4.69;0.0;0.0;0.0;7.25;8.0;8.0;9.25;2.0;5.75;0.0;3.25;0.5;1.0;2.25;3.25;3.5;2.5;0.0;1.5;-0.233887;0.013184;0.972656;-1.54;-1.26;0.98;509.0;-0.152902;-0.127078
0.9;0.0;0.0;0.0;0.0;0.0;0.0;0.0;0.0;0.0;0.0;0.0;0.0;0.0;0.0;0.0;0.0;0.062988;0.17041;0.879395;-9.17;12.88;9.66;0.0;0.0;0.0;7.25;8.25;8.0;9.25;2.25;5.5;0.0;2.75;0.25;1.0;2.25;3.25;3.5;2.75;0.0;1.5;-0.226562;0.008301;0.96875;-1.54;-1.26;1.12;504.0;-0.155774;-0.123469
0.91;0.0;0.0;0.0;0.0;0.0;0.0;0.0;0.0;0.0;0.0;0.0;0.0;0.0;0.0;0.0;0.0;0.069336;0.13623;0.83252;-6.23;14.21;12.88;0.0;0.0;0.0;7.25;7.75;8.25;9.25;2.0;5.75;0.0;2.75;0.25;0.75;2.5;3.0;3.5;3.0;0.0;1.75;-0.226562;0.013184;0.975586;-1.68;-1.26;1.12;503.0;-0.152864;-0.123058
0.92;0.0;0.0;0.0;0.0;0.0;0.0;0.0;0.0;0.0;0.0;0.0;0.0;0.0;0.0;0.0;0.0;0.058594;0.063965;0.79248;-4.9;18.27;13.23;0.0;0.0;0.0;7.25;8.0;8.5;9.25;2.0;5.75;0.0;2.75;0.5;1.0;2.75;2.75;3.5;2.5;0.0;1.5;-0.23291;0.003906;0.976562;-1.61;-1.26;0.98;508.0;-0.155577;-0.120209
0.93;0.0;0.0;0.0;0.0;0.0;0.0;0.0;0.0;0.0;0.0;0.0;0.0;0.0;0.0;0.0;0.0;0.022461;-0.063477;0.80957;-13.02;28.77;7.7;0.0;0.0;0.0;7.25;8.25;8.25;9.25;2.25;5.75;0.0;3.25;0.5;1.25;2.75;2.75;3.5;2.5;0.25;1.5;-0.228027;0.009766;0.980957;-1.61;-1.19;0.98;520.0;-0.150108;-0.122905
0.94;0.0;0.0;0.0;0.0;0.0;0.0;0.0;0.0;0.0;0.0;0.0;0.0;0.0;0.0;0.0;0.0;0.000488;-0.14209;0.838867;-24.01;36.470001;1.26;0.0;0.0;0.0;7.75;8.0;8.25;9.0;2.25;5.75;0.0;3.25;0.25;1.25;2.5;2.75;3.5;2.5;0.0;1.25;-0.230469;0.01416;0.963379;-1.4;-1.26;1.12;512.0;-0.157973;-0.122229
0.95;0.0;0.0;0.0;0.0;0.0;0.0;0.0;0.0;0.0;0.0;0.0;0.0;0.0;0.0;0.0;0.0;-0.02002;0.756348;2.991699;-50.82;49.139999;-5.18;0.0;0.0;0.0;7.25;8.0;8.0;9.0;2.25;5.75;0.0;3.25;0.25;1.5;2.25;3.0;3.5;2.75;0.0;1.75;-0.237793;0.003906;0.974121;-1.54;-1.33;1.12;512.0;-0.149449;-0.124942
0.96;0.0;0.0;0.0;0.0;0.0;0.0;0.0;0.0;0.0;0.0;0.0;0.0;0.0;0.0;0.0;0.0;0.05957;0.695801;0.883301;2.03;22.889999;14.77;0.0;0.0;0.0;7.25;7.75;8.25;9.0;2.25;5.75;0.0;2.75;0.75;1.75;2.25;3.0;3.5;3.25;0.0;1.75;-0.231445;0.010254;0.982422;-1.68;-1.33;1.05;517.0;-0.140828;-0.113415
0.97;0.0;0.0;0.0;0.0;0.0;0.0;0.0;0.0;0.0;0.0;0.0;0.0;0.0;0.0;0.0;0.0;-0.328613;0.359863;0.836426;6.79;7.07;-0.21;0.0;0.0;0.0;7.25;7.75;8.25;9.75;2.25;5.75;0.0;2.75;0.75;1.75;2.25;3.0;3.5;3.25;0.0;1.5;-0.251953;0.021484;0.98291;-1.19;-1.12;1.26;523.0;-0.14386;-0.114445
0.98;0.0;0.0;0.0;0.25;0.0;0.0;0.0;0.0;0.0;0.0;0.0;0.0;0.0;0.0;0.0;0.0;-0.257324;0.12793;0.986328;0.56;15.26;1.89;2.0;0.0;0.0;7.25;7.75;8.0;9.25;2.25;5.5;0.0;2.75;0.75;1.75;2.25;2.75;3.25;2.5;0.0;1.5;-0.235352;0.004883;0.98291;-1.12;-1.12;1.12;504.0;-0.150569;-0.114724
0.99;0.0;0.0;0.0;0.0;0.0;0.0;0.0;0.0;0.0;0.0;0.0;0.0;0.0;0.0;0.0;0.0;-0.236816;0.05127;0.986816;-2.38;13.3;0.98;0.0;0.0;0.0;7.25;7.75;8.0;8.75;2.0;5.5;0.0;2.75;0.5;1.5;2.25;3.0;3.25;2.75;0.25;1.5;-0.231445;0.017578;0.991699;-1.47;-1.05;1.12;498.0;-0.147271;-0.117044
1.0;0.25;0.25;0.0;0.0;0.0;0.0;0.0;0.0;0.0;0.25;0.0;0.0;0.0;0.0;0.0;0.0;-0.236816;0.03125;1.015625;-2.31;10.78;-0.77;6.0;0.0;0.0;7.25;7.75;8.0;8.75;2.5;5.5;0.0;2.5;0.75;1.5;2.5;2.75;3.25;3.0;0.25;1.0;-0.229004;0.001465;0.97998;-1.33;-1.12;1.12;502.0;-0.145981;-0.108799
1.01;0.5;0.5;0.0;0.0;0.0;0.0;0.0;0.0;0.0;0.25;0.0;0.0;0.0;0.0;0.0;0.0;-0.235352;0.054199;0.967773;-0.91;5.95;-1.54;10.0;0.0;0.0;7.0;7.75;8.0;8.75;2.0;5.25;0.0;2.5;0.5;1.5;2.25;2.75;3.5;3.0;0.25;1.0;-0.240723;0.010254;0.981934;-1.33;-1.12;1.12;490.0;-0.14774;-0.114027
1.02;0.75;0.5;0.0;0.25;0.0;0.0;0.0;0.0;0.0;0.0;0.0;0.25;0.0;0.0;0.0;0.0;-0.245605;0.046387;0.969727;-0.77;5.25;-1.89;15.0;0.0;0.0;7.0;7.5;8.0;8.75;1.75;5.0;0.0;2.5;0.5;1.5;2.25;2.75;3.25;2.75;0.0;1.25;-0.228027;0.032227;0.974121;-1.4;-1.05;0.91;479.0;-0.151411;-0.114287
1.03;0.75;0.5;0.0;0.25;0.0;0.0;0.0;0.0;0.0;0.0;0.0;0.25;0.0;0.5;0.0;0.25;-0.236816;0.034668;0.976562;-0.56;4.69;-2.1;20.0;0.0;0.0;7.0;7.5;7.75;8.75;2.25;5.0;0.0;2.5;0.5;1.75;2.5;2.5;3.0;3.25;0.0;1.25;-0.240723;0.013672;0.979004;-1.61;-1.12;1.05;485.0;-0.145837;-0.108514
1.04;1.0;0.5;0.25;0.25;0.0;0.0;0.0;0.0;0.0;0.0;0.0;0.25;0.25;0.75;0.0;0.25;-0.240723;0.04834;0.972168;-0.42;3.36;-2.17;28.0;0.0;0.0;6.5;7.25;7.75;8.5;2.0;5.0;0.0;2.25;0.5;1.25;2.25;2.5;2.75;3.0;0.0;1.25;-0.234863;0.031738;0.971191;-1.54;-0.98;0.98;461.0;-0.151449;-0.109929
1.05;1.25;0.5;0.5;0.5;0.0;0.0;0.0;0.0;0.0;0.25;0.25;0.5;0.0;1.0;0.0;0.25;-0.246094;0.040039;0.948242;0.21;1.26;-2.24;41.0;0.0;0.0;6.25;7.25;7.75;8.5;2.25;4.5;0.0;2.25;0.5;1.25;2.5;2.75;2.5;3.0;0.0;1.25;-0.235352;0.007324;0.976074;-1.61;-1.12;0.84;459.0;-0.147869;-0.108003
1.06;1.0;0.75;0.5;0.25;0.0;0.0;0.0;0.0;0.0;0.5;0.0;0.5;0.0;1.0;0.0;0.25;-0.244629;0.041992;0.965332;-0.07;0.77;-2.24;38.0;0.0;0.0;6.25;7.25;7.25;8.5;1.75;4.5;0.0;2.0;0.5;1.25;2.25;2.25;2.0;3.25;0.25;1.0;-0.240723;-0.015625;0.963867;-1.54;-0.91;0.84;439.0;-0.152181;-0.103105
1.07;0.25;0.5;0.5;0.25;0.0;0.0;0.0;0.0;0.0;0.5;0.0;0.5;0.0;1.75;0.0;0.5;-0.242188;0.04248;0.952148;-0.21;0.7;-1.68;37.0;0.0;0.0;6.25;7.0;7.0;8.25;1.75;4.75;0.0;2.0;0.5;1.0;2.25;2.25;2.5;2.75;0.0;1.0;-0.234375;0.01123;0.974121;-1.47;-0.84;0.84;430.0;-0.156486;-0.110462
1.08;0.5;0.25;0.75;0.5;0.25;0.0;0.0;0.0;0.0;0.5;0.25;0.5;0.0;2.0;0.25;0.0;-0.241699;0.041992;0.963379;-0.0;0.49;-1.19;48.0;0.0;0.0;6.25;7.0;7.0;8.25;1.75;4.75;0.0;2.0;0.5;1.0;2.0;2.25;2.25;2.75;0.0;1.25;-0.234863;0.011719;0.973633;-1.47;-0.98;1.05;427.0;-0.158459;-0.109471
1.09;1.0;0.5;0.5;0.5;0.25;0.0;0.0;0.0;0.25;0.5;0.5;0.5;0.0;2.0;0.25;0.0;-0.250977;0.049316;0.958008;0.42;0.28;-0.56;57.0;0.044799;0.024936;6.0;7.0;7.0;7.75;1.75;4.25;0.25;2.25;0.75;1.25;2.25;1.75;2.25;3.25;0.0;1.0;-0.232422;0.008301;0.974121;-1.33;-1.05;1.05;428.0;-0.146768;-0.098876
1.1;0.75;0.5;0.5;0.25;0.0;0.0;0.0;0.0;0.25;0.5;0.25;0.25;0.0;2.25;0.25;0.25;-0.243652;0.041016;0.964355;1.05;0.35;-0.28;48.0;0.0;0.0;5.5;6.5;7.0;7.5;1.75;4.0;0.0;1.75;0.5;1.25;2.25;2.5;2.25;2.75;0.0;1.0;-0.235352;0.006836;0.975586;-1.19;-0.91;0.91;406.0;-0.146399;-0.10505
1.11;1.75;0.5;0.75;0.25;0.25;0.0;0.0;0.0;0.0;0.75;0.0;0.25;0.25;3.0;0.5;0.5;-0.245117;0.038574;0.958008;1.96;0.49;0.21;69.0;0.047851;0.042021;6.0;6.25;6.75;7.25;1.75;4.25;0.0;1.75;0.5;0.75;1.75;1.75;2.5;2.5;0.0;1.0;-0.241211;0.008789;0.977051;-1.05;-0.91;0.98;390.0;-0.162009;-0.105315
1.12;1.25;0.75;1.0;0.5;0.25;0.0;0.0;0.0;0.0;1.0;0.25;0.5;0.25;3.0;0.25;0.25;-0.240723;0.04248;0.956543;2.17;0.56;0.35;75.0;0.042053;0.021242;5.5;6.25;6.75;7.5;1.75;3.5;0.0;1.25;0.75;0.75;1.75;1.75;2.0;2.5;0.0;1.0;-0.234863;0.007324;0.975586;-1.19;-1.05;0.84;374.0;-0.162897;-0.09433
1.13;1.25;0.75;1.0;0.5;0.0;0.0;0.0;0.0;0.25;1.0;0.5;0.5;0.5;3.25;0.25;0.25;-0.234375;0.040527;0.96875;2.38;0.42;0.42;81.0;0.070077;0.017478;5.5;6.25;6.5;7.25;1.75;3.0;0.0;1.25;1.0;1.0;1.5;2.5;2.0;3.25;0.0;1.0;-0.237793;0.003906;0.97998;-1.05;-0.98;0.98;380.0;-0.143923;-0.088504
1.14;1.0;1.0;0.75;0.25;0.25;0.0;0.0;0.0;0.0;1.0;0.75;1.25;0.5;3.0;0.25;0.5;-0.240723;0.056641;0.958496;1.96;0.35;0.14;84.0;0.090397;-0.027797;5.5;6.25;6.5;7.25;2.0;2.5;0.0;1.75;1.0;1.25;1.25;1.75;1.75;3.0;0.0;1.0;-0.232422;0.009277;0.978027;-0.91;-1.12;0.91;374.0;-0.151858;-0.085219
1.15;2.25;1.25;1.0;0.5;0.0;0.0;0.0;0.0;0.0;0.75;1.0;0.75;0.5;3.0;0.0;0.5;-0.246094;0.061035;0.960449;1.75;0.21;0.14;92.0;-0.004538;-0.008945;5.5;6.25;6.5;6.75;1.75;3.0;0.0;1.75;1.25;1.25;2.0;1.75;1.75;3.5;0.0;0.75;-0.233887;0.007324;0.977539;-0.84;-1.12;1.12;383.0;-0.137249;-0.081469
1.16;2.0;1.25;1.0;0.75;0.0;0.0;0.0;0.0;0.0;1.0;0.75;1.25;0.5;3.25;0.25;0.5;-0.249512;0.050293;0.961914;1.4;0.21;-0.14;101.0;0.023606;-0.023339;5.5;5.75;6.5;6.75;1.75;3.0;0.0;1.75;1.0;1.25;2.25;1.25;2.75;3.0;0.0;0.75;-0.234375;0.008301;0.975586;-0.77;-0.98;0.84;378.0;-0.138449;-0.090722
1.17;2.0;1.25;1.0;0.75;0.25;0.0;0.0;0.0;0.0;0.75;0.5;1.5;0.5;3.25;0.0;0.25;-0.248047;0.044922;0.956055;0.63;-0.14;-0.35;98.0;0.002261;-0.022636;5.5;5.75;6.25;6.75;2.0;3.0;0.0;1.75;0.75;1.25;2.0;1.25;2.5;2.75;0.25;0.75;-0.230957;0.014648;0.973633;-0.7;-1.19;0.98;372.0;-0.143549;-0.092866
1.18;1.75;1.25;1.25;0.75;0.25;0.0;0.0;0.0;0.25;0.5;0.75;1.25;0.5;3.75;0.0;0.25;-0.253418;0.033203;0.952637;-0.07;-0.28;-0.56;102.0;0.021231;-0.005799;5.25;5.75;6.25;6.75;1.75;2.5;0.0;1.75;1.0;1.25;2.0;1.75;2.25;3.0;0.25;0.75;-0.235352;0.005859;0.972168;-0.7;-1.26;0.91;370.0;-0.133722;-0.08935
1.19;1.75;1.75;1.25;0.75;0.25;0.0;0.0;0.0;0.5;1.0;1.0;1.25;0.5;4.75;0.0;0.25;-0.234375;0.048828;0.951172;-0.28;-0.14;-0.63;122.0;0.047123;0.006685;5.5;6.0;6.25;6.75;1.25;2.25;0.0;1.25;0.75;0.5;2.5;1.75;1.25;3.25;0.25;1.0;-0.237793;0.005371;0.975098;-0.7;-1.12;1.05;351.0;-0.146569;-0.081463
1.2;2.25;1.75;1.25;0.75;0.25;0.0;0.0;0.0;0.5;1.25;1.5;1.75;0.75;3.75;0.0;0.5;-0.240234;0.051758;0.961426;-0.77;-0.28;-0.7;133.0;0.031596;-0.021476;5.5;5.75;6.25;6.75;1.25;2.5;0.0;1.0;0.25;0.75;2.0;2.25;1.25;3.25;0.25;0.75;-0.239258;0.008301;0.977539;-0.7;-1.05;1.05;344.0;-0.152175;-0.085671
1.21;2.0;1.5;1.75;1.0;0.5;0.25;0.0;0.0;0.5;1.25;1.5;1.75;1.0;5.0;0.25;0.5;-0.251953;0.07959;0.97168;-1.12;0.07;-0.7;154.0;0.053715;-0.018186;5.25;5.5;6.25;6.5;1.25;2.25;0.0;1.0;0.5;1.0;1.75;1.25;1.75;3.0;0.25;0.5;-0.234375;0.005859;0.978516;-0.63;-1.12;1.12;330.0;-0.155506;-0.079243
1.22;2.0;1.5;1.75;0.75;0.5;0.25;0.0;0.0;0.5;1.5;1.5;2.0;1.0;4.75;0.0;0.5;-0.244629;0.049316;0.970215;-1.68;-0.14;-0.7;152.0;0.05439;-0.019301;5.0;5.5;5.75;6.5;1.25;2.25;0.0;1.0;0.5;1.0;1.5;1.25;1.75;2.5;0.0;0.75;-0.231445;0.008301;0.977051;-0.77;-1.26;0.91;316.0;-0.163334;-0.086504
1.23;2.25;1.5;1.75;0.75;0.5;0.0;0.0;0.0;0.75;1.5;1.75;2.0;0.5;5.25;0.0;0.25;-0.239258;0.047363;0.958496;-1.96;-0.28;-0.77;156.0;0.060295;0.007136;5.0;5.25;5.75;6.5;1.75;2.5;0.0;1.25;0.5;0.75;1.5;1.75;1.25;2.75;0.0;0.75;-0.234375;0.003906;0.975586;-0.7;-1.26;0.98;325.0;-0.157968;-0.08639
1.24;2.75;1.5;2.0;1.0;0.5;0.0;0.0;0.0;1.0;1.5;1.75;2.0;0.75;5.5;0.25;0.25;-0.251953;0.080566;0.963867;-1.96;-0.07;-0.56;173.0;0.052045;0.007596;5.0;5.25;6.0;6.0;1.25;2.5;0.0;1.25;0.5;0.5;1.5;1.0;1.25;2.25;0.0;0.75;-0.236816;0.005859;0.975586;-0.7;-1.19;0.84;306.0;-0.174816;-0.084817
1.25;3.0;1.5;2.0;1.0;0.75;0.0;0.0;0.0;1.0;1.5;1.75;1.5;1.0;5.0;0.25;0.5;-0.244629;0.050781;0.958984;-2.17;-0.49;-0.63;173.0;0.035793;0.0067;4.75;5.5;5.5;6.0;1.25;2.25;0.0;1.0;0.75;0.5;1.5;1.0;1.75;2.5;0.0;0.75;-0.236328;0.009277;0.976074;-0.63;-1.05;0.77;303.0;-0.163669;-0.084537
1.26;3.0;1.5;2.0;1.0;0.75;0.0;0.0;0.0;1.25;1.75;2.25;1.75;1.0;5.5;0.25;0.5;-0.231445;0.045898;0.960938;-2.1;-0.35;-0.56;188.0;0.055048;0.008108;4.75;5.25;5.5;6.0;1.25;2.5;0.0;1.25;0.75;0.75;1.5;0.75;1.75;2.75;0.0;0.75;-0.231934;0.005859;0.975586;-0.56;-1.12;0.84;309.0;-0.15692;-0.084503
1.27;2.75;1.75;2.0;1.0;0.5;0.0;0.0;0.0;1.0;1.75;2.0;2.0;1.0;5.75;0.25;0.5;-0.240723;0.052246;0.96582;-2.1;-0.49;-0.56;184.0;0.058041;-4.2e-05;4.75;5.25;5.5;5.75;1.0;2.25;0.0;1.0;0.75;0.75;1.25;1.0;1.25;3.0;0.0;0.75;-0.234375;0.007324;0.975586;-0.56;-1.33;0.91;297.0;-0.158444;-0.074903
1.28;2.25;1.75;2.0;1.5;0.5;0.0;0.0;0.0;0.5;0.75;1.5;2.25;0.75;5.5;0.5;0.75;-0.242188;0.04834;0.963867;-2.17;-0.49;-0.56;168.0;0.043815;-0.022217;4.5;5.25;5.5;5.25;0.75;1.75;0.0;1.0;0.75;0.75;1.25;1.75;1.0;3.0;0.25;0.75;-0.23584;0.008301;0.975098;-0.49;-1.12;0.84;290.0;-0.144303;-0.074526
1.29;2.5;1.75;2.5;1.5;0.5;0.0;0.0;0.25;0.5;0.75;1.5;2.25;0.75;5.5;0.25;0.75;-0.245117;0.04834;0.964844;-2.03;-0.63;-0.42;176.0;0.024471;-0.023566;4.5;5.0;5.25;5.25;0.75;1.0;0.0;1.0;0.75;1.0;1.25;1.25;1.25;3.0;0.25;0.75;-0.234375;0.011719;0.978516;-0.35;-1.19;0.77;279.0;-0.141737;-0.06837
1.3;3.25;2.0;2.5;2.25;0.75;0.25;0.0;0.25;1.0;1.0;1.0;2.5;1.0;5.75;0.25;0.5;-0.242676;0.048828;0.962402;-1.82;-0.7;-0.49;204.0;0.001467;-0.021883;4.5;4.5;5.0;5.5;1.0;1.0;0.0;0.75;1.0;0.75;1.5;1.0;1.0;3.0;0.0;0.75;-0.240234;0.009277;0.972168;-0.28;-1.19;0.98;270.0;-0.144914;-0.058104
1.31;3.25;2.25;2.5;2.25;0.75;0.25;0.0;0.25;0.75;1.0;0.75;2.75;1.0;5.75;0.25;0.75;-0.237793;0.054199;0.960938;-1.54;-0.56;-0.42;204.0;-0.004061;-0.030823;4.5;5.0;4.75;5.25;1.0;1.0;0.0;0.75;1.0;0.75;1.5;0.75;0.75;2.5;0.0;0.5;-0.236328;0.008789;0.974121;-0.28;-1.12;0.84;261.0;-0.161673;-0.056815
1.32;3.75;2.25;3.0;2.5;0.75;0.0;0.0;0.25;0.25;1.0;1.75;2.75;1.25;5.5;0.0;0.75;-0.241211;0.049316;0.958984;-1.61;-0.56;-0.35;214.0;-0.022818;-0.041081;3.75;4.5;4.75;4.75;0.75;1.25;0.0;0.75;1.0;1.0;1.5;1.0;0.75;2.5;0.0;0.5;-0.23584;0.009277;0.970703;-0.21;-1.12;1.19;250.0;-0.142653;-0.060461
1.33;4.0;2.25;2.75;1.75;0.75;0.0;0.0;0.25;0.5;1.5;1.5;2.75;1.25;5.25;0.0;0.75;-0.251953;0.038086;0.970215;-1.4;-0.49;-0.35;210.0;-0.012577;-0.029758;3.5;4.5;5.0;4.75;0.75;1.75;0.0;0.5;0.5;0.75;1.5;1.0;1.0;2.5;0.0;0.5;-0.236328;0.013184;0.975098;-0.07;-1.05;0.91;246.0;-0.153332;-0.071727
1.34;3.75;2.75;3.25;2.25;0.75;0.25;0.0;0.25;0.25;1.25;1.0;2.25;1.75;5.25;0.25;1.0;-0.239746;0.05127;0.960938;-1.12;-0.35;-0.28;217.0;-0.034515;-0.044664;3.75;4.25;4.75;4.0;0.5;1.75;0.0;0.75;0.25;0.75;1.0;1.25;1.25;2.75;0.0;0.75;-0.235352;0.005859;0.975098;-0.14;-1.12;0.91;238.0;-0.145989;-0.079578
1.35;3.5;2.75;3.25;2.5;0.75;0.25;0.0;0.25;0.25;1.25;1.5;2.5;1.75;5.5;0.25;0.5;-0.243164;0.053711;0.974121;-1.12;-0.28;-0.21;223.0;-0.026474;-0.047347;4.0;4.25;4.0;4.0;0.75;1.25;0.0;0.5;0.25;0.5;1.0;1.0;1.25;2.5;0.0;0.75;-0.239258;0.007324;0.98291;-0.28;-1.05;0.98;221.0;-0.15816;-0.074495
1.36;3.5;2.75;4.0;2.75;1.5;0.5;0.0;0.25;0.5;1.5;2.0;2.75;1.75;5.25;0.25;0.5;-0.234375;0.051758;0.96582;-1.12;-0.14;-0.14;251.0;-0.03065;-0.04473;3.5;4.25;3.5;3.75;0.25;1.0;0.0;0.5;0.25;0.5;1.25;1.0;1.25;2.5;0.0;0.75;-0.233398;0.01123;0.972656;-0.14;-0.98;1.05;205.0;-0.145803;-0.081693
1.37;3.75;3.0;3.25;2.75;1.0;0.5;0.0;0.25;0.5;1.75;1.75;3.25;2.25;5.25;0.25;0.75;-0.234863;0.047852;0.960449;-0.98;-0.14;-0.07;253.0;-0.019581;-0.060093;3.75;3.75;3.5;3.75;0.0;1.0;0.0;0.5;0.5;0.5;0.75;1.25;1.0;2.75;0.0;0.75;-0.233887;0.01123;0.977051;-0.21;-1.05;0.98;202.0;-0.140283;-0.070679
1.38;4.0;3.0;4.0;2.75;1.0;0.5;0.0;0.25;1.0;2.0;1.75;2.75;2.25;5.25;0.25;1.0;-0.227051;0.039062;0.95752;-0.98;-0.0;0.07;266.0;-0.023518;-0.044076;3.25;3.5;3.5;3.5;0.25;1.0;0.0;0.5;0.5;0.75;0.75;1.25;1.0;2.5;0.0;0.75;-0.234375;0.01123;0.973145;-0.28;-1.12;1.05;196.0;-0.130682;-0.071132
1.39;4.5;2.75;4.25;3.0;1.25;0.5;0.0;0.25;0.75;1.25;2.75;2.75;2.25;5.25;0.0;1.0;-0.239258;0.054199;0.960449;-1.05;-0.21;-0.07;273.0;-0.036536;-0.048055;2.75;3.25;3.5;3.25;0.25;1.0;0.0;0.5;0.5;0.75;1.0;1.25;1.0;2.5;0.0;0.75;-0.239258;0.005859;0.970703;-0.35;-1.12;0.98;190.0;-0.115538;-0.072936
1.4;4.5;3.0;4.25;3.25;1.0;0.75;0.0;0.25;0.75;1.25;2.0;3.5;2.25;5.75;0.0;1.0;-0.239258;0.061035;0.960449;-1.19;-0.07;-0.14;281.0;-0.036042;-0.054406;2.75;3.5;3.0;3.0;0.25;1.0;0.0;0.25;0.5;1.0;0.75;1.25;0.5;2.25;0.0;0.5;-0.241211;0.008789;0.972656;-0.42;-1.12;1.05;175.0;-0.128827;-0.061092
1.41;4.5;3.0;4.5;3.0;1.0;0.75;0.0;0.25;0.75;1.75;2.75;4.0;2.25;5.5;0.25;1.0;-0.246094;0.050293;0.965332;-1.19;-0.28;-0.21;297.0;-0.021796;-0.056785;2.75;2.5;2.75;2.75;0.25;0.75;0.0;0.25;0.5;0.25;0.75;1.75;0.5;2.25;0.0;0.5;-0.233398;0.007324;0.973145;-0.35;-0.98;0.98;158.0;-0.11598;-0.064489
1.42;4.5;3.25;4.5;3.0;1.0;0.75;0.0;0.5;1.0;1.75;2.5;3.5;2.25;5.5;0.25;1.0;-0.242676;0.047852;0.970703;-1.47;-0.35;-0.28;298.0;-0.026922;-0.054043;2.75;2.5;2.75;3.0;0.0;0.75;0.0;0.25;0.5;0.25;1.0;0.5;0.75;2.5;0.0;0.5;-0.233398;0.001465;0.974121;-0.42;-0.91;0.91;153.0;-0.127344;-0.054752
1.43;4.5;3.25;4.25;3.75;1.25;0.75;0.0;0.5;1.25;2.0;2.25;3.5;2.25;5.25;0.5;1.25;-0.242676;0.055176;0.961426;-1.26;-0.07;-0.28;309.0;-0.027051;-0.056404;2.5;2.75;3.0;2.5;0.0;0.75;0.0;0.5;0.25;0.25;1.0;0.25;0.75;2.25;0.0;0.5;-0.232422;0.001465;0.970215;-0.35;-1.05;0.91;147.0;-0.140568;-0.063663
1.44;5.0;3.75;4.25;4.0;1.25;0.5;0.0;0.5;1.0;2.25;2.75;3.5;2.25;5.25;0.5;1.25;-0.257812;0.037109;0.964844;-1.33;-0.21;-0.28;321.0;-0.034923;-0.057977;2.75;2.5;3.0;2.0;0.25;0.5;0.0;0.25;0.5;0.0;1.0;0.25;0.5;2.0;0.25;0.5;-0.240234;0.012695;0.971191;-0.28;-0.98;1.05;138.0;-0.139102;-0.034605
1.45;5.5;3.25;4.5;5.25;1.75;0.5;0.0;0.5;1.0;2.25;2.75;3.5;2.25;5.25;0.25;1.25;-0.23584;0.049316;0.959961;-1.26;-0.0;-0.35;338.0;-0.049612;-0.057474;2.75;2.25;2.75;2.25;0.25;0.5;0.0;0.0;0.5;0.25;1.0;0.75;0.5;2.0;0.0;0.5;-0.23584;0.009277;0.978516;-0.28;-0.98;0.98;138.0;-0.130116;-0.035854
1.46;5.5;3.75;5.25;4.25;1.75;0.75;0.0;0.5;1.0;2.5;2.75;4.25;2.25;5.5;0.25;1.0;-0.236328;0.050781;0.966309;-1.05;-0.07;-0.28;351.0;-0.044703;-0.054462;2.25;2.25;2.25;1.75;0.25;0.5;0.0;0.25;0.5;0.25;0.75;1.0;0.25;2.0;0.0;0.5;-0.232422;0.012207;0.972168;-0.07;-0.7;1.12;125.0;-0.111535;-0.044564
1.47;5.25;3.75;5.25;4.75;1.5;1.0;0.0;0.5;1.0;2.0;2.75;4.0;2.75;5.5;0.25;1.25;-0.236816;0.049805;0.962402;-0.84;-0.07;-0.14;352.0;-0.047397;-0.064907;1.75;2.0;2.25;1.75;0.0;0.25;0.0;0.0;0.5;0.25;0.75;0.75;0.25;1.75;0.0;0.5;-0.230957;0.016113;0.977539;0.07;-0.7;0.98;107.0;-0.11141;-0.034272
1.48;5.5;3.75;5.25;5.25;2.0;1.0;0.0;0.5;0.75;2.0;3.0;4.0;3.0;5.25;0.5;1.25;-0.235352;0.051758;0.960938;-0.7;-0.21;0.07;365.0;-0.052555;-0.070443;1.75;1.75;1.75;1.5;0.25;0.25;0.0;0.0;0.5;0.25;0.75;0.75;0.5;1.75;0.0;0.25;-0.234375;0.005859;0.967773;0.28;-0.49;1.05;102.0;-0.095117;-0.035554
1.49;6.0;4.0;5.25;5.0;2.0;1.25;0.0;0.75;1.0;2.25;3.25;4.25;3.0;5.5;0.75;1.5;-0.25;0.062988;0.976074;-0.77;0.07;0.0;389.0;-0.044277;-0.069815;1.5;1.75;1.5;1.25;0.5;0.5;0.0;0.25;0.0;0.25;0.75;0.75;0.25;1.75;0.0;0.25;-0.233398;0.008789;0.973145;0.42;-0.49;1.19;95.0;-0.103937;-0.062188
1.5;6.0;4.0;5.75;5.5;1.75;1.25;0.0;0.75;1.25;2.5;3.25;4.0;3.25;5.5;0.25;1.5;-0.233887;0.049805;0.961426;-0.63;-0.0;0.07;396.0;-0.051072;-0.067797;1.25;1.75;1.5;1.5;0.25;0.5;0.0;0.25;0.0;0.25;1.0;0.75;0.25;1.75;0.0;0.25;-0.243164;0.01123;0.980469;0.42;-0.49;1.19;95.0;-0.093448;-0.074219
1.51;5.75;4.0;5.75;5.5;1.75;1.5;0.0;0.75;1.25;2.75;3.5;4.0;3.0;5.75;0.0;1.5;-0.245605;0.055176;0.975098;-0.7;-0.21;0.14;398.0;-0.048097;-0.066476;1.5;1.5;1.25;1.25;0.0;0.5;0.0;0.0;0.0;0.0;1.0;0.5;0.75;2.0;0.0;0.25;-0.233398;0.003906;0.967285;0.49;-0.63;1.19;86.0;-0.080816;-0.068978
1.52;5.75;4.5;5.75;5.5;2.0;1.25;0.0;1.0;1.5;2.75;3.5;4.0;3.0;5.5;0.0;1.5;-0.242188;0.048828;0.962402;-0.56;-0.0;0.14;406.0;-0.051142;-0.066865;0.5;1.5;1.0;1.0;0.0;0.5;0.0;0.25;0.0;0.25;0.75;0.5;0.25;1.25;0.0;0.25;-0.242676;0.010742;0.973145;0.63;-0.56;1.19;67.0;-0.075259;-0.099776
1.53;6.0;4.5;5.75;5.75;2.0;1.5;0.0;1.0;1.5;2.25;3.5;4.0;3.75;5.5;0.5;1.75;-0.23877;0.048828;0.974121;-0.63;-0.28;0.07;419.0;-0.048962;-0.075316;0.25;1.25;1.0;1.0;0.0;0.25;0.0;0.25;0.0;0.25;1.0;0.25;0.0;1.0;0.0;0.25;-0.235352;0.016113;0.980957;0.77;-0.7;1.12;57.0;-0.070846;-0.088695
1.54;6.25;5.25;5.75;5.75;2.0;2.0;0.0;1.0;1.5;2.25;3.75;4.25;3.5;5.5;0.25;1.5;-0.241699;0.052246;0.956055;-0.28;-0.07;0.14;431.0;-0.058404;-0.076714;0.5;1.0;1.0;0.5;0.0;0.25;0.0;0.25;0.0;0.0;0.75;0.25;0.25;0.75;0.0;0.0;-0.243164;0.008789;0.969727;0.91;-0.7;1.33;47.0;0.0;0.0
1.55;6.25;5.25;5.75;6.75;1.75;2.0;0.0;1.0;1.5;2.5;4.0;4.75;4.0;4.5;0.0;2.0;-0.231934;0.052734;0.970703;-0.56;-0.14;0.0;443.0;-0.063161;-0.090677;0.5;0.75;0.75;0.25;0.0;0.25;0.0;0.0;0.0;0.25;0.5;0.5;0.5;1.0;0.0;0.0;-0.241699;0.010254;0.979004;1.19;-1.05;1.4;44.0;0.0;0.0
1.56;6.25;5.25;6.0;6.75;2.25;2.5;0.0;1.5;1.0;2.5;3.75;4.75;4.0;5.25;0.5;1.75;-0.236328;0.055664;0.960449;-0.28;-0.07;-0.07;462.0;-0.061141;-0.094645;0.25;1.0;0.75;0.25;0.0;0.0;0.0;0.0;0.0;0.25;0.25;0.25;0.5;0.5;0.0;0.25;-0.241211;0.012695;0.975098;1.26;-1.05;1.26;34.0;0.0;0.0
1.57;6.25;5.25;6.0;7.25;2.25;2.5;0.0;1.5;1.25;2.75;4.0;4.75;4.0;5.25;0.0;2.0;-0.227051;0.057129;0.964355;-0.28;-0.21;0.14;471.0;-0.062156;-0.093784;0.25;1.0;0.5;0.25;0.0;0.25;0.0;0.0;0.0;0.0;0.25;0.25;0.25;0.5;0.0;0.25;-0.242676;0.016602;0.978027;1.54;-1.4;1.33;30.0;0.0;0.0
1.58;6.25;5.75;6.25;7.0;2.25;2.5;0.0;1.5;1.25;2.5;3.75;5.0;4.0;5.5;0.0;2.0;-0.233887;0.055664;0.959473;-0.42;0.07;0.07;474.0;-0.064611;-0.093371;0.25;0.5;0.5;0.25;0.0;0.25;0.0;0.0;0.0;0.0;0.25;0.25;0.0;0.25;0.0;0.25;-0.244141;0.003906;0.973145;1.68;-1.68;1.33;23.0;0.0;0.0
1.59;6.25;5.75;6.5;7.0;2.25;2.5;0.0;1.5;1.25;2.75;3.75;5.0;4.0;5.5;0.25;2.0;-0.231445;0.054688;0.969238;-0.56;0.07;0.0;481.0;-0.062031;-0.09172;0.25;0.5;0.25;0.25;0.0;0.0;0.0;0.0;0.0;0.0;0.25;0.25;0.25;0.25;0.0;0.0;-0.245605;0.007812;0.976562;1.89;-1.68;1.47;19.0;0.0;0.0
1.6;6.5;5.75;6.5;7.25;2.25;3.0;0.0;1.5;1.0;3.0;4.0;5.0;4.25;5.25;0.25;2.0;-0.237793;0.0625;0.964844;-0.49;0.07;0.0;492.0;-0.065438;-0.096957;0.25;0.5;0.25;0.25;0.0;0.0;0.0;0.0;0.0;0.0;0.25;0.25;0.0;0.25;0.0;0.0;-0.249023;0.012207;0.975098;1.82;-2.1;1.47;17.0;0.0;0.0
1.61;6.5;5.75;6.75;7.25;2.25;3.0;0.0;1.5;1.0;2.75;4.0;5.25;4.25;5.25;0.0;2.0;-0.272461;0.0625;0.959961;-0.63;0.28;-0.14;492.0;-0.068645;-0.097742;0.0;0.75;0.25;0.25;0.0;0.0;0.0;0.0;0.0;0.0;0.0;0.25;0.0;0.25;0.0;0.0;-0.243164;0.01709;0.980469;1.75;-2.8;1.61;14.0;0.0;0.0
1.62;6.5;5.75;6.75;7.75;2.25;3.25;0.0;1.5;1.25;2.75;4.0;5.5;4.5;5.25;0.25;2.0;-0.234375;0.053711;0.968262;-0.42;0.14;-0.07;508.0;-0.0651;-0.099779;0.0;0.5;0.0;0.0;0.0;0.0;0.0;0.0;0.0;0.0;0.5;0.25;0.25;0.25;0.0;0.0;-0.243652;0.004883;0.973633;1.12;-3.99;1.26;14.0;0.0;0.0
1.63;6.25;5.75;6.75;7.25;2.25;3.5;0.0;1.75;1.25;2.75;4.5;5.5;4.5;5.5;0.5;2.0;-0.239258;0.04834;0.966797;-0.42;0.35;0.0;515.0;-0.055577;-0.101206;0.25;0.25;0.0;0.0;0.0;0.0;0.0;0.0;0.0;0.0;0.25;0.25;0.25;0.25;0.0;0.0;-0.242188;0.006348;0.977539;0.84;-4.97;1.26;12.0;0.0;0.0
1.64;6.25;5.75;6.75;7.75;2.25;3.5;0.0;1.75;1.25;3.0;4.5;5.25;4.75;5.5;0.75;2.5;-0.230957;0.05957;0.973145;-0.56;0.35;0.07;526.0;-0.052933;-0.102891;0.0;0.25;0.0;0.25;0.0;0.0;0.0;0.0;0.0;0.0;0.0;0.25;0.25;0.25;0.0;0.0;-0.237305;0.012695;0.980957;0.35;-7.28;1.47;10.0;0.0;0.0
1.65;6.25;5.75;6.75;7.25;2.25;3.75;0.25;1.75;1.5;3.25;4.75;5.0;4.75;5.25;0.25;2.25;-0.236328;0.057617;0.964355;-0.42;0.63;-0.07;524.0;-0.053982;-0.097696;0.0;0.25;0.0;0.25;0.0;0.0;0.0;0.0;0.0;0.0;0.0;0.0;0.0;0.0;0.0;0.0;-0.248535;0.02832;0.987793;0.21;-8.89;1.05;4.0;0.0;0.0
1.66;6.25;5.75;6.75;7.75;2.25;3.5;0.25;1.75;1.25;2.75;4.75;5.5;4.75;5.25;0.5;2.0;-0.229492;0.049805;0.96875;-0.56;0.84;-0.07;525.0;-0.05641;-0.10246;0.0;0.25;0.0;0.0;0.0;0.0;0.0;0.0;0.0;0.0;0.0;0.0;0.0;0.0;0.0;0.0;-0.24707;-0.02002;1.023926;1.26;-11.55;0.91;2.0;0.0;0.0
1.67;6.25;6.25;6.5;7.75;2.25;4.25;0.0;1.75;1.5;2.75;4.75;5.5;5.0;5.0;0.75;2.75;-0.231934;0.048828;0.958496;-0.56;0.84;-0.14;538.0;-0.054736;-0.109471;0.0;0.25;0.25;0.25;0.0;0.0;0.0;0.0;0.0;0.0;0.0;0.0;0.0;0.0;0.0;0.0;-0.22168;-0.02832;1.003418;3.92;-16.379999;0.56;7.0;0.0;0.0
1.68;6.25;5.75;6.75;7.25;2.25;4.25;0.0;1.75;1.25;3.25;4.75;5.5;5.0;5.5;0.75;2.5;-0.23877;0.057129;0.967773;-0.63;0.77;-0.07;536.0;-0.048021;-0.105409;0.25;0.0;0.0;0.25;0.0;0.0;0.0;0.0;0.0;0.0;0.0;0.0;0.0;0.0;0.0;0.0;-0.230957;-0.036133;0.984375;4.97;-19.110001;-0.91;4.0;0.0;0.0
1.69;6.25;5.75;6.5;7.25;2.25;3.75;0.0;1.75;1.25;3.5;5.0;5.5;5.0;5.5;0.25;2.5;-0.236816;0.064453;0.968262;-0.77;0.91;-0.14;529.0;-0.047658;-0.104369;0.0;0.0;0.0;0.0;0.0;0.0;0.0;0.0;0.0;0.0;0.0;0.0;0.0;0.0;0.0;0.0;-0.275879;-0.311523;0.958496;7.63;-18.059999;-6.16;0.0;0.0;0.0
1.7;6.25;5.75;6.75;7.0;2.25;3.75;0.0;2.0;1.25;3.5;5.25;5.5;5.0;5.75;0.25;3.5;-0.239258;0.057617;0.967285;-0.91;0.91;-0.35;541.0;-0.041285;-0.105596;0.0;0.0;0.0;0.25;0.0;0.0;0.0;0.0;0.0;0.0;0.0;0.0;0.0;0.0;0.0;0.0;-0.313965;-0.333984;1.03125;12.95;-16.66;-19.460001;2.0;0.0;0.0
1.71;6.25;5.75;6.5;7.25;2.25;3.75;0.0;2.0;1.5;3.0;5.25;5.5;5.0;5.25;0.75;3.0;-0.237793;0.05957;0.967773;-1.12;0.91;-0.42;538.0;-0.043164;-0.107196;0.0;0.25;0.0;0.0;0.0;0.0;0.0;0.0;0.0;0.0;0.0;0.0;0.0;0.0;0.0;0.0;-0.279785;-0.204102;0.981445;15.61;-18.41;-26.110001;2.0;0.0;0.0
1.72;6.25;5.75;6.75;6.75;2.25;3.75;0.0;2.0;1.5;3.5;4.75;5.75;5.0;5.5;0.75;2.75;-0.23584;0.061523;0.962891;-1.26;0.77;-0.42;539.0;-0.040254;-0.103272;0.0;0.0;0.0;0.0;0.0;0.0;0.0;0.0;0.0;0.0;0.0;0.0;0.0;0.0;0.0;0.0;-0.338867;-0.212891;0.927246;16.379999;-17.08;-32.689999;0.0;0.0;0.0
1.73;6.25;5.75;6.75;7.0;2.25;3.75;0.0;1.75;1.5;3.25;5.25;5.75;5.0;5.5;1.0;2.5;-0.236328;0.053711;0.960938;-1.54;0.84;-0.35;541.0;-0.039455;-0.102336;0.0;0.25;0.0;0.0;0.0;0.0;0.0;0.0;0.0;0.0;0.0;0.0;0.0;0.0;0.0;0.0;-0.32373;-0.178711;0.950684;15.47;-16.030001;-37.099998;2.0;0.0;0.0
1.74;6.25;5.75;6.5;7.25;2.5;3.75;0.0;1.75;1.75;3.25;5.75;5.75;4.75;5.5;0.5;2.5;-0.23584;0.056152;0.961426;-1.75;0.56;-0.49;544.0;-0.040612;-0.10015;0.0;0.25;0.0;0.0;0.0;0.0;0.0;0.0;0.0;0.0;0.0;0.0;0.0;0.0;0.0;0.0;-0.348145;-0.10498;0.919922;12.46;-14.21;-38.360001;2.0;0.0;0.0
1.75;6.25;5.75;6.75;7.25;2.5;4.25;0.0;2.0;1.75;4.0;5.25;5.75;4.75;5.75;0.5;2.5;-0.236816;0.059082;0.96875;-2.03;0.56;-0.49;558.0;-0.039652;-0.099492;0.0;0.25;0.0;0.0;0.0;0.0;0.0;0.0;0.0;0.0;0.0;0.0;0.0;0.0;0.0;0.0;-0.367188;-0.155273;0.89502;3.01;-10.08;-35.84;2.0;0.0;0.0
1.76;6.25;5.75;6.75;7.0;2.5;3.5;0.0;2.0;1.5;3.5;5.0;6.0;4.75;5.25;0.75;1.5;-0.241211;0.05957;0.966309;-2.1;0.56;-0.56;536.0;-0.045605;-0.100674;0.0;0.0;0.0;0.0;0.0;0.0;0.0;0.0;0.0;0.0;0.0;0.0;0.0;0.0;0.0;0.0;-0.373047;-0.103027;0.914062;-5.39;-6.79;-32.130001;0.0;0.0;0.0
1.77;6.25;5.75;6.5;7.25;2.5;3.25;0.0;1.75;1.5;3.25;5.25;5.75;4.75;5.5;0.25;2.0;-0.231934;0.055176;0.96582;-2.24;0.63;-0.56;528.0;-0.047025;-0.099621;0.0;0.0;0.0;0.0;0.0;0.0;0.0;0.0;0.0;0.0;0.0;0.0;0.0;0.0;0.0;0.0;-0.365723;-0.082031;0.948242;-15.75;-2.31;-26.67;0.0;0.0;0.0
1.78;6.25;5.75;6.75;7.75;2.25;3.25;0.25;1.75;1.5;3.75;5.25;5.5;4.75;5.75;0.0;2.0;-0.234863;0.060547;0.964844;-2.1;0.49;-0.56;537.0;-0.047996;-0.095533;0.0;0.0;0.0;0.0;0.0;0.0;0.0;0.0;0.0;0.0;0.0;0.0;0.0;0.0;0.0;0.0;-0.345215;-0.02002;0.956055;-25.059999;2.45;-21.0;0.0;0.0;0.0
1.79;6.25;6.25;6.75;7.25;2.25;3.75;0.0;1.75;1.5;3.75;5.25;5.5;4.75;5.75;0.25;2.75;-0.235352;0.05957;0.972168;-2.17;0.49;-0.56;544.0;-0.045775;-0.099746;0.0;0.0;0.0;0.0;0.0;0.0;0.0;0.0;0.0;0.0;0.0;0.0;0.0;0.0;0.0;0.0;-0.316895;0.012695;0.897949;-25.620001;9.66;-14.98;0.0;0.0;0.0
1.8;6.25;5.75;6.75;7.25;2.25;3.5;0.0;1.75;1.5;3.0;5.25;5.75;4.75;5.5;0.25;3.0;-0.238281;0.058105;0.962891;-2.1;0.42;-0.49;533.0;-0.045765;-0.102737;0.0;0.0;0.0;0.0;0.0;0.0;0.0;0.0;0.0;0.0;0.0;0.0;0.0;0.0;0.0;0.0;-0.282715;0.009766;0.845703;-24.780001;14.77;-10.01;0.0;0.0;0.0
1.81;6.5;5.75;7.0;7.25;2.5;3.5;0.0;1.75;1.75;2.75;5.25;5.5;4.75;5.75;0.25;2.5;-0.237305;0.056152;0.963379;-1.96;0.42;-0.35;537.0;-0.049369;-0.096473;0.0;0.0;0.0;0.0;0.0;0.0;0.0;0.0;0.0;0.0;0.0;0.0;0.0;0.0;0.0;0.0;-0.287598;0.013184;0.830078;-22.75;21.35;-6.44;0.0;0.0;0.0
1.82;6.25;6.25;6.75;7.75;2.75;3.75;0.0;1.75;1.75;3.75;5.25;5.25;4.75;5.5;0.25;2.5;-0.233887;0.060547;0.961914;-2.03;0.49;-0.42;550.0;-0.050308;-0.097255;0.0;0.0;0.0;0.0;0.0;0.0;0.0;0.0;0.0;0.0;0.0;0.0;0.0;0.0;0.0;0.0;-0.123535;0.437012;0.965332;14.21;32.970001;2.31;0.0;0.0;0.0
1.83;6.25;5.75;7.0;7.75;2.75;3.75;0.0;1.75;2.25;3.25;5.25;5.5;4.75;5.5;0.25;2.5;-0.255859;0.054199;0.95752;-2.03;0.42;-0.42;552.0;-0.046882;-0.094363;0.0;0.0;0.0;0.0;0.0;0.0;0.0;0.0;0.0;0.0;0.0;0.0;0.0;0.0;0.0;0.0;0.052246;0.062012;1.150879;14.14;21.0;2.8;0.0;0.0;0.0
1.84;6.5;5.75;6.75;7.75;2.5;3.75;0.25;1.75;2.25;3.25;5.25;5.5;4.75;5.5;0.75;2.5;-0.235352;0.060059;0.964355;-2.03;0.42;-0.49;557.0;-0.042683;-0.092949;0.0;0.25;0.0;0.0;0.0;0.0;0.0;0.0;0.0;0.0;0.0;0.0;0.0;0.0;0.0;0.0;0.070801;0.067383;1.054688;-3.64;13.79;12.67;2.0;0.0;0.0
1.85;6.5;5.75;6.75;7.75;2.5;3.75;0.25;1.75;2.5;3.75;5.25;5.75;4.75;5.5;0.25;2.75;-0.240234;0.059082;0.965332;-2.03;0.56;-0.49;563.0;-0.040779;-0.091279;0.0;0.25;0.0;0.0;0.0;0.0;0.0;0.0;0.0;0.0;0.0;0.0;0.0;0.0;0.0;0.0;0.000488;0.251465;0.992188;-7.14;14.63;24.57;2.0;0.0;0.0
1.86;6.5;6.25;6.75;7.75;2.5;3.5;0.25;1.75;2.5;3.75;5.25;5.75;4.75;5.5;0.25;2.5;-0.23877;0.058594;0.966797;-2.1;0.63;-0.49;564.0;-0.043709;-0.090605;0.0;0.0;0.0;0.0;0.0;0.0;0.0;0.0;0.0;0.0;0.0;0.0;0.0;0.0;0.0;0.0;0.103516;0.487793;1.066406;-7.21;9.17;33.18;0.0;0.0;0.0
1.87;6.5;5.75;6.75;7.25;2.25;3.75;0.25;1.75;2.0;3.0;5.25;5.5;4.75;5.75;0.25;1.5;-0.233887;0.060059;0.958496;-2.17;0.77;-0.49;538.0;-0.048531;-0.092294;0.0;0.0;0.0;0.0;0.0;0.0;0.0;0.0;0.0;0.0;0.0;0.0;0.0;0.0;0.0;0.0;-0.10498;0.32959;0.987793;-7.49;4.2;35.349998;0.0;0.0;0.0
1.88;6.5;5.75;6.75;7.75;2.5;3.75;0.25;1.75;1.5;2.75;5.25;5.5;4.75;5.75;0.25;2.5;-0.238281;0.05957;0.972656;-2.24;0.91;-0.56;542.0;-0.051662;-0.098967;0.0;0.0;0.0;0.0;0.0;0.0;0.0;0.0;0.0;0.0;0.0;0.0;0.0;0.0;0.0;0.0;-0.210449;0.177734;0.975098;-3.92;2.87;25.48;0.0;0.0;0.0
1.89;6.5;5.75;6.75;7.25;2.5;3.75;0.25;1.75;1.5;3.0;5.0;5.25;4.75;5.5;0.25;3.0;-0.236816;0.056152;0.962402;-2.17;0.91;-0.56;536.0;-0.050452;-0.09819;0.0;0.0;0.0;0.0;0.0;0.0;0.0;0.0;0.0;0.0;0.0;0.0;0.0;0.0;0.0;0.0;-0.273926;0.175293;1.000488;-0.7;-1.54;12.04;0.0;0.0;0.0
1.9;6.25;5.75;6.75;7.0;2.5;3.5;0.25;1.75;1.5;3.0;4.75;5.75;4.5;5.5;0.25;2.75;-0.237305;0.051758;0.964355;-2.17;0.98;-0.7;528.0;-0.048176;-0.097583;0.0;0.0;0.0;0.0;0.0;0.0;0.0;0.0;0.0;0.0;0.0;0.25;0.0;0.25;0.0;0.0;-0.250977;0.047363;0.98291;2.03;-3.5;2.1;4.0;0.0;0.0
1.91;6.25;5.75;6.75;7.0;2.25;3.25;0.0;1.75;2.0;3.0;4.75;5.5;4.5;5.75;0.0;2.0;-0.238281;0.058105;0.966309;-2.1;0.91;-0.7;520.0;-0.04911;-0.092548;0.0;0.0;0.0;0.0;0.0;0.0;0.0;0.0;0.0;0.0;0.0;0.5;0.0;0.25;0.0;0.0;-0.247559;0.018555;0.961914;1.54;-5.11;-0.0;6.0;0.0;0.0
1.92;6.25;5.75;6.75;7.0;2.25;3.25;0.0;1.5;2.5;3.0;4.75;5.5;4.5;5.75;0.0;2.0;-0.237793;0.059082;0.966797;-2.17;1.05;-0.7;522.0;-0.046131;-0.08688;0.0;0.0;0.0;0.0;0.0;0.0;0.0;0.0;0.0;0.0;0.0;0.0;0.0;0.25;0.0;0.0;-0.274902;-0.039551;1.039551;2.1;-5.18;-0.14;2.0;0.0;0.0
1.93;6.5;5.25;6.75;7.0;2.25;3.25;0.0;1.5;2.0;2.75;5.0;5.0;4.25;5.75;0.25;2.5;-0.234863;0.051758;0.965332;-2.24;1.12;-0.7;513.0;-0.047329;-0.087933;0.0;0.0;0.0;0.0;0.0;0.0;0.0;0.0;0.0;0.0;0.0;0.0;0.25;0.75;0.0;0.0;-0.234375;0.01123;0.980957;3.64;-2.38;0.98;7.0;0.0;0.0
1.94;6.25;5.75;6.75;6.75;2.25;3.25;0.25;1.5;1.75;2.75;5.0;5.0;4.25;5.75;0.75;2.25;-0.234863;0.056641;0.96582;-2.31;1.12;-0.77;517.0;-0.04534;-0.08805;0.0;0.25;0.0;0.0;0.0;0.0;0.0;0.0;0.0;0.0;0.0;0.25;0.25;1.0;0.0;0.0;-0.236328;0.013672;0.980957;3.08;-1.75;0.28;13.0;0.0;0.0
1.95;6.0;5.25;6.5;6.75;2.25;2.75;0.0;1.5;1.75;3.0;5.0;5.25;4.25;5.75;0.25;2.25;-0.23584;0.053223;0.958496;-2.45;1.12;-0.63;500.0;-0.041389;-0.089876;0.25;0.0;0.0;0.0;0.0;0.0;0.0;0.0;0.25;0.0;0.25;0.25;0.0;0.75;0.0;0.0;-0.244629;0.018555;0.979492;2.45;-1.75;-0.14;15.0;0.0;0.0
1.96;6.0;5.25;6.5;6.75;2.0;3.0;0.0;1.5;2.5;3.0;5.0;5.25;4.25;5.5;0.25;2.5;-0.236816;0.062012;0.963379;-2.31;1.33;-0.7;508.0;-0.037386;-0.086937;0.0;0.0;0.0;0.0;0.0;0.0;0.0;0.0;0.25;0.0;0.25;0.5;0.0;1.0;0.0;0.0;-0.236328;0.020996;0.967773;2.17;-1.54;-0.35;17.0;0.0;0.0
1.97;6.25;5.25;6.5;6.75;2.25;2.5;0.0;1.5;2.25;2.75;5.0;5.25;4.0;5.5;0.25;1.75;-0.236816;0.05127;0.96582;-2.31;1.26;-0.63;498.0;-0.044676;-0.083399;0.0;0.25;0.25;0.0;0.0;0.0;0.0;0.0;0.0;0.25;0.25;0.5;0.0;1.25;0.0;0.25;-0.242676;0.000977;0.980957;1.82;-1.54;-0.35;23.0;0.0;0.0
1.98;6.0;5.0;6.25;6.5;2.25;2.5;0.0;1.5;2.0;3.0;5.0;5.25;4.0;5.75;0.0;1.75;-0.23584;0.05957;0.96582;-2.24;1.26;-0.63;488.0;-0.04021;-0.084486;0.25;0.5;0.25;0.0;0.0;0.0;0.0;0.0;0.0;0.25;0.5;0.5;0.0;1.25;0.0;0.0;-0.244629;0.01123;0.984863;0.98;-1.75;-0.14;28.0;0.0;0.0
1.99;5.75;5.0;6.25;6.0;2.25;2.5;0.0;1.5;1.75;3.5;5.0;5.25;4.25;6.0;0.25;2.25;-0.239258;0.048828;0.965332;-2.31;1.47;-0.77;491.0;-0.029135;-0.086225;0.25;0.5;0.5;0.0;0.0;0.0;0.0;0.0;0.0;0.25;0.25;0.75;0.0;1.5;0.0;0.0;-0.245117;0.0;0.976562;0.21;-1.89;0.21;32.0;0.0;0.0
2.0;6.0;5.0;6.25;6.0;2.25;2.5;0.0;1.5;1.5;3.25;5.25;5.25;4.0;5.75;0.25;2.0;-0.234375;0.055176;0.959473;-2.31;1.4;-0.63;486.0;-0.03577;-0.087213;0.25;0.5;0.5;0.25;0.0;0.0;0.0;0.0;0.0;0.0;0.5;0.25;0.5;1.75;0.0;0.0;-0.245605;0.00293;0.973633;-0.07;-1.89;0.63;36.0;0.0;0.0
2.01;6.0;4.25;6.25;6.0;2.25;2.5;0.0;1.5;1.75;3.75;5.25;5.0;4.25;5.75;0.0;2.0;-0.239258;0.052734;0.962891;-2.38;1.26;-0.7;484.0;-0.029459;-0.083362;0.5;0.5;0.5;0.25;0.0;0.0;0.0;0.0;0.0;0.25;0.5;0.25;0.0;1.75;0.0;0.0;-0.239746;0.005859;0.976562;-0.07;-2.03;0.98;36.0;0.0;0.0
2.02;6.0;5.0;6.0;5.0;2.25;2.0;0.0;1.25;2.5;3.75;5.0;5.0;4.0;5.75;0.25;2.25;-0.238281;0.057129;0.963867;-2.38;1.19;-0.7;478.0;-0.02104;-0.071439;0.25;0.75;0.75;0.25;0.0;0.0;0.0;0.0;0.0;0.25;0.5;0.25;0.25;2.0;0.0;0.0;-0.23291;0.013672;0.972656;-0.07;-1.96;1.12;42.0;0.0;0.0
2.03;5.75;5.25;6.0;5.5;2.25;2.0;0.0;1.25;2.75;3.5;5.0;5.0;3.5;5.75;0.5;2.5;-0.242188;0.056152;0.965332;-2.45;1.4;-0.77;483.0;-0.021618;-0.070391;0.25;0.5;0.5;0.5;0.0;0.0;0.0;0.0;0.0;0.0;0.25;0.75;0.5;2.0;0.0;0.0;-0.238281;0.016602;0.972656;-0.0;-2.1;1.4;42.0;0.0;0.0
2.04;5.75;5.0;6.0;5.75;2.0;2.0;0.0;1.25;2.25;3.5;4.0;5.0;3.75;5.75;0.25;2.25;-0.239746;0.053711;0.962891;-2.45;1.19;-0.7;465.0;-0.030949;-0.075496;0.5;0.5;0.5;0.25;0.0;0.25;0.0;0.25;0.0;0.25;0.25;0.25;0.25;2.25;0.0;0.25;-0.227539;-0.005371;0.974121;0.21;-2.03;1.4;46.0;0.0;0.0
2.05;6.0;4.25;6.0;5.5;1.5;1.5;0.0;1.0;2.5;3.5;4.75;5.0;3.25;5.75;0.25;1.5;-0.239258;0.060059;0.958496;-2.38;1.19;-0.7;449.0;-0.023541;-0.063324;0.25;0.75;0.75;0.0;0.0;0.0;0.0;0.25;0.0;0.25;0.75;0.0;0.25;2.0;0.0;0.5;-0.240234;0.009766;0.981934;0.49;-1.96;1.54;45.0;0.0;0.0
2.06;5.75;4.25;5.75;5.5;1.75;1.5;0.0;1.0;2.25;3.25;5.0;4.75;3.25;6.0;0.5;2.25;-0.240234;0.05127;0.969727;-2.38;1.19;-0.63;450.0;-0.017082;-0.067144;0.25;0.75;0.5;0.25;0.0;0.0;0.0;0.0;0.0;0.25;0.5;0.25;0.25;2.25;0.0;0.25;-0.236328;0.006348;0.976562;0.35;-1.89;1.61;43.0;0.0;0.0
2.07;5.75;4.5;5.75;5.5;1.75;2.0;0.0;1.25;2.5;3.25;5.0;5.0;3.5;5.75;0.75;1.5;-0.233398;0.05957;0.965332;-2.31;1.05;-0.56;463.0;-0.019039;-0.071629;0.25;0.75;0.5;0.25;0.0;0.0;0.0;0.0;0.0;0.0;0.5;1.0;0.5;2.25;0.0;0.0;-0.237793;0.012695;0.996094;0.42;-1.89;1.61;48.0;0.0;0.0
2.08;5.75;4.0;5.5;5.75;2.0;2.0;0.0;0.75;2.5;3.5;4.5;5.0;3.5;6.0;0.25;1.75;-0.239746;0.054688;0.969238;-2.24;1.05;-0.49;451.0;-0.019013;-0.065688;0.5;0.75;0.5;0.25;0.0;0.25;0.0;0.25;0.0;0.0;0.5;0.5;1.0;2.75;0.0;0.25;-0.237305;0.019043;0.976074;0.28;-1.75;1.61;60.0;0.088427;-0.075861
2.09;5.5;4.0;5.5;5.25;2.0;2.0;0.0;0.75;2.25;4.0;4.75;5.0;3.5;6.0;0.0;2.0;-0.23584;0.052734;0.96582;-2.17;1.12;-0.56;447.0;-0.0135;-0.06652;0.5;0.75;0.5;0.25;0.0;0.0;0.0;0.25;0.0;0.25;0.75;0.5;0.75;2.75;0.0;0.0;-0.227539;0.022949;0.955566;0.35;-1.47;1.61;59.0;0.100711;-0.047791
2.1;5.5;4.0;5.5;5.25;2.0;1.5;0.0;0.75;2.25;3.0;4.5;5.0;3.5;5.75;0.25;1.75;-0.236328;0.055176;0.962891;-2.24;1.12;-0.49;431.0;-0.018981;-0.067161;0.5;1.0;0.75;0.5;0.0;0.0;0.0;0.0;0.0;0.25;0.75;0.5;0.5;2.75;0.0;0.0;-0.227051;0.01709;0.97998;0.07;-1.68;1.54;60.0;0.058993;-0.02221
2.11;5.5;4.25;5.75;5.25;2.0;1.5;0.0;0.75;2.75;2.75;4.0;5.0;3.25;5.75;0.5;1.75;-0.23877;0.056641;0.963867;-2.24;1.19;-0.42;435.0;-0.020987;-0.061033;0.5;1.0;0.5;0.5;0.0;0.25;0.0;0.0;0.0;0.0;0.75;0.75;0.5;2.75;0.0;0.25;-0.238281;0.000488;0.977051;-0.28;-1.61;1.12;61.0;0.068064;-0.054141
2.12;5.0;4.0;5.5;5.0;1.75;1.25;0.0;1.0;2.75;2.75;3.75;4.75;3.25;5.75;0.25;1.75;-0.237305;0.055664;0.964844;-2.17;0.98;-0.42;416.0;-0.015771;-0.062653;0.75;1.0;0.5;0.5;0.25;0.25;0.0;0.25;0.0;0.0;1.0;1.25;1.0;3.0;0.0;0.25;-0.239746;0.033203;0.983398;-0.28;-1.47;1.26;81.0;0.070946;-0.087933
2.13;5.5;3.75;5.75;4.75;1.75;1.5;0.0;0.75;1.75;2.5;3.75;4.75;3.25;5.75;0.25;1.75;-0.23291;0.056641;0.956543;-2.1;1.12;-0.56;404.0;-0.027464;-0.066932;0.75;1.0;0.25;0.5;0.25;0.25;0.0;0.25;0.0;0.25;0.75;1.25;1.0;3.25;0.0;0.0;-0.240723;-0.001465;0.971191;-0.7;-1.47;1.19;79.0;0.084778;-0.078955
2.14;5.5;4.0;5.5;4.75;1.75;1.5;0.0;0.75;1.75;2.75;3.75;4.75;2.75;5.75;0.25;1.75;-0.23584;0.057129;0.960938;-2.24;1.19;-0.63;402.0;-0.02829;-0.064006;0.75;1.0;0.25;0.5;0.25;0.0;0.0;0.25;0.25;0.25;0.5;1.0;1.0;3.25;0.25;0.25;-0.242188;0.01123;0.983887;-0.63;-1.47;1.12;79.0;0.103313;-0.057457
2.15;5.5;3.75;5.5;5.0;1.75;1.5;0.0;0.75;2.25;3.5;4.5;4.75;3.0;5.75;0.0;1.75;-0.237793;0.058105;0.965332;-2.31;1.12;-0.56;421.0;-0.017517;-0.060478;0.75;0.75;0.5;0.5;0.25;0.0;0.0;0.25;0.25;0.0;1.0;1.0;1.0;3.25;0.0;0.0;-0.236328;0.007324;0.972656;-0.77;-1.68;0.98;78.0;0.095733;-0.052582
2.16;5.75;3.75;5.5;5.25;1.75;1.5;0.0;0.75;2.25;2.75;4.0;4.75;3.25;5.75;0.5;1.75;-0.239258;0.057617;0.960938;-2.31;1.05;-0.63;421.0;-0.022222;-0.063834;0.75;0.75;0.75;0.75;0.25;0.0;0.0;0.25;0.25;0.0;1.0;1.25;1.0;3.5;0.0;0.0;-0.23291;0.006836;0.987305;-1.05;-1.75;0.91;87.0;0.085242;-0.05476
2.17;5.5;4.0;5.25;5.25;2.0;1.25;0.0;0.75;2.5;2.75;4.0;4.75;3.0;5.75;0.25;1.75;-0.23584;0.053711;0.965332;-2.38;1.12;-0.63;417.0;-0.021856;-0.06016;0.75;1.0;0.75;0.5;0.0;0.25;0.0;0.5;0.25;0.25;1.0;1.75;1.25;3.25;0.0;0.25;-0.231934;0.020508;0.98877;-1.12;-1.82;0.98;97.0;0.088169;-0.09513
2.18;5.25;3.75;5.25;4.75;1.5;1.25;0.0;0.75;2.5;3.25;4.0;4.25;2.75;5.75;0.25;1.75;-0.239746;0.057617;0.955566;-2.38;1.05;-0.7;402.0;-0.014252;-0.054303;0.75;1.0;0.75;0.25;0.0;0.25;0.0;0.5;0.25;0.25;1.25;1.25;1.25;3.25;0.0;0.25;-0.23584;0.027832;0.974121;-1.19;-1.75;0.98;93.0;0.095038;-0.082854
2.19;5.25;3.75;4.75;4.75;1.25;1.5;0.0;0.75;3.25;3.5;4.0;4.25;3.0;5.75;0.25;1.75;-0.240723;0.055664;0.962402;-2.24;1.05;-0.7;409.0;-0.003915;-0.052408;0.75;1.25;0.75;0.0;0.25;0.25;0.0;0.0;0.0;0.25;1.25;1.25;1.25;3.5;0.0;0.25;-0.233887;0.011719;0.973633;-1.12;-1.75;1.05;87.0;0.097298;-0.060522
2.2;5.25;4.0;5.25;4.75;1.5;1.25;0.0;0.75;2.5;2.75;4.0;4.75;3.0;5.75;0.0;1.75;-0.233887;0.052246;0.958984;-2.17;1.12;-0.56;403.0;-0.017966;-0.060457;0.75;1.25;0.75;0.25;0.25;0.0;0.0;0.25;0.25;0.5;1.5;1.25;1.0;4.0;0.0;0.0;-0.23291;0.016113;0.96582;-1.19;-1.82;0.98;98.0;0.108119;-0.040161
2.21;5.25;3.0;5.25;4.75;1.5;1.25;0.0;0.75;2.0;2.75;3.75;4.0;2.75;5.75;0.0;2.0;-0.244629;0.061035;0.961426;-2.17;1.05;-0.56;381.0;-0.018958;-0.057551;1.0;1.25;0.75;0.5;0.25;0.0;0.0;0.25;0.25;0.5;1.0;1.25;0.75;4.0;0.0;0.25;-0.241211;0.020508;0.969727;-1.4;-1.82;0.98;98.0;0.083971;-0.033084
2.22;4.5;3.5;5.0;4.25;1.75;1.25;0.0;0.75;2.0;3.0;3.75;4.25;3.0;6.0;0.25;2.0;-0.240234;0.060059;0.960938;-2.17;1.05;-0.77;384.0;-0.004199;-0.061299;1.0;1.5;1.75;0.5;0.25;0.0;0.0;0.25;0.25;0.0;0.75;1.25;1.0;4.25;0.0;0.0;-0.235352;0.018066;0.97998;-1.33;-1.96;1.05;105.0;0.038233;-0.027744
2.23;4.5;3.5;5.0;3.75;2.0;1.25;0.0;0.75;2.25;3.25;4.0;4.75;3.0;6.0;0.5;2.25;-0.241699;0.053223;0.965332;-2.17;1.12;-0.63;396.0;0.008522;-0.059447;1.0;1.0;1.25;0.75;0.0;0.0;0.0;0.25;0.25;0.0;1.0;1.25;1.0;4.5;0.0;0.0;-0.231445;0.006348;0.969238;-1.12;-2.03;1.05;100.0;0.076941;-0.032698
2.24;4.0;3.25;5.0;3.75;1.5;1.25;0.0;0.75;2.25;3.25;4.0;4.0;2.75;6.0;0.75;2.0;-0.239746;0.053223;0.965332;-2.17;0.98;-0.63;378.0;0.014025;-0.055569;0.75;1.0;1.0;1.0;0.0;0.0;0.0;0.5;0.25;0.25;1.0;1.25;1.0;3.75;0.0;0.25;-0.239746;0.009766;0.966309;-1.05;-1.82;1.26;99.0;0.072863;-0.067149
2.25;5.5;3.75;5.0;3.75;1.5;1.25;0.0;1.0;2.25;3.0;4.0;4.0;2.75;6.0;0.25;1.75;-0.241211;0.055664;0.968262;-2.17;1.12;-0.63;390.0;-0.01108;-0.053528;1.0;1.0;1.0;0.5;0.25;0.0;0.0;0.5;0.25;0.25;1.25;1.75;1.0;4.0;0.0;0.25;-0.239746;-0.015625;0.947754;-0.98;-1.68;1.26;107.0;0.088758;-0.060423
2.26;5.25;3.5;4.75;4.0;1.5;1.25;0.0;1.0;2.0;2.75;3.75;4.25;2.75;5.75;0.0;1.5;-0.23877;0.056641;0.964355;-2.1;0.98;-0.49;376.0;-0.015967;-0.060086;1.25;1.0;1.25;0.5;0.25;0.25;0.0;0.5;0.25;0.25;1.5;1.75;1.25;4.25;0.0;0.5;-0.235352;0.012207;0.985352;-0.84;-1.75;1.19;121.0;0.079671;-0.064456
2.27;4.0;3.25;5.0;4.0;1.5;1.25;0.0;0.75;2.5;3.0;3.75;4.25;2.5;6.0;0.25;1.5;-0.237793;0.055664;0.960938;-2.1;1.05;-0.49;372.0;0.004945;-0.052046;1.25;1.5;1.25;0.75;0.0;0.5;0.0;0.5;0.25;0.5;1.0;1.75;1.75;4.0;0.25;0.25;-0.228516;0.006836;0.98291;-0.84;-1.68;1.26;128.0;0.056547;-0.085254
2.28;5.25;3.25;4.5;4.0;1.5;1.25;0.0;1.0;2.25;3.25;3.5;4.0;2.75;5.75;0.5;1.75;-0.232422;0.053223;0.96582;-2.31;0.98;-0.56;380.0;-0.004128;-0.055968;1.0;1.0;0.75;0.75;0.0;0.25;0.0;0.5;0.5;0.5;1.0;1.75;1.25;4.0;0.0;0.5;-0.236328;0.013672;0.974609;-0.7;-1.47;1.4;113.0;0.09632;-0.071106
2.29;5.0;3.75;4.75;3.75;1.5;1.25;0.0;0.75;2.0;2.25;3.75;4.0;3.0;5.75;0.25;1.5;-0.234863;0.051758;0.963379;-2.38;1.19;-0.56;368.0;-0.015024;-0.05993;1.0;1.25;1.25;0.75;0.25;0.25;0.0;0.5;0.5;0.25;1.25;1.75;1.25;4.0;0.0;0.75;-0.239258;0.01123;0.98584;-0.63;-1.4;1.47;123.0;0.072654;-0.069474
2.3;4.0;3.25;4.75;4.0;1.5;1.25;0.0;0.75;2.75;2.5;4.0;3.75;2.75;5.75;0.5;1.5;-0.240723;0.056641;0.956543;-2.17;0.98;-0.56;368.0;0.005885;-0.052682;1.0;1.5;1.5;0.75;0.25;0.5;0.0;0.5;0.25;0.25;1.25;1.75;1.75;4.0;0.0;0.5;-0.235352;0.012207;0.977539;-0.63;-1.54;1.47;129.0;0.051651;-0.087849
2.31;3.75;3.5;4.5;3.75;1.75;1.25;0.0;0.75;2.25;2.75;3.75;4.0;2.25;5.75;0.25;1.5;-0.240234;0.05127;0.963379;-2.45;0.98;-0.56;357.0;0.002216;-0.054399;1.0;1.5;1.25;1.0;0.25;0.25;0.0;0.5;0.25;0.25;1.0;1.75;1.75;4.25;0.0;0.5;-0.234863;0.005859;0.97998;-0.77;-1.4;1.33;127.0;0.057108;-0.086037
2.32;4.0;3.0;4.5;3.75;1.5;1.25;0.0;0.75;1.75;3.0;3.75;4.0;2.25;5.75;0.5;1.5;-0.237793;0.056152;0.963379;-2.31;0.98;-0.56;352.0;0.005206;-0.057491;1.0;1.25;1.75;1.0;0.25;0.25;0.0;0.25;0.5;0.5;1.25;1.75;1.25;4.0;0.0;0.25;-0.233398;0.010742;0.978027;-0.77;-1.33;1.26;127.0;0.053493;-0.051658
2.33;4.5;3.0;4.75;3.75;1.5;1.25;0.0;0.5;1.75;2.75;3.75;4.0;2.25;6.0;0.75;1.75;-0.239746;0.054688;0.964844;-2.38;1.05;-0.56;358.0;0.002888;-0.052086;1.0;1.75;1.25;1.25;0.25;0.25;0.0;0.5;0.75;0.75;1.0;2.25;1.25;4.0;0.0;0.25;-0.236328;0.012695;0.978027;-0.7;-1.47;1.4;139.0;0.053179;-0.06876
2.34;4.5;3.25;4.5;3.25;1.25;0.75;0.0;0.25;1.75;2.5;3.75;4.0;2.25;6.0;0.5;1.25;-0.244141;0.053223;0.966309;-2.38;1.12;-0.56;336.0;0.002795;-0.044707;1.0;1.75;1.75;1.25;0.25;0.5;0.0;0.25;0.5;0.75;1.25;2.25;1.75;4.25;0.0;0.5;-0.23877;0.01709;0.96875;-0.63;-1.47;1.26;148.0;0.049789;-0.075654
2.35;4.0;3.0;4.5;3.25;1.5;0.75;0.0;0.25;2.0;2.5;4.0;4.0;2.5;6.0;0.25;1.25;-0.234863;0.050781;0.965332;-2.24;1.12;-0.49;337.0;0.011297;-0.045159;1.25;1.5;1.5;2.0;0.25;0.75;0.0;0.25;0.5;0.25;1.25;2.5;1.75;4.25;0.0;0.25;-0.223145;0.003906;0.968262;-0.7;-1.47;1.26;152.0;0.030309;-0.089503
2.36;4.0;2.75;4.0;3.25;1.5;1.0;0.0;0.5;2.0;2.75;3.25;4.25;2.5;5.75;0.25;1.25;-0.236328;0.050781;0.961426;-2.31;1.19;-0.63;332.0;0.012723;-0.051988;1.0;1.75;1.5;2.25;0.25;0.75;0.0;0.5;0.5;0.25;1.0;1.75;2.0;4.5;0.0;0.5;-0.236816;0.007324;0.97998;-0.7;-1.54;1.12;153.0;0.023319;-0.095284
2.37;4.0;3.0;4.0;3.0;1.25;0.75;0.0;0.25;2.5;2.75;3.0;4.0;2.25;5.75;0.25;1.25;-0.243652;0.056152;0.957031;-2.24;1.26;-0.56;323.0;0.015147;-0.037379;1.0;1.5;1.25;1.5;0.5;1.0;0.0;0.5;0.0;0.5;1.25;1.75;2.25;4.25;0.25;0.5;-0.229492;0.014648;0.975586;-0.77;-1.54;1.19;148.0;0.043482;-0.110843
2.38;3.5;3.0;4.0;2.75;1.25;0.75;0.0;0.5;2.5;2.75;3.25;4.0;2.25;6.0;0.0;1.5;-0.242676;0.054688;0.95752;-2.17;1.33;-0.56;322.0;0.024825;-0.041518;1.0;1.75;1.75;1.5;0.5;1.0;0.0;0.75;0.25;0.75;1.5;1.75;2.5;4.0;0.0;0.25;-0.236816;0.01123;0.98291;-0.84;-1.61;1.19;162.0;0.026802;-0.108564
2.39;3.75;2.75;3.5;2.75;1.25;0.75;0.0;0.25;2.5;2.75;3.5;4.0;2.25;6.0;0.25;1.0;-0.241211;0.04834;0.964844;-2.1;1.4;-0.63;317.0;0.030877;-0.036976;1.25;1.0;2.25;1.75;0.5;0.75;0.0;0.75;0.75;0.25;1.25;2.5;2.5;4.25;0.0;0.5;-0.236816;0.015625;0.981445;-0.63;-1.61;1.26;171.0;0.039139;-0.095495
2.4;3.25;2.75;3.5;2.75;1.25;0.5;0.0;0.25;2.25;2.75;3.75;3.5;2.25;5.75;0.25;1.0;-0.236816;0.056641;0.955078;-2.1;1.33;-0.56;303.0;0.032989;-0.038168;1.0;2.0;2.25;1.75;0.25;0.75;0.0;0.75;0.25;0.25;1.25;1.75;2.5;4.5;0.0;0.75;-0.232422;0.010254;0.975098;-0.49;-1.47;1.26;165.0;0.018302;-0.106438
2.41;3.25;2.75;4.0;2.75;1.25;0.25;0.0;0.25;2.5;2.5;3.0;4.0;1.75;6.0;0.5;1.0;-0.239258;0.055176;0.963379;-2.1;1.4;-0.49;305.0;0.032001;-0.028387;1.0;2.0;2.25;1.75;0.5;1.0;0.0;1.0;0.25;0.5;1.75;1.75;2.5;4.5;0.0;0.75;-0.237305;0.010742;0.970703;-0.35;-1.47;1.33;180.0;0.021526;-0.109621
2.42;2.75;2.75;3.25;2.5;1.25;0.5;0.0;0.25;1.75;2.5;3.0;4.0;2.25;5.75;0.75;1.0;-0.242676;0.048828;0.973633;-2.03;1.4;-0.56;289.0;0.042713;-0.04945;1.25;1.75;2.25;1.5;0.25;1.0;0.0;1.0;0.25;0.75;1.5;2.25;2.5;4.5;0.0;0.75;-0.23877;0.016602;0.97998;-0.28;-1.4;1.4;180.0;0.03167;-0.109486
2.43;2.75;2.0;3.25;2.75;1.25;0.5;0.0;0.25;2.0;2.5;2.75;3.75;1.75;5.75;0.75;1.25;-0.240723;0.04834;0.958496;-1.89;1.26;-0.42;281.0;0.048432;-0.038589;1.75;1.75;1.25;1.5;0.25;1.0;0.0;1.0;0.25;1.0;1.5;2.5;2.5;4.5;0.25;0.75;-0.23291;0.013184;0.976074;-0.28;-1.4;1.47;181.0;0.045862;-0.114371
2.44;3.0;2.25;2.75;2.25;1.25;0.75;0.0;0.5;2.25;2.5;3.75;3.75;2.25;6.0;1.0;1.25;-0.236328;0.056641;0.958496;-1.89;1.33;-0.49;301.0;0.063406;-0.046586;1.5;1.75;1.5;1.5;0.5;1.0;0.0;1.0;0.5;1.25;1.75;2.25;2.75;4.75;0.25;1.0;-0.231934;0.009766;0.976074;-0.14;-1.4;1.54;193.0;0.056899;-0.104528
2.45;3.0;2.0;2.75;2.25;1.25;0.75;0.0;0.25;2.5;2.5;3.5;3.75;2.25;6.0;0.5;1.5;-0.242676;0.055176;0.966797;-1.89;1.33;-0.42;293.0;0.063919;-0.039047;1.25;2.0;1.75;1.5;0.75;1.0;0.0;1.0;0.5;0.5;1.75;2.5;3.0;4.75;0.25;1.0;-0.24707;0.016113;0.978516;0.07;-1.26;1.4;195.0;0.047958;-0.114382
2.46;2.75;2.0;3.0;2.25;1.25;0.5;0.0;0.25;2.25;2.5;3.5;4.0;1.75;6.0;0.5;1.25;-0.245605;0.055664;0.958496;-1.75;1.19;-0.42;286.0;0.063208;-0.035715;1.5;2.0;1.5;1.75;0.75;1.0;0.0;1.25;0.5;0.25;1.75;2.5;3.0;4.5;0.0;0.75;-0.23291;0.011719;0.970215;-0.0;-1.26;1.54;193.0;0.030187;-0.124123
2.47;3.5;2.75;3.0;2.5;1.0;0.5;0.0;0.25;2.0;2.75;3.5;3.75;1.75;5.75;0.25;1.5;-0.243164;0.053711;0.960449;-1.82;1.26;-0.42;292.0;0.036921;-0.039568;2.25;2.0;1.75;2.0;0.75;1.25;0.0;1.0;0.5;0.25;2.0;3.0;3.5;3.5;0.0;1.0;-0.234375;0.015137;0.975098;0.07;-1.19;1.47;208.0;0.005374;-0.134055
2.48;2.5;2.25;2.75;2.25;1.0;0.5;0.0;0.25;2.0;2.75;3.75;3.5;1.75;5.75;0.25;0.75;-0.23877;0.053711;0.958496;-1.68;1.19;-0.56;272.0;0.058768;-0.037114;1.5;1.75;1.75;2.0;0.5;1.75;0.0;1.0;0.25;0.25;2.5;3.25;3.0;3.75;0.0;0.75;-0.233887;0.014648;0.97168;-0.07;-1.12;1.4;202.0;0.022652;-0.144068
2.49;3.0;2.0;2.75;2.25;1.0;0.75;0.0;0.25;2.25;2.75;3.25;3.25;1.75;5.75;0.5;0.75;-0.242188;0.051758;0.962402;-1.75;1.26;-0.49;275.0;0.053984;-0.029783;1.5;2.0;1.75;2.0;0.5;1.25;0.0;1.75;0.25;0.5;2.0;2.75;2.75;4.0;0.0;0.75;-0.244629;0.016113;0.977051;-0.14;-1.12;1.47;203.0;0.016787;-0.142401
2.5;3.25;2.25;3.0;2.5;1.0;0.75;0.0;0.25;2.25;2.75;2.75;3.75;1.75;5.75;0.5;1.0;-0.246582;0.057129;0.965332;-1.68;1.26;-0.49;285.0;0.042918;-0.034192;1.25;2.25;1.75;2.0;0.5;1.25;0.0;1.75;0.5;0.75;2.25;3.0;3.25;4.0;0.0;1.0;-0.233398;0.013672;0.974121;-0.14;-1.19;1.47;216.0;0.030893;-0.145391
2.51;2.75;2.0;2.75;1.75;1.0;0.5;0.0;0.25;2.25;2.75;3.75;3.25;1.75;5.5;0.25;1.25;-0.243652;0.053711;0.957031;-1.61;1.12;-0.49;268.0;0.065371;-0.030288;1.5;2.25;1.75;2.0;0.5;1.0;0.0;1.75;0.25;1.0;2.5;2.75;3.25;4.0;0.0;0.75;-0.22998;0.018066;0.973145;-0.35;-1.12;1.4;215.0;0.026117;-0.141967
2.52;2.75;2.0;2.75;2.25;1.0;0.5;0.0;0.25;1.75;2.75;3.25;3.5;2.25;5.75;0.25;1.25;-0.23877;0.052734;0.96582;-1.75;1.4;-0.42;271.0;0.0578;-0.045001;1.5;2.25;1.75;2.0;0.75;1.0;0.0;1.75;0.5;0.75;2.75;2.5;3.5;4.0;0.0;0.75;-0.23291;0.015137;0.975098;-0.35;-1.19;1.33;219.0;0.026645;-0.137552
2.53;2.75;1.75;2.75;2.25;1.0;0.5;0.0;0.0;1.75;2.75;3.25;3.75;1.75;5.75;0.25;1.25;-0.242188;0.049316;0.956055;-1.75;1.26;-0.56;264.0;0.061797;-0.036256;1.25;2.0;2.25;2.0;0.5;1.25;0.0;1.75;0.25;0.25;2.5;3.25;3.5;4.75;0.25;1.0;-0.232422;0.016602;0.974609;-0.42;-1.05;1.33;226.0;0.039326;-0.144928
2.54;2.75;1.5;2.75;2.25;1.0;0.5;0.0;0.0;1.75;2.75;3.0;3.25;2.25;5.75;0.5;1.25;-0.249512;0.049805;0.960938;-1.75;1.19;-0.42;262.0;0.06592;-0.036607;1.25;1.75;2.25;2.25;0.5;1.75;0.0;1.75;0.0;0.25;2.5;3.25;3.5;4.25;0.25;1.0;-0.229492;0.011719;0.972168;-0.42;-1.26;1.4;225.0;0.027405;-0.158415
2.55;2.75;1.25;2.5;1.75;1.0;0.5;0.0;0.0;1.75;2.75;3.0;3.5;1.5;6.0;0.25;1.5;-0.244141;0.055176;0.963379;-1.82;1.19;-0.42;250.0;0.078986;-0.025597;2.25;1.5;2.25;2.25;0.5;1.75;0.0;2.0;0.5;0.5;2.75;3.25;3.75;4.25;0.0;1.0;-0.237793;0.011719;0.979492;-0.35;-1.12;1.33;244.0;0.021541;-0.142796
2.56;3.0;1.75;2.5;1.25;1.0;0.5;0.0;0.0;2.0;3.0;3.25;3.0;1.5;6.0;0.25;1.25;-0.24707;0.059082;0.962402;-1.75;1.19;-0.49;253.0;0.075035;-0.013712;1.5;1.75;2.25;2.25;0.5;1.25;0.0;1.75;0.5;0.75;2.75;3.25;3.75;4.25;0.0;1.0;-0.235352;0.01123;0.98584;-0.49;-1.19;1.33;234.0;0.035618;-0.142139
2.57;3.0;2.75;2.75;1.25;1.0;0.5;0.0;0.25;1.75;2.75;3.5;4.0;1.75;5.75;0.5;1.25;-0.248535;0.053223;0.965332;-1.82;1.05;-0.42;275.0;0.060817;-0.039653;1.5;2.0;2.25;1.75;0.25;1.25;0.0;2.0;0.5;0.5;2.75;3.0;3.5;4.25;0.0;1.0;-0.23584;0.016602;0.972168;-0.49;-1.19;1.26;226.0;0.034546;-0.144137
2.58;2.5;2.0;2.5;1.5;1.0;0.25;0.0;0.0;1.5;2.75;3.0;3.75;1.75;5.75;0.25;1.0;-0.241211;0.056641;0.960449;-1.82;1.12;-0.49;246.0;0.071982;-0.033732;0.75;1.75;1.75;2.0;0.25;1.75;0.0;2.0;0.5;0.75;2.75;3.0;3.75;4.5;0.25;1.0;-0.230469;0.005859;0.975098;-0.56;-1.26;1.4;228.0;0.059705;-0.156793
2.59;3.0;1.75;2.5;1.75;1.0;0.25;0.0;0.0;1.5;2.75;2.75;3.5;1.75;5.75;0.75;1.0;-0.25;0.058105;0.95459;-1.82;0.84;-0.42;251.0;0.06763;-0.029836;1.25;1.5;2.25;2.0;0.25;1.75;0.0;1.75;0.5;0.75;2.75;3.25;3.75;4.5;0.25;1.0;-0.234863;0.015137;0.978516;-0.63;-1.19;1.26;234.0;0.050921;-0.144983
2.6;2.25;1.75;2.0;1.75;0.75;0.25;0.0;0.25;1.75;2.75;3.0;3.5;2.25;5.25;0.25;1.25;-0.246582;0.057129;0.962891;-1.82;1.05;-0.49;243.0;0.082616;-0.048782;1.25;1.75;2.5;2.0;0.25;1.75;0.0;2.0;0.5;0.75;2.75;3.25;3.75;4.25;0.0;1.0;-0.233398;0.018066;0.977539;-0.7;-1.33;1.33;237.0;0.037096;-0.149178
2.61;3.0;1.5;1.75;2.25;0.5;0.25;0.0;0.25;1.75;2.75;2.75;3.25;1.5;5.75;0.0;1.25;-0.245117;0.05957;0.967285;-1.82;0.98;-0.49;239.0;0.069157;-0.0332;1.25;2.75;2.25;2.25;0.5;2.0;0.0;2.0;0.25;0.75;3.0;3.25;3.75;4.25;0.0;1.25;-0.236816;0.016602;0.976562;-0.63;-1.26;1.26;250.0;0.020495;-0.156919
2.62;2.25;1.5;2.0;1.5;0.75;0.25;0.0;0.25;1.5;2.75;2.75;3.0;1.75;5.75;0.5;1.25;-0.245605;0.052734;0.961914;-1.82;0.98;-0.42;231.0;0.091493;-0.03478;1.25;2.0;1.75;2.0;0.5;1.25;0.0;2.0;0.5;0.75;2.5;3.25;3.75;4.75;0.0;1.25;-0.227051;0.024902;0.975098;-0.63;-1.19;1.19;232.0;0.050179;-0.148093
2.63;2.0;1.75;2.5;1.5;0.75;0.5;0.0;0.0;1.5;2.75;2.75;2.75;2.25;5.75;0.25;1.0;-0.242188;0.053223;0.955566;-1.75;0.91;-0.42;233.0;0.079559;-0.034595;1.5;1.75;2.25;2.0;0.25;1.25;0.0;2.25;0.5;1.0;2.75;3.5;3.75;4.5;0.25;1.0;-0.238281;0.01416;0.974121;-0.77;-1.4;1.33;244.0;0.048459;-0.14644
2.64;2.25;1.75;2.0;1.5;0.5;0.5;0.0;0.0;1.75;2.75;2.25;3.5;1.75;5.75;0.0;1.0;-0.242188;0.049316;0.964844;-1.75;0.77;-0.42;227.0;0.082514;-0.031707;1.5;2.5;2.25;2.0;0.25;1.25;0.0;2.0;0.5;1.0;2.75;3.25;3.75;4.5;0.25;1.0;-0.234863;0.016113;0.977539;-0.77;-1.33;1.26;244.0;0.036823;-0.142369
2.65;2.5;1.75;2.0;1.5;0.5;0.5;0.0;0.0;1.5;2.5;1.75;3.25;1.5;5.75;0.25;1.25;-0.241699;0.056641;0.962402;-1.89;0.91;-0.42;219.0;0.073854;-0.029132;1.5;2.0;2.25;2.25;0.5;1.75;0.0;2.0;0.75;1.25;2.75;3.25;3.75;4.75;0.25;1.5;-0.231934;0.012207;0.978027;-0.84;-1.4;1.26;259.0;0.045431;-0.136388
2.66;2.5;1.75;1.75;1.5;0.75;0.5;0.0;0.0;1.5;2.5;2.75;3.0;1.5;5.75;0.25;1.0;-0.243164;0.054688;0.959473;-1.96;0.91;-0.49;225.0;0.07851;-0.028748;1.5;2.0;2.25;2.5;0.25;1.75;0.0;2.0;0.75;1.25;3.0;3.25;3.75;4.75;0.25;1.25;-0.23584;0.01416;0.973633;-0.77;-1.26;1.26;260.0;0.044133;-0.137965
2.67;2.25;1.5;2.0;1.75;0.75;0.25;0.0;0.0;1.5;2.5;2.75;3.5;1.75;5.75;0.5;0.75;-0.244629;0.053223;0.959961;-1.75;0.77;-0.35;230.0;0.087293;-0.03491;1.5;2.0;2.5;2.5;0.25;1.75;0.0;2.0;0.25;1.5;2.75;3.5;3.25;4.25;0.0;1.0;-0.225586;0.01416;0.976074;-0.84;-1.33;1.26;248.0;0.026225;-0.144205
2.68;2.25;1.5;1.75;1.5;0.75;0.5;0.0;0.0;1.5;3.25;3.0;3.0;1.75;5.75;0.5;1.0;-0.241211;0.053223;0.959473;-1.82;0.84;-0.42;233.0;0.096833;-0.031031;1.25;1.75;2.5;2.25;0.5;2.0;0.0;2.0;0.25;1.75;3.0;3.25;3.75;4.75;0.0;1.0;-0.23584;0.015625;0.971191;-0.84;-1.33;1.19;256.0;0.042499;-0.141489
2.69;2.25;1.75;1.75;1.5;1.0;0.25;0.0;0.0;1.5;2.5;3.0;3.75;2.25;5.75;0.25;1.0;-0.242188;0.053711;0.961426;-1.89;0.84;-0.49;237.0;0.090256;-0.045132;1.0;1.75;1.75;2.0;0.25;1.75;0.0;2.25;0.5;1.0;3.0;3.25;3.75;4.25;0.25;1.25;-0.23291;0.01416;0.975098;-0.84;-1.33;1.12;239.0;0.057885;-0.159665
2.7;2.5;1.75;2.0;1.75;0.75;0.25;0.0;0.25;1.5;2.25;2.75;3.75;2.25;5.75;0.0;1.0;-0.236328;0.053223;0.959961;-1.75;0.91;-0.49;238.0;0.073753;-0.049805;2.5;2.0;1.75;2.25;0.5;1.75;0.0;2.0;0.5;1.0;3.0;3.25;3.75;4.0;0.25;1.25;-0.233398;0.009766;0.975098;-0.91;-1.4;1.26;253.0;0.024222;-0.144005
2.71;3.0;1.75;1.75;1.75;0.5;0.0;0.0;0.0;1.5;2.5;3.25;4.0;1.75;5.5;0.25;1.0;-0.24707;0.055176;0.958984;-1.96;0.91;-0.56;238.0;0.07829;-0.040763;2.5;1.75;2.5;2.25;0.5;2.0;0.0;2.5;0.75;1.0;2.75;3.25;4.0;4.25;0.25;1.5;-0.234375;0.009277;0.971191;-0.77;-1.4;1.26;272.0;0.023212;-0.141464
2.72;2.25;1.75;1.75;1.75;0.75;0.0;0.0;0.0;1.5;2.0;3.25;3.75;1.75;5.75;0.0;0.5;-0.245605;0.053223;0.957031;-1.82;0.63;-0.49;224.0;0.082272;-0.038628;1.25;2.25;2.5;2.5;0.5;1.75;0.0;2.25;0.75;0.75;2.75;3.25;4.0;4.25;0.0;1.5;-0.237793;0.016602;0.972656;-0.91;-1.4;1.33;258.0;0.028637;-0.15108
2.73;2.0;1.75;2.5;1.75;0.75;0.25;0.0;0.0;1.25;2.0;2.75;3.5;2.25;5.75;0.0;0.5;-0.240234;0.052734;0.957031;-2.1;0.77;-0.49;226.0;0.06905;-0.045096;1.25;1.75;2.5;2.75;0.75;1.75;0.0;1.75;0.5;1.0;3.0;3.25;3.75;4.5;0.25;1.0;-0.239258;0.012207;0.974121;-0.91;-1.54;1.05;254.0;0.035232;-0.139378
2.74;2.75;1.25;2.5;1.5;0.5;0.25;0.0;0.0;1.25;2.0;2.75;3.5;1.5;5.75;0.25;1.0;-0.244629;0.057129;0.958008;-1.89;0.56;-0.42;223.0;0.073217;-0.030592;1.5;2.0;2.5;2.5;0.5;1.75;0.0;1.75;0.5;1.25;3.0;3.25;4.25;4.75;0.0;1.25;-0.236816;0.012207;0.978516;-1.12;-1.61;1.12;260.0;0.036979;-0.140448
2.75;2.5;1.5;2.0;1.5;0.5;0.0;0.0;0.0;1.5;2.0;2.75;3.5;1.5;5.5;0.25;0.75;-0.248047;0.055664;0.958008;-2.03;0.56;-0.56;215.0;0.081347;-0.029593;1.75;1.75;2.75;2.5;0.5;2.0;0.0;2.25;0.5;1.25;3.5;4.0;4.0;4.75;0.0;1.5;-0.23291;0.012695;0.972656;-0.84;-1.54;1.26;281.0;0.038955;-0.145069
2.76;2.25;1.75;2.0;1.5;0.75;0.0;0.0;0.25;1.25;2.25;2.75;3.5;1.5;5.75;0.25;0.5;-0.238281;0.050293;0.960938;-1.96;0.7;-0.49;221.0;0.078905;-0.036107;1.75;2.0;2.5;2.5;0.5;2.0;0.0;2.25;0.5;1.25;2.75;3.25;3.75;4.5;0.0;1.5;-0.233887;0.009766;0.972656;-0.98;-1.54;1.12;264.0;0.025998;-0.144241
2.77;2.75;1.25;2.0;1.75;0.25;0.25;0.0;0.0;1.25;2.5;3.0;3.25;1.5;5.75;0.0;0.5;-0.240723;0.055664;0.96582;-1.96;0.77;-0.42;218.0;0.075877;-0.028956;1.5;2.25;2.25;2.5;0.75;2.0;0.0;2.0;0.5;1.25;3.5;3.25;3.5;4.75;0.25;1.5;-0.234375;0.013184;0.975586;-0.7;-1.4;1.12;269.0;0.037586;-0.138281
2.78;2.0;1.5;2.0;1.75;0.25;0.0;0.0;0.25;1.25;2.75;3.0;3.25;1.75;5.75;0.0;0.75;-0.239746;0.054688;0.956543;-1.82;0.77;-0.42;219.0;0.090743;-0.041159;1.5;2.25;2.25;2.5;0.75;2.0;0.0;2.25;0.5;0.75;3.0;3.25;3.5;4.25;0.25;1.5;-0.235352;0.015137;0.973633;-0.77;-1.47;1.26;260.0;0.025249;-0.14948
2.79;2.25;1.25;2.5;1.5;0.5;0.0;0.0;0.25;1.25;2.0;2.75;3.5;1.25;5.75;0.0;1.0;-0.241699;0.054199;0.959961;-1.96;0.7;-0.42;215.0;0.079662;-0.031966;2.25;2.5;2.5;2.5;0.5;2.0;0.0;2.0;0.75;0.75;2.75;3.0;3.5;4.25;0.5;1.25;-0.233398;0.01416;0.973145;-0.63;-1.4;1.33;265.0;0.011681;-0.133494
2.8;2.5;1.0;2.5;1.5;0.5;0.25;0.0;0.25;1.0;1.25;2.5;3.5;1.5;5.75;0.0;1.0;-0.239746;0.052246;0.963867;-1.82;0.77;-0.42;208.0;0.068569;-0.041839;1.5;2.25;2.25;2.5;0.5;2.25;0.0;2.0;0.75;0.75;3.25;3.25;3.5;4.5;0.25;1.5;-0.233887;0.013672;0.978516;-0.63;-1.33;1.33;264.0;0.032177;-0.142562
2.81;2.5;1.25;1.75;1.75;0.5;0.25;0.0;0.0;1.25;1.25;2.75;3.5;1.5;5.75;0.0;1.0;-0.249512;0.055176;0.961426;-1.96;0.77;-0.42;207.0;0.076816;-0.040691;1.25;2.25;2.5;2.5;0.5;2.25;0.0;2.25;0.5;1.0;3.25;3.25;3.75;4.5;0.0;1.75;-0.224121;0.007812;0.98291;-0.7;-1.33;1.19;267.0;0.031211;-0.151548
2.82;2.5;1.5;1.75;1.75;0.5;0.0;0.0;0.0;1.5;1.5;2.75;3.25;1.5;5.75;0.0;1.25;-0.239746;0.054688;0.962402;-2.03;0.7;-0.42;211.0;0.078979;-0.032959;1.5;2.75;2.75;2.5;0.5;2.0;0.0;2.25;0.5;1.0;3.0;3.25;3.75;4.75;0.0;1.5;-0.233887;0.008301;0.975586;-0.91;-1.4;1.33;272.0;0.019958;-0.144033
2.83;2.75;1.75;2.0;1.75;0.5;0.25;0.0;0.0;1.25;1.75;2.25;3.25;1.5;5.75;0.25;0.75;-0.247559;0.053223;0.958984;-1.96;0.63;-0.35;214.0;0.060199;-0.032688;1.75;2.5;2.5;2.5;0.75;2.0;0.0;2.25;0.75;1.0;3.25;3.25;4.25;4.25;0.0;1.5;-0.234375;0.013672;0.977051;-0.77;-1.4;1.12;277.0;0.021754;-0.146175
2.84;2.0;1.75;2.0;1.75;0.75;0.25;0.0;0.25;1.5;1.75;2.75;3.0;1.25;4.75;0.0;0.5;-0.246582;0.058594;0.959473;-2.1;0.7;-0.49;206.0;0.057533;-0.037919;1.25;2.25;2.5;2.75;0.25;2.0;0.0;2.25;0.75;1.0;2.75;3.25;3.75;4.25;0.25;1.5;-0.234863;0.010742;0.974609;-0.7;-1.4;1.33;263.0;0.02962;-0.150107
2.85;2.5;1.5;2.0;2.25;0.5;0.25;0.0;0.0;1.75;2.0;2.25;3.0;1.25;5.75;0.0;0.75;-0.248047;0.051758;0.963379;-2.17;0.77;-0.49;216.0;0.06249;-0.021408;1.5;1.25;2.5;2.75;0.25;2.0;0.0;2.25;0.5;1.25;3.0;3.25;3.5;4.5;0.25;1.5;-0.22998;0.008301;0.978516;-0.77;-1.4;1.33;259.0;0.041964;-0.145388
2.86;3.25;1.75;2.0;1.75;0.5;0.25;0.0;0.0;1.5;2.25;2.5;3.25;1.5;5.75;0.25;1.0;-0.237793;0.056152;0.953125;-2.17;0.91;-0.49;229.0;0.060295;-0.026705;1.5;2.25;2.5;3.25;0.5;2.25;0.0;2.25;0.5;1.5;3.25;3.25;4.25;4.0;0.25;1.5;-0.23584;0.019043;0.975098;-0.77;-1.47;1.19;282.0;0.021898;-0.15503
2.87;2.25;1.5;1.75;1.25;0.5;0.25;0.0;0.25;1.5;2.25;3.0;3.0;1.75;5.75;0.5;1.0;-0.244629;0.052246;0.961914;-2.03;0.84;-0.49;221.0;0.098467;-0.036419;1.75;2.5;2.5;3.0;0.5;2.0;0.0;2.25;0.75;1.5;3.25;3.25;4.25;4.5;0.25;1.5;-0.233398;0.015625;0.972656;-0.63;-1.4;1.26;288.0;0.026709;-0.143403
2.88;2.0;1.5;1.5;1.5;0.5;0.0;0.0;0.0;1.0;2.25;3.0;3.5;1.75;5.75;0.25;1.25;-0.242676;0.052734;0.961426;-1.96;0.84;-0.49;211.0;0.104178;-0.047967;2.25;1.75;2.5;3.0;0.5;2.0;0.0;1.75;0.75;1.25;2.75;3.25;4.25;4.5;0.25;1.25;-0.237305;0.011719;0.973633;-0.7;-1.33;1.12;272.0;0.023858;-0.134492
2.89;1.25;2.0;1.75;1.5;0.75;0.0;0.0;0.0;1.0;2.0;2.75;3.5;1.5;5.75;0.0;1.25;-0.246094;0.056641;0.961914;-1.89;0.77;-0.56;205.0;0.097068;-0.048758;1.5;2.25;2.75;3.0;0.5;2.25;0.0;2.0;0.75;1.25;3.0;3.25;3.75;4.5;0.0;1.75;-0.237305;0.012695;0.977051;-0.63;-1.4;1.26;276.0;0.02283;-0.140278
2.9;1.75;1.75;1.75;1.25;0.75;0.25;0.0;0.0;1.25;2.0;2.75;3.25;1.75;5.25;0.0;1.25;-0.245117;0.055176;0.961914;-1.96;0.98;-0.49;206.0;0.088959;-0.04553;1.5;2.25;2.25;3.0;0.5;2.0;0.0;1.75;0.75;1.0;2.75;3.5;3.5;4.5;0.0;1.5;-0.237793;0.010254;0.975098;-0.7;-1.26;1.12;261.0;0.025481;-0.140367
2.91;2.0;1.5;1.25;1.5;0.5;0.0;0.0;0.0;1.25;2.25;2.75;3.25;1.75;5.5;0.25;1.0;-0.246582;0.055664;0.954102;-1.82;0.91;-0.49;204.0;0.103882;-0.042292;2.25;2.25;1.75;3.0;0.5;2.0;0.0;2.0;0.75;1.25;2.75;3.25;3.5;4.75;0.0;1.5;-0.234375;0.011719;0.973633;-0.77;-1.26;1.12;268.0;0.022542;-0.136244
2.92;2.25;1.25;1.0;1.25;0.5;0.0;0.0;0.0;1.25;2.25;2.75;3.25;1.5;5.75;0.75;1.25;-0.242676;0.053223;0.961914;-1.96;0.84;-0.42;205.0;0.122085;-0.0357;1.5;2.0;2.5;2.5;0.5;2.25;0.0;2.0;1.0;1.25;2.75;3.25;4.0;4.5;0.0;1.5;-0.235352;0.01416;0.97998;-0.91;-1.33;1.19;268.0;0.034085;-0.13807
2.93;2.5;1.0;1.75;1.25;0.5;0.25;0.0;0.0;1.5;2.0;2.5;3.25;1.5;5.25;0.75;1.25;-0.245117;0.050781;0.962402;-1.89;0.91;-0.49;210.0;0.100127;-0.031197;1.25;2.0;2.25;2.5;0.5;2.25;0.0;2.0;0.5;1.0;3.0;3.25;3.0;4.75;0.25;1.25;-0.237305;0.013672;0.97998;-0.77;-1.33;1.12;254.0;0.036204;-0.139843
2.94;2.5;1.75;1.25;1.25;0.75;0.25;0.0;0.25;1.25;2.25;2.5;3.0;1.5;5.75;0.75;0.75;-0.25;0.056641;0.961914;-1.82;0.98;-0.42;215.0;0.090892;-0.035503;1.75;2.0;2.25;2.75;0.5;2.25;0.0;2.25;0.5;1.0;3.25;3.25;2.75;4.5;0.25;1.5;-0.23584;0.01416;0.979004;-0.91;-1.33;1.19;263.0;0.025074;-0.140008
2.95;2.75;1.5;1.25;1.0;0.75;0.25;0.0;0.0;1.25;2.0;2.75;3.0;1.5;5.75;0.25;0.75;-0.245605;0.05127;0.959473;-1.96;1.12;-0.49;205.0;0.089278;-0.026015;1.5;2.25;2.5;2.5;0.25;2.0;0.0;2.5;0.75;1.0;3.25;3.25;3.5;4.75;0.0;1.75;-0.235352;0.013184;0.975098;-0.91;-1.19;1.12;271.0;0.033957;-0.144487
2.96;2.0;1.5;1.75;1.25;0.75;0.0;0.0;0.0;1.5;2.25;2.75;2.5;0.5;5.75;0.25;0.25;-0.245605;0.054688;0.960449;-1.89;0.91;-0.42;194.0;0.090719;0.00405;1.5;2.5;2.75;2.5;0.25;2.0;0.0;2.0;0.5;1.25;3.25;3.25;3.75;4.75;0.0;1.5;-0.238281;0.01123;0.978516;-0.84;-1.33;1.12;269.0;0.028167;-0.140788
2.97;2.0;1.5;2.0;1.0;0.75;0.0;0.0;0.0;1.5;2.0;2.25;3.0;0.5;5.75;0.25;0.5;-0.246582;0.051758;0.961914;-1.82;0.91;-0.56;193.0;0.090415;0.001098;1.5;2.25;2.75;2.5;0.5;2.0;0.0;2.0;0.5;1.0;3.25;3.25;3.5;4.75;0.0;1.0;-0.237793;0.01416;0.975586;-0.84;-1.47;1.19;263.0;0.024443;-0.136786
2.98;2.0;1.25;1.75;1.0;0.75;0.25;0.0;0.0;1.5;1.25;2.25;3.5;1.0;5.75;0.25;1.0;-0.241211;0.052734;0.958984;-1.68;0.7;-0.42;195.0;0.099135;-0.022745;1.75;2.25;2.5;2.5;0.5;2.0;0.0;2.0;0.5;1.0;2.5;3.0;3.5;3.75;0.25;1.0;-0.234863;0.013672;0.976562;-1.05;-1.33;1.05;249.0;0.008735;-0.144474
2.99;1.5;1.75;1.25;1.25;0.75;0.25;0.0;0.0;1.5;1.75;2.5;3.5;1.0;5.75;0.25;1.0;-0.242676;0.054688;0.959961;-1.82;0.77;-0.56;199.0;0.108705;-0.032489;2.25;2.25;2.5;2.5;0.5;2.0;0.0;2.0;0.5;1.25;3.0;3.25;3.75;4.25;0.0;1.5;-0.233398;0.017578;0.974609;-0.84;-1.4;1.05;268.0;0.015373;-0.139284
3.0;1.25;1.25;1.25;1.0;0.5;0.25;0.0;0.0;1.25;2.0;2.75;3.0;1.25;5.75;0.25;1.0;-0.24707;0.054199;0.966797;-1.89;0.84;-0.49;187.0;0.132174;-0.032507;1.75;2.5;2.5;2.75;0.75;2.25;0.0;2.0;0.25;1.0;3.25;3.5;3.5;4.5;0.0;1.5;-0.233398;0.015137;0.975098;-0.91;-1.33;1.12;272.0;0.014445;-0.14619
3.01;1.75;2.0;1.25;1.5;0.5;0.25;0.0;0.0;1.25;2.25;2.75;3.25;1.25;6.0;0.0;0.25;-0.244629;0.050293;0.958496;-1.89;0.63;-0.49;202.0;0.093131;-0.03231;2.25;2.5;2.5;2.5;0.75;1.75;0.0;2.0;0.5;1.0;3.25;3.5;3.75;3.75;0.0;1.5;-0.236816;0.020996;0.977539;-0.91;-1.33;1.19;268.0;0.008664;-0.143599
3.02;1.75;1.5;1.5;1.5;0.25;0.25;0.0;0.0;1.0;2.25;2.75;3.5;1.5;5.75;0.25;0.5;-0.240234;0.047363;0.961426;-1.96;0.49;-0.42;201.0;0.103066;-0.044398;1.5;2.75;2.5;2.5;0.5;2.5;0.0;1.75;0.75;0.75;3.0;3.5;3.5;4.5;0.0;1.75;-0.239258;0.012207;0.970703;-0.84;-1.47;1.19;268.0;0.020264;-0.141736
3.03;1.75;1.25;1.75;1.5;0.25;0.25;0.0;0.0;1.0;2.25;2.25;3.5;1.5;5.75;0.25;0.75;-0.24707;0.055664;0.962402;-1.96;0.42;-0.49;199.0;0.102532;-0.041623;2.25;2.0;2.5;2.75;0.25;2.25;0.0;2.25;0.5;0.75;3.5;3.25;3.5;4.75;0.0;1.5;-0.23877;0.016602;0.971191;-0.84;-1.47;1.12;273.0;0.019304;-0.142096
3.04;2.5;1.25;2.5;1.5;0.5;0.25;0.0;0.0;1.5;2.0;2.0;3.25;1.5;5.75;0.25;1.0;-0.240234;0.054688;0.958008;-1.96;0.42;-0.56;214.0;0.074299;-0.022761;2.25;2.25;2.25;2.5;0.25;1.75;0.0;2.25;0.5;0.5;4.0;3.25;4.0;4.75;0.0;1.25;-0.239258;0.011719;0.977051;-0.98;-1.61;1.12;270.0;0.02632;-0.146208
3.05;2.25;1.75;1.75;1.25;0.5;0.0;0.0;0.25;1.5;1.75;2.25;3.25;1.75;5.75;0.25;1.0;-0.248047;0.05127;0.962891;-1.96;0.42;-0.42;210.0;0.087391;-0.036883;1.75;2.25;2.25;2.75;0.5;1.75;0.0;1.75;0.25;0.5;3.25;3.25;3.5;4.5;0.0;1.5;-0.237305;0.018066;0.976074;-0.7;-1.54;1.19;251.0;0.019377;-0.147052
3.06;2.25;1.5;1.5;1.25;0.25;0.0;0.0;0.0;1.75;1.75;2.5;3.25;1.5;5.75;0.25;0.75;-0.246094;0.054688;0.959473;-1.96;0.49;-0.42;202.0;0.101774;-0.023839;1.75;2.0;2.5;2.75;0.5;2.25;0.0;2.0;0.25;1.0;3.0;3.25;3.25;4.5;0.0;1.5;-0.229492;0.013184;0.971191;-0.77;-1.4;1.19;259.0;0.017547;-0.144484
3.07;2.0;1.5;2.0;1.25;0.25;0.25;0.0;0.0;1.75;1.75;2.25;2.75;1.25;5.75;0.0;0.75;-0.240723;0.05957;0.95752;-1.89;0.28;-0.42;196.0;0.087772;-0.013579;2.5;2.5;2.75;2.5;0.5;2.25;0.0;2.0;0.75;1.5;2.5;3.25;3.0;4.25;0.25;1.25;-0.232422;0.012207;0.972656;-0.7;-1.33;1.19;272.0;0.004641;-0.123541
3.08;1.75;1.5;1.5;1.25;0.5;0.25;0.0;0.0;1.5;2.0;2.25;3.25;1.0;5.75;0.25;0.75;-0.245605;0.049805;0.963379;-1.96;0.49;-0.28;196.0;0.104048;-0.022629;2.25;2.25;2.5;2.5;0.75;2.25;0.0;2.0;1.0;1.25;2.75;3.25;3.0;4.25;0.25;1.5;-0.235352;0.01123;0.97998;-0.7;-1.54;1.26;272.0;0.016011;-0.123588
3.09;2.0;1.25;1.75;1.5;0.5;0.25;0.0;0.0;1.5;2.25;2.75;3.25;1.0;5.75;0.25;0.75;-0.245117;0.052734;0.958496;-1.82;0.49;-0.35;207.0;0.099086;-0.021963;2.5;2.25;2.5;2.75;0.75;2.25;0.0;2.25;0.75;0.25;3.0;3.5;3.25;4.75;0.0;1.75;-0.236328;0.016113;0.979492;-0.7;-1.33;1.19;277.0;0.008098;-0.136277
3.1;1.25;1.5;2.0;1.5;0.75;0.5;0.0;0.0;1.5;1.75;2.75;3.25;1.25;5.75;0.0;0.75;-0.239258;0.053223;0.95752;-1.89;0.42;-0.42;205.0;0.09499;-0.033176;1.25;2.5;2.5;2.5;0.75;2.25;0.0;2.0;0.5;0.5;3.0;3.25;3.0;4.75;0.0;1.5;-0.232422;0.013184;0.977051;-0.63;-1.33;1.12;257.0;0.020021;-0.141076
3.11;1.25;1.5;2.0;1.25;0.5;0.5;0.0;0.25;1.5;1.75;2.5;3.0;1.25;5.75;0.25;1.0;-0.245605;0.052246;0.962402;-1.96;0.49;-0.42;202.0;0.102425;-0.036073;1.75;2.25;2.5;2.5;0.75;2.0;0.0;2.0;0.5;1.0;3.0;3.0;3.0;4.75;0.0;1.25;-0.237793;0.010742;0.969727;-0.7;-1.33;1.12;258.0;0.018294;-0.129993
3.12;2.0;1.25;2.0;1.25;0.5;0.25;0.0;0.25;1.5;2.0;2.5;3.0;1.5;5.75;0.0;0.25;-0.244141;0.053223;0.967285;-1.96;0.56;-0.35;203.0;0.088405;-0.025105;1.75;2.0;2.5;2.5;0.5;2.0;0.0;1.75;0.5;0.75;3.0;3.0;3.5;4.5;0.5;1.5;-0.234863;0.011719;0.975098;-0.56;-1.26;1.12;256.0;0.029017;-0.136738
3.13;2.25;2.25;2.75;1.5;0.25;0.0;0.0;0.0;1.5;2.25;2.75;2.75;1.5;5.75;0.25;0.25;-0.242188;0.055176;0.960449;-1.89;0.42;-0.35;219.0;0.0616;-0.018037;1.5;2.25;2.5;2.25;0.75;1.75;0.0;2.0;0.25;0.75;3.25;3.25;4.25;4.75;0.5;1.75;-0.23584;0.013184;0.975586;-0.77;-1.47;1.12;267.0;0.039427;-0.149073
3.14;2.25;1.75;2.0;1.25;0.5;0.25;0.0;0.0;1.5;2.0;2.75;3.5;1.25;5.75;0.5;0.5;-0.242676;0.049316;0.960938;-1.89;0.49;-0.42;216.0;0.087094;-0.026329;1.5;2.25;2.25;2.5;0.75;2.0;0.0;2.25;0.5;0.5;3.25;3.25;3.25;4.5;0.0;1.75;-0.234375;0.016602;0.974609;-0.7;-1.33;1.12;259.0;0.025006;-0.147816
3.15;2.5;1.5;1.75;1.25;0.5;0.25;0.0;0.25;1.75;2.25;2.75;3.75;1.75;5.75;0.25;0.75;-0.246582;0.060547;0.959961;-1.96;0.42;-0.35;227.0;0.093198;-0.036242;2.5;2.0;2.25;2.5;0.5;2.0;0.0;2.0;0.75;0.75;3.0;3.0;3.0;4.5;0.0;1.25;-0.234375;0.01123;0.975098;-0.7;-1.47;1.12;257.0;0.012659;-0.126863
3.16;2.25;1.5;2.0;1.25;0.75;0.5;0.0;0.0;1.5;2.5;2.75;3.25;1.75;5.75;0.0;1.0;-0.249023;0.053711;0.959473;-1.89;0.42;-0.35;222.0;0.086403;-0.031329;1.5;2.25;2.5;2.5;0.5;2.25;0.0;2.0;0.25;1.0;2.75;2.75;3.25;3.75;0.25;1.75;-0.233887;0.014648;0.978027;-0.84;-1.54;1.05;248.0;0.011947;-0.150889
3.17;2.75;1.75;1.75;0.5;0.75;0.25;0.0;0.0;1.5;2.5;2.5;3.0;1.75;5.75;0.25;0.75;-0.246582;0.053223;0.957031;-2.03;0.56;-0.42;214.0;0.089567;-0.017626;1.75;2.5;2.5;2.75;0.5;2.0;0.0;1.75;0.25;1.25;2.75;3.25;3.25;4.0;0.0;1.75;-0.240234;0.013184;0.977539;-0.84;-1.61;1.12;255.0;0.008986;-0.144333
3.18;2.75;1.75;1.75;1.25;0.75;0.25;0.0;0.0;1.5;2.5;2.5;3.0;1.75;5.75;0.5;0.5;-0.244629;0.054688;0.958008;-2.03;0.49;-0.42;222.0;0.07964;-0.023175;3.0;2.5;2.5;2.75;0.25;1.75;0.0;1.75;0.5;1.5;3.0;3.25;3.25;4.5;0.0;1.75;-0.234863;0.012207;0.976074;-0.77;-1.54;1.19;272.0;0.006467;-0.12457
3.19;2.75;1.75;1.75;1.25;0.5;0.25;0.0;0.0;1.5;2.5;3.25;3.0;1.5;5.75;0.5;0.75;-0.239746;0.050293;0.954102;-1.96;0.49;-0.42;225.0;0.08669;-0.02465;1.75;2.5;2.5;2.75;0.25;2.0;0.0;2.0;0.5;1.0;2.75;3.75;3.25;4.25;0.0;1.75;-0.23877;0.012695;0.978027;-0.84;-1.54;1.19;263.0;0.016659;-0.146829
3.2;2.25;1.75;2.0;1.25;0.5;0.0;0.0;0.0;1.75;2.5;3.25;2.75;1.5;5.75;0.25;0.75;-0.241211;0.053711;0.964844;-1.96;0.35;-0.42;219.0;0.092748;-0.016454;1.5;2.5;2.5;2.5;0.5;2.0;0.0;2.0;0.75;1.25;2.5;3.0;3.0;4.25;0.0;1.5;-0.23877;0.01123;0.975586;-0.98;-1.61;1.26;254.0;0.016756;-0.133426
3.21;2.5;1.75;2.0;1.25;0.5;0.0;0.0;0.0;1.75;2.5;3.0;2.75;1.25;5.75;0.0;1.0;-0.246094;0.057129;0.95752;-2.03;0.49;-0.42;216.0;0.083974;-0.011321;1.5;2.25;2.75;2.5;0.75;2.0;0.0;1.25;0.75;1.25;2.5;2.75;3.25;4.25;0.0;1.5;-0.239258;0.015137;0.976074;-0.91;-1.61;1.12;247.0;0.016687;-0.120242
3.22;2.5;1.75;2.0;1.5;0.5;0.25;0.0;0.25;1.75;2.75;3.25;3.0;1.75;5.75;0.25;1.0;-0.241211;0.055664;0.958984;-2.17;0.49;-0.42;237.0;0.085077;-0.031597;1.5;2.5;3.0;3.0;0.5;1.75;0.0;1.25;1.0;1.25;2.5;3.25;3.25;4.25;0.5;1.5;-0.238281;0.010254;0.973145;-0.91;-1.61;1.12;262.0;0.020705;-0.118998
3.23;2.5;1.75;2.0;1.75;0.5;0.0;0.0;0.25;1.75;2.5;2.5;3.75;2.25;5.75;0.25;0.5;-0.243164;0.052246;0.958984;-2.03;0.49;-0.42;236.0;0.08047;-0.041051;2.25;2.75;2.75;2.75;0.25;2.0;0.0;1.75;0.75;1.25;2.5;3.0;3.25;4.75;0.25;1.5;-0.236328;0.014648;0.975098;-0.98;-1.68;1.19;269.0;0.009554;-0.122938
3.24;2.5;1.75;2.0;1.75;0.75;0.0;0.0;0.25;1.75;2.5;2.25;3.25;1.5;5.75;0.5;0.5;-0.243652;0.04834;0.961426;-2.03;0.42;-0.49;228.0;0.075567;-0.024631;1.25;2.25;2.75;2.75;0.5;2.0;0.0;2.0;0.75;1.25;2.75;3.0;3.25;4.5;0.25;1.25;-0.237305;0.012695;0.97168;-0.98;-1.68;1.19;261.0;0.025587;-0.132808
3.25;2.5;1.75;2.0;1.5;0.75;0.0;0.0;0.0;1.75;2.5;2.5;3.25;2.25;5.75;0.25;0.75;-0.25;0.050781;0.958008;-2.17;0.35;-0.42;229.0;0.082323;-0.029787;1.5;2.25;2.75;2.75;0.5;1.75;0.0;1.25;0.5;0.75;2.75;3.0;3.5;4.25;0.25;1.25;-0.229004;0.012207;0.972168;-0.91;-1.68;0.98;244.0;0.016752;-0.132066
3.26;2.0;1.75;1.75;1.5;1.0;0.25;0.0;0.0;1.75;2.5;2.75;3.25;1.75;5.75;0.5;0.75;-0.23584;0.052246;0.964355;-2.24;0.21;-0.49;228.0;0.093809;-0.029534;1.75;2.25;2.75;3.0;0.5;1.75;0.0;1.25;0.5;0.75;2.75;2.75;3.0;4.5;0.25;1.25;-0.23584;0.008789;0.978027;-0.98;-1.68;1.12;245.0;0.009065;-0.122124
3.27;2.75;1.75;2.0;1.75;0.75;0.25;0.0;0.25;1.5;2.25;2.75;3.25;1.5;5.75;0.25;1.0;-0.238281;0.054199;0.959961;-2.17;0.35;-0.35;232.0;0.067672;-0.034198;2.25;2.25;2.75;3.0;0.5;2.0;0.0;1.75;0.5;1.0;2.5;2.75;2.75;4.75;0.0;1.5;-0.237305;0.019531;0.976562;-0.91;-1.68;1.19;257.0;5.6e-05;-0.121398
3.28;3.25;1.75;2.0;1.5;0.5;0.25;0.0;0.0;1.5;2.25;2.75;2.75;1.5;5.75;0.0;1.0;-0.244141;0.055176;0.963867;-2.03;0.28;-0.42;222.0;0.059126;-0.019634;2.25;2.25;2.75;3.25;0.75;2.0;0.0;1.75;0.75;1.0;2.75;2.5;3.0;4.25;0.0;1.25;-0.230957;0.010742;0.976562;-0.91;-1.61;1.05;261.0;-0.006802;-0.120682
3.29;3.0;1.75;1.75;1.5;0.75;0.25;0.0;0.0;1.5;2.25;2.75;3.5;1.5;5.75;0.25;0.5;-0.245605;0.048828;0.961914;-2.1;0.42;-0.42;227.0;0.069735;-0.026878;1.75;2.5;2.75;2.75;0.75;2.0;0.0;1.25;1.0;1.0;3.0;2.25;3.0;3.75;0.25;1.25;-0.234863;0.017578;0.973633;-1.19;-1.68;1.19;249.0;0.002927;-0.114196
3.3;2.5;1.75;1.75;1.5;0.5;0.25;0.0;0.25;1.75;2.25;2.0;3.25;1.5;5.75;0.25;0.5;-0.238281;0.055176;0.964844;-2.1;0.28;-0.42;217.0;0.076252;-0.026632;2.25;2.5;2.75;2.5;0.75;2.0;0.0;1.25;0.75;1.25;2.5;2.5;2.75;4.0;0.0;1.0;-0.237305;0.01709;0.972168;-1.05;-1.61;1.05;245.0;-0.00798;-0.1082
3.31;3.0;1.75;2.75;1.5;0.5;0.25;0.0;0.25;1.75;2.25;2.5;3.0;1.5;5.75;0.25;0.75;-0.240234;0.04834;0.955078;-2.03;0.14;-0.42;234.0;0.056684;-0.020034;2.5;2.5;3.0;2.75;0.5;1.75;0.0;1.75;0.25;1.25;2.25;3.25;2.75;3.75;0.25;0.75;-0.240723;0.018066;0.968262;-1.05;-1.68;1.19;252.0;-0.017165;-0.126836
3.32;3.0;1.75;2.5;1.75;0.75;0.5;0.0;0.25;1.5;1.75;2.75;2.5;1.5;5.75;0.5;0.75;-0.248535;0.05127;0.963867;-2.17;0.14;-0.35;231.0;0.048925;-0.026144;2.25;2.5;3.0;2.75;0.25;2.25;0.0;1.75;0.25;1.25;2.5;3.25;3.5;4.25;0.25;0.75;-0.235352;0.012695;0.980469;-1.12;-1.61;1.05;263.0;-0.003596;-0.135715
3.33;3.0;2.0;2.5;1.75;0.75;0.25;0.0;0.0;1.75;1.75;2.75;2.75;1.25;5.75;0.25;0.75;-0.245117;0.052246;0.957031;-2.17;0.21;-0.42;229.0;0.047435;-0.014763;2.5;2.5;3.0;3.0;0.5;1.75;0.0;1.75;0.5;1.0;2.25;3.0;3.25;4.25;0.0;0.75;-0.236816;0.011719;0.976562;-1.12;-1.82;1.12;257.0;-0.015787;-0.12453
3.34;3.25;2.0;2.75;2.25;0.75;0.25;0.0;0.0;1.75;2.0;2.75;2.0;1.25;5.75;0.5;0.75;-0.244629;0.053711;0.966309;-2.17;0.28;-0.42;236.0;0.03433;-0.00869;2.5;2.5;2.75;3.25;0.5;1.75;0.0;1.75;0.5;1.0;2.0;3.0;2.75;4.25;0.0;1.0;-0.234375;0.013184;0.970215;-1.05;-1.54;1.12;253.0;-0.019029;-0.123453
3.35;3.0;2.0;2.5;2.25;1.0;0.25;0.0;0.0;1.75;2.25;2.75;3.5;1.75;5.75;0.25;1.0;-0.245117;0.054199;0.958984;-2.1;0.42;-0.42;252.0;0.05052;-0.031827;2.5;2.5;2.75;2.75;0.5;1.75;0.0;2.0;0.25;1.25;2.25;2.75;2.75;4.25;0.25;1.25;-0.237793;0.012695;0.97168;-1.12;-1.68;1.19;254.0;-0.00927;-0.126599
3.36;2.75;1.75;2.5;1.75;0.75;0.5;0.0;0.25;1.5;2.25;2.0;2.75;1.75;5.75;0.0;0.75;-0.244141;0.053223;0.959961;-1.96;0.56;-0.42;227.0;0.047304;-0.028162;1.75;2.5;2.75;2.5;0.5;1.75;0.0;1.75;0.5;0.75;2.5;2.25;2.5;4.25;0.25;1.25;-0.242676;0.020508;0.978027;-0.98;-1.61;1.05;236.0;-0.000494;-0.121558
3.37;3.0;1.75;2.5;1.0;0.75;0.25;0.0;0.0;1.5;2.25;2.0;2.5;1.5;5.75;0.0;1.0;-0.242676;0.053711;0.956543;-1.89;0.49;-0.35;214.0;0.055505;-0.007458;2.25;2.25;2.75;2.75;0.5;1.75;0.0;1.25;0.5;0.75;2.0;2.75;1.0;4.0;0.25;1.25;-0.239746;0.010254;0.981934;-1.05;-1.61;1.19;222.0;-0.019465;-0.099122
3.38;3.0;1.75;2.5;1.5;1.0;0.25;0.0;0.0;1.5;2.5;2.0;3.5;2.25;5.75;0.25;1.0;-0.240723;0.054199;0.956543;-2.03;0.63;-0.42;239.0;0.060382;-0.032108;2.5;2.5;2.5;2.75;0.5;1.25;0.0;1.75;0.75;0.75;1.75;2.75;2.0;4.0;0.0;1.0;-0.237793;0.013672;0.974121;-0.84;-1.47;1.05;230.0;-0.0201;-0.110343
3.39;2.75;1.75;2.0;2.25;0.75;0.0;0.0;0.0;1.5;2.0;2.25;2.25;1.75;5.75;0.0;1.0;-0.240723;0.052734;0.962402;-1.96;0.56;-0.42;216.0;0.050286;-0.022222;2.5;2.5;2.5;3.0;0.5;1.25;0.0;1.0;0.25;0.75;2.25;2.75;2.5;4.75;0.0;1.0;-0.231445;0.010742;0.974609;-0.84;-1.54;1.12;231.0;-0.011877;-0.107971
3.4;2.5;1.75;2.5;1.75;1.0;0.0;0.0;0.0;1.75;2.0;2.5;2.5;1.25;5.75;0.0;1.0;-0.244629;0.052734;0.953613;-1.96;0.7;-0.42;219.0;0.057181;-0.008662;2.25;2.5;2.75;2.75;0.75;1.25;0.0;1.25;0.0;1.0;2.0;3.25;1.75;4.25;0.25;0.75;-0.238281;0.014648;0.977539;-0.84;-1.4;1.19;228.0;-0.016821;-0.110256
3.41;3.0;2.0;2.75;2.25;1.0;0.25;0.0;0.0;1.75;2.0;3.0;2.25;1.5;5.75;0.0;1.0;-0.244629;0.049316;0.952148;-1.96;0.49;-0.49;239.0;0.035803;-0.016306;2.25;2.5;2.75;2.75;0.5;1.25;0.0;1.25;0.25;0.5;2.0;3.25;2.75;3.75;0.25;0.75;-0.23584;0.008301;0.969238;-0.84;-1.47;1.05;228.0;-0.018109;-0.126551
3.42;2.75;2.0;2.75;1.5;0.75;0.0;0.0;0.0;2.0;2.25;2.5;2.25;1.25;5.75;0.0;1.0;-0.24707;0.051758;0.961426;-1.89;0.42;-0.42;224.0;0.053425;0.000644;2.25;2.5;3.0;2.75;0.25;1.25;0.0;1.25;0.5;0.5;2.25;2.5;3.0;3.75;0.25;1.0;-0.23584;0.007812;0.974121;-0.91;-1.4;1.12;229.0;-0.01709;-0.120073
3.43;3.0;1.75;2.5;1.5;0.5;0.0;0.0;0.0;2.0;2.5;2.25;2.5;1.25;5.75;0.0;1.0;-0.244629;0.056641;0.963867;-1.96;0.49;-0.49;222.0;0.059927;0.000403;2.75;2.5;2.75;2.75;0.25;1.25;0.0;1.0;0.5;0.75;2.0;2.75;2.75;4.0;0.25;1.0;-0.23877;0.012695;0.972168;-0.98;-1.47;1.05;230.0;-0.017762;-0.109069
3.44;2.75;1.75;2.5;1.5;0.75;0.25;0.0;0.0;1.75;2.75;2.25;3.0;1.25;5.75;0.25;1.0;-0.242188;0.050293;0.961426;-1.96;0.49;-0.42;230.0;0.065894;-0.011853;2.5;2.5;2.75;3.0;0.5;1.25;0.0;1.0;0.5;0.75;2.0;2.5;2.75;4.0;0.0;0.75;-0.23291;0.010742;0.977051;-0.91;-1.4;1.19;227.0;-0.026165;-0.108009
3.45;2.75;1.5;2.0;1.5;0.5;0.25;0.0;0.0;1.75;2.5;2.5;2.75;1.5;5.75;0.25;1.0;-0.243164;0.05127;0.961914;-1.96;0.21;-0.42;221.0;0.078407;-0.016083;2.5;2.75;2.75;3.0;0.5;1.75;0.0;1.25;0.5;0.75;2.0;2.25;2.5;4.0;0.0;0.75;-0.22998;0.012695;0.979004;-0.84;-1.4;0.98;232.0;-0.03545;-0.111027
3.46;3.0;1.75;2.0;1.75;0.75;0.5;0.0;0.0;1.75;2.5;2.75;3.0;1.5;5.75;0.25;1.0;-0.243164;0.048828;0.95459;-2.03;0.35;-0.49;236.0;0.064783;-0.02345;2.5;2.5;2.75;3.0;0.5;1.25;0.0;1.25;0.5;1.0;2.25;2.75;2.5;4.0;0.0;1.0;-0.234375;0.01416;0.976562;-0.91;-1.54;1.19;236.0;-0.018626;-0.110323
3.47;3.0;2.0;2.0;2.25;1.0;0.25;0.0;0.0;1.75;2.25;2.25;3.25;1.25;5.75;0.25;0.75;-0.240234;0.048828;0.961914;-1.96;0.21;-0.42;235.0;0.048689;-0.022118;2.5;2.5;2.75;3.0;0.25;1.0;0.0;1.0;0.0;1.0;2.5;2.75;2.25;4.0;0.0;0.75;-0.233887;0.009766;0.975586;-0.84;-1.47;1.19;222.0;-0.02413;-0.111997
3.48;2.75;2.0;2.0;1.75;1.0;0.25;0.0;0.0;1.75;2.5;2.0;2.5;1.5;5.75;0.25;1.0;-0.242676;0.048828;0.964844;-2.03;0.42;-0.42;225.0;0.057912;-0.014507;2.25;2.5;2.75;3.0;0.25;1.25;0.0;1.0;0.0;1.0;2.0;2.5;2.75;4.0;0.0;1.0;-0.23584;0.012695;0.974609;-0.84;-1.47;1.19;220.0;-0.023802;-0.120793
3.49;3.5;2.0;2.75;1.5;0.75;0.25;0.0;0.0;1.75;2.5;1.75;3.0;1.75;5.75;0.25;1.0;-0.245117;0.049316;0.959961;-1.96;0.28;-0.42;238.0;0.042993;-0.014523;2.25;2.5;2.5;3.0;0.0;1.75;0.0;1.0;0.5;0.75;2.5;1.75;2.75;4.0;0.25;1.25;-0.236328;0.010742;0.974121;-0.91;-1.4;1.19;224.0;-0.014332;-0.11543
3.5;3.5;1.75;2.75;1.75;0.75;0.5;0.0;0.0;1.75;2.0;2.0;2.25;1.75;5.75;0.5;1.25;-0.240723;0.053223;0.959473;-1.96;0.35;-0.42;235.0;0.040024;-0.014399;1.75;2.5;2.75;3.0;0.0;1.0;0.0;1.0;0.5;1.0;2.75;2.5;2.25;4.0;0.25;1.0;-0.236328;0.011719;0.978027;-0.84;-1.47;1.12;222.0;0.001397;-0.109678
3.51;2.25;2.0;3.0;1.75;1.0;0.25;0.0;0.0;1.75;2.0;2.25;2.5;1.75;5.75;0.25;1.0;-0.241699;0.056641;0.959961;-1.96;0.35;-0.42;230.0;0.052481;-0.018637;2.25;3.25;2.75;2.75;0.25;1.0;0.0;1.0;0.75;0.75;2.75;3.0;2.25;4.0;0.25;1.0;-0.23877;0.01123;0.975586;-0.77;-1.4;1.12;237.0;-0.010008;-0.104904
3.52;3.0;2.0;3.0;2.5;1.0;0.25;0.0;0.0;1.5;2.25;2.0;3.0;1.5;5.75;0.25;1.0;-0.243164;0.051758;0.958008;-1.89;0.28;-0.42;243.0;0.030422;-0.024452;2.25;3.25;2.75;3.0;0.25;1.0;0.0;1.25;0.75;0.75;2.75;3.25;2.5;4.25;0.25;1.0;-0.237305;0.009766;0.977051;-0.84;-1.4;1.12;248.0;-0.006285;-0.11198
3.53;3.25;2.0;3.25;2.75;0.75;0.25;0.0;0.25;1.5;2.0;2.0;2.75;1.75;5.0;0.0;1.25;-0.237793;0.059082;0.965332;-2.03;0.42;-0.42;242.0;0.008717;-0.036682;2.25;3.25;2.75;2.75;0.25;1.25;0.0;1.0;0.75;1.0;2.75;3.0;2.5;4.25;0.25;1.0;-0.237793;0.015137;0.978027;-0.77;-1.4;1.12;245.0;-0.004669;-0.105572
3.54;3.0;2.0;3.0;2.5;0.75;0.0;0.0;0.0;1.75;1.75;2.25;2.75;1.5;5.5;0.0;1.0;-0.239258;0.049805;0.963867;-1.96;0.49;-0.49;233.0;0.026096;-0.020298;1.5;2.75;3.0;2.75;0.5;1.25;0.0;1.0;0.75;0.75;2.5;2.75;2.5;3.75;0.25;0.75;-0.241211;0.010254;0.978516;-0.84;-1.47;1.05;228.0;-0.005257;-0.110063
3.55;3.0;2.25;2.75;2.25;0.75;0.0;0.0;0.25;2.0;1.75;2.75;3.0;1.25;5.75;0.0;1.25;-0.239258;0.054688;0.961426;-1.82;0.35;-0.42;244.0;0.039013;-0.022927;2.5;2.25;2.5;2.5;0.25;1.25;0.0;1.0;1.0;0.5;2.0;2.5;1.0;3.75;0.0;1.0;-0.234863;0.010254;0.972656;-0.7;-1.4;1.12;205.0;-0.022044;-0.082142
3.56;3.25;2.25;2.75;2.25;1.0;0.25;0.0;0.0;2.0;2.0;2.75;2.0;1.25;5.75;0.25;1.25;-0.238281;0.053711;0.961426;-1.96;0.35;-0.35;243.0;0.031418;-0.008293;2.25;2.5;2.5;2.5;0.25;1.25;0.0;1.0;0.5;0.5;2.75;2.75;1.0;4.0;0.0;1.0;-0.235352;0.012207;0.970703;-0.84;-1.4;1.12;210.0;-0.015108;-0.095246
3.57;3.5;2.0;2.75;2.25;1.0;0.0;0.0;0.0;1.75;2.0;2.5;2.25;1.75;5.75;0.25;1.25;-0.245605;0.057129;0.962891;-1.89;0.35;-0.35;242.0;0.032219;-0.015235;2.25;2.25;2.5;2.5;0.25;1.25;0.0;1.0;0.5;0.75;2.5;2.25;1.75;4.0;0.0;0.5;-0.236328;0.004883;0.969238;-0.77;-1.4;1.05;207.0;-0.015246;-0.095748
3.58;3.5;2.0;2.75;2.5;1.0;0.0;0.0;0.25;1.75;2.25;2.5;2.5;2.25;5.75;0.25;1.25;-0.23877;0.05127;0.962402;-1.96;0.42;-0.49;255.0;0.034064;-0.029985;2.25;2.25;2.75;2.5;0.25;1.75;0.0;1.0;0.5;0.75;2.5;0.75;2.0;3.25;0.0;0.75;-0.233398;0.015625;0.973145;-0.77;-1.4;1.19;198.0;-0.043977;-0.096336
3.59;3.5;2.25;2.75;2.5;0.75;0.25;0.0;0.25;1.75;2.5;2.75;1.25;1.25;5.75;0.0;1.0;-0.241699;0.05127;0.95752;-1.89;0.42;-0.49;240.0;0.016659;-0.006883;2.25;2.0;2.25;2.75;0.25;1.75;0.0;1.0;0.5;0.75;2.0;1.0;2.0;4.25;0.25;0.75;-0.236816;0.012207;0.973145;-0.91;-1.47;1.26;201.0;-0.019926;-0.093296
3.6;3.5;1.75;2.75;1.75;0.75;0.25;0.0;0.25;2.0;2.5;2.75;1.25;1.25;5.75;0.25;0.75;-0.242188;0.053711;0.958984;-1.75;0.35;-0.42;233.0;0.037672;0.006304;2.25;2.25;2.75;2.5;0.5;1.75;0.0;1.0;0.5;1.0;2.0;1.75;2.0;4.0;0.25;0.75;-0.236816;0.009766;0.970703;-0.77;-1.47;1.12;215.0;-0.021024;-0.093822
3.61;3.25;2.0;2.75;2.25;1.0;0.0;0.0;0.25;1.25;2.0;2.25;2.25;1.25;5.75;0.25;1.0;-0.243164;0.054688;0.964355;-1.82;0.42;-0.35;230.0;0.024701;-0.018931;1.75;2.25;2.75;2.5;0.25;1.25;0.0;1.0;0.5;1.0;2.25;2.75;2.25;3.75;0.25;1.0;-0.233887;0.009766;0.977051;-0.77;-1.47;1.19;216.0;0.00244;-0.110782
3.62;3.0;2.25;2.75;2.5;1.0;0.0;0.0;0.25;1.25;1.75;2.75;2.5;1.25;5.75;0.5;1.25;-0.244141;0.047363;0.958496;-1.96;0.49;-0.42;240.0;0.030579;-0.030296;1.75;2.5;2.75;2.5;0.25;1.0;0.0;1.0;0.5;1.0;1.75;2.75;2.25;3.75;0.25;1.0;-0.233398;0.010254;0.975586;-0.77;-1.47;1.19;211.0;-0.004347;-0.109434
3.63;3.25;2.25;2.75;2.5;1.0;0.25;0.0;0.25;1.5;2.0;2.5;2.25;1.5;5.75;0.25;1.25;-0.238281;0.051758;0.955566;-1.89;0.49;-0.42;245.0;0.023709;-0.026673;2.25;2.75;2.5;2.75;0.5;1.25;0.0;0.75;0.5;1.0;2.0;1.75;2.25;3.75;0.0;1.0;-0.234863;0.015625;0.972656;-0.84;-1.4;1.05;210.0;-0.030231;-0.097078
3.64;3.0;2.0;2.75;2.25;1.0;0.25;0.0;0.25;1.5;2.25;2.25;2.5;1.5;5.75;0.0;1.25;-0.239258;0.057129;0.959473;-1.82;0.63;-0.42;238.0;0.032404;-0.025201;2.5;2.5;2.75;2.75;0.5;1.75;0.0;0.75;0.5;1.0;2.25;1.25;1.25;4.0;0.25;1.0;-0.240723;0.010254;0.969727;-0.91;-1.47;1.05;211.0;-0.036684;-0.076979
3.65;3.25;2.0;2.75;1.75;0.75;0.25;0.0;0.0;1.5;2.25;2.0;3.25;1.5;5.75;0.25;1.25;-0.239258;0.048828;0.959473;-1.89;0.49;-0.42;237.0;0.043371;-0.023292;1.75;2.5;2.75;2.75;0.5;1.75;0.0;0.75;0.5;0.5;2.0;2.25;2.5;4.0;0.0;0.75;-0.233398;0.013672;0.974609;-0.91;-1.4;0.98;213.0;-0.021592;-0.109418
3.66;3.25;2.0;2.75;2.5;1.0;0.25;0.0;0.0;1.75;2.25;2.0;3.5;1.5;5.75;0.25;1.25;-0.242676;0.052734;0.962402;-1.96;0.56;-0.42;251.0;0.036525;-0.027197;1.5;2.5;2.75;2.75;0.25;1.0;0.0;0.75;0.5;0.25;2.0;2.5;1.75;4.0;0.0;0.75;-0.23291;0.010254;0.975586;-0.98;-1.47;1.12;196.0;-0.017311;-0.102277
3.67;3.25;2.25;3.0;2.5;0.75;0.25;0.0;0.0;1.75;2.25;1.75;2.75;1.25;5.75;0.0;1.0;-0.233398;0.054199;0.958984;-1.96;0.49;-0.42;239.0;0.018981;-0.014549;2.5;2.0;2.75;2.5;0.25;0.75;0.0;0.75;0.75;0.5;1.75;2.5;1.25;4.0;0.25;0.5;-0.230469;0.011719;0.972168;-0.84;-1.47;1.19;197.0;-0.01873;-0.072934
3.68;3.25;2.25;2.5;2.25;0.75;0.5;0.0;0.0;1.75;2.25;2.75;2.5;1.5;5.75;0.25;1.0;-0.235352;0.050781;0.954102;-1.89;0.42;-0.42;245.0;0.036038;-0.022009;1.5;2.25;2.75;2.75;0.5;1.0;0.0;1.0;0.75;0.75;1.5;2.25;1.75;4.0;0.0;0.5;-0.236816;0.010742;0.975586;-0.91;-1.4;1.19;199.0;-0.015246;-0.09193
3.69;3.5;2.25;2.75;1.75;1.0;0.5;0.0;0.25;1.75;2.25;2.5;3.5;1.75;5.75;0.25;1.0;-0.239258;0.047852;0.962891;-2.1;0.42;-0.49;259.0;0.038557;-0.031782;2.25;2.5;2.75;2.75;0.5;1.0;0.0;1.0;0.75;0.75;2.25;2.25;2.0;4.5;0.0;0.75;-0.236816;0.012695;0.96875;-0.98;-1.4;1.12;221.0;-0.012551;-0.087233
3.7;3.0;2.25;3.0;2.25;1.0;0.5;0.0;0.25;1.0;2.5;2.5;3.25;1.5;5.75;0.0;1.0;-0.235352;0.053223;0.957031;-1.82;0.49;-0.49;249.0;0.026212;-0.039955;2.25;2.5;2.75;2.75;0.75;1.0;0.0;1.0;0.75;1.0;2.5;3.25;2.0;4.25;0.0;0.75;-0.234863;0.008301;0.969238;-0.91;-1.4;1.19;235.0;-0.004016;-0.094512
3.71;3.0;2.25;3.0;2.5;1.0;0.25;0.0;0.25;1.0;2.5;3.5;3.25;1.5;5.75;0.25;1.25;-0.246582;0.054688;0.961914;-1.96;0.49;-0.49;261.0;0.036411;-0.043657;2.25;2.75;2.75;2.75;0.75;1.0;0.0;1.0;1.0;0.75;1.75;2.5;1.75;4.75;0.0;0.75;-0.23291;0.006836;0.973145;-0.98;-1.33;1.19;226.0;-0.014458;-0.078337
3.72;3.5;2.25;3.0;2.75;1.25;0.25;0.0;0.0;1.25;2.5;2.25;2.5;1.75;5.75;0.25;1.25;-0.244629;0.049805;0.962891;-1.96;0.49;-0.42;254.0;0.015818;-0.027283;1.75;2.5;2.75;2.5;0.75;1.0;0.0;1.0;1.25;0.75;1.75;1.75;1.75;4.5;0.0;0.75;-0.236816;0.010254;0.977051;-1.05;-1.4;0.91;211.0;-0.006953;-0.07057
3.73;4.0;2.25;3.25;2.75;0.75;0.5;0.0;0.0;1.25;2.5;2.5;3.25;1.5;5.75;0.25;1.25;-0.239746;0.050781;0.961914;-1.89;0.63;-0.49;265.0;0.01297;-0.03211;1.75;2.25;2.5;2.5;0.75;1.0;0.0;0.75;0.75;1.0;2.0;1.75;1.75;4.0;0.0;1.0;-0.236816;0.009277;0.976562;-1.05;-1.47;1.05;200.0;-0.007285;-0.080713
3.74;3.5;2.25;3.0;2.5;0.75;0.5;0.0;0.25;1.5;2.5;2.0;3.5;1.25;5.75;0.25;1.25;-0.241211;0.050293;0.958984;-1.82;0.42;-0.49;258.0;0.024349;-0.032819;1.75;2.5;2.75;2.5;0.5;0.75;0.0;0.75;0.5;0.75;1.75;1.75;1.75;3.75;0.0;1.0;-0.23584;0.01416;0.969238;-0.98;-1.47;1.12;191.0;-0.024627;-0.087666
3.75;3.5;2.25;3.0;2.25;0.75;0.5;0.0;0.25;1.5;2.75;2.0;3.5;1.5;5.75;0.5;1.25;-0.246094;0.052734;0.956543;-1.75;0.63;-0.42;262.0;0.033127;-0.033753;2.25;2.5;2.75;2.5;0.5;0.75;0.0;0.75;0.5;0.75;1.75;1.75;1.75;4.0;0.0;1.0;-0.237305;0.012695;0.975586;-0.98;-1.33;0.98;197.0;-0.028969;-0.080942
3.76;3.5;2.25;3.0;2.5;1.0;0.5;0.0;0.25;1.5;2.0;1.75;3.5;1.5;5.75;0.25;1.25;-0.234863;0.057129;0.958008;-1.68;0.56;-0.35;256.0;0.018644;-0.035983;1.75;2.75;2.5;2.5;0.5;0.75;0.0;1.0;0.25;0.75;1.25;1.75;2.0;4.5;0.0;0.75;-0.230957;0.007812;0.971191;-0.91;-1.4;0.98;193.0;-0.023352;-0.094929
3.77;4.0;2.75;2.75;2.5;1.0;0.5;0.0;0.25;1.75;1.75;2.75;3.0;1.25;5.75;0.25;1.25;-0.239746;0.055664;0.955566;-1.82;0.63;-0.42;265.0;0.011218;-0.029581;1.75;2.25;2.5;2.5;0.5;1.0;0.0;1.0;0.25;0.75;1.25;1.75;2.0;4.25;0.0;0.75;-0.236328;0.008789;0.975098;-0.98;-1.4;0.98;189.0;-0.021036;-0.098197
3.78;3.5;2.75;2.75;2.75;1.0;0.5;0.0;0.25;1.5;2.25;2.5;3.25;1.5;5.75;0.0;1.25;-0.240723;0.051758;0.958008;-1.75;0.7;-0.49;264.0;0.014297;-0.039235;2.5;2.25;2.5;2.75;0.5;0.75;0.0;1.0;0.5;1.0;1.75;2.25;2.0;4.0;0.0;0.5;-0.232422;0.008301;0.978027;-0.84;-1.4;1.05;207.0;-0.023872;-0.09032
3.79;3.25;2.75;2.75;2.25;1.0;0.5;0.0;0.25;1.5;1.75;2.0;3.5;1.75;5.75;0.25;1.25;-0.241699;0.055664;0.955566;-1.89;0.7;-0.42;255.0;0.021995;-0.043233;2.5;2.25;2.75;2.5;0.75;1.0;0.0;1.0;0.5;0.25;1.75;2.5;2.0;3.75;0.0;0.5;-0.234375;0.010742;0.975586;-0.84;-1.33;1.05;205.0;-0.035954;-0.096548
3.8;3.0;2.25;3.0;2.5;1.0;0.5;0.0;0.25;1.5;1.75;3.75;2.75;1.5;5.75;0.75;1.25;-0.247559;0.055176;0.961426;-1.82;0.56;-0.35;265.0;0.039227;-0.038735;1.75;2.5;2.75;2.5;0.75;0.75;0.0;1.0;0.5;0.25;1.75;2.25;1.75;4.25;0.0;0.75;-0.237305;0.009277;0.978027;-0.84;-1.4;1.12;199.0;-0.02057;-0.092653
3.81;3.75;2.0;3.25;2.25;0.75;0.5;0.0;0.25;1.5;1.5;3.0;2.75;1.75;5.75;0.25;1.25;-0.240234;0.049316;0.962402;-1.89;0.49;-0.49;256.0;0.021074;-0.033256;1.75;2.25;2.75;2.75;0.75;0.75;0.0;1.0;0.5;0.5;2.0;1.75;1.75;4.25;0.0;0.75;-0.231445;0.01123;0.974121;-0.84;-1.4;1.19;199.0;-0.019329;-0.087519
3.82;4.0;2.25;2.75;2.25;1.0;0.5;0.0;0.25;1.75;1.5;2.75;3.25;1.5;5.75;0.0;1.0;-0.246582;0.056641;0.960449;-1.82;0.56;-0.56;257.0;0.016195;-0.030236;2.25;2.25;2.75;2.25;0.75;1.0;0.0;1.0;0.75;1.0;2.5;2.25;1.75;4.0;0.0;0.75;-0.239258;0.01123;0.975586;-0.84;-1.54;1.12;216.0;-0.007929;-0.081994
3.83;3.0;2.25;3.0;2.25;1.0;0.5;0.0;0.25;1.25;1.75;2.75;3.25;1.5;5.75;0.0;1.0;-0.243164;0.053223;0.964355;-1.96;0.63;-0.49;248.0;0.024873;-0.03989;2.25;2.75;2.75;2.5;0.5;1.0;0.0;1.0;0.75;0.75;2.5;2.5;2.0;4.25;0.0;0.75;-0.235352;0.01416;0.976074;-0.84;-1.54;1.05;223.0;-0.012095;-0.090969
3.84;2.75;2.25;3.0;2.5;1.0;0.5;0.0;0.25;1.25;2.0;2.5;3.0;1.5;5.75;0.25;1.0;-0.240234;0.058105;0.96582;-1.96;0.49;-0.42;248.0;0.02763;-0.039416;2.25;2.5;2.75;2.5;0.5;1.0;0.0;1.0;0.75;0.25;1.25;1.75;2.0;4.75;0.0;1.0;-0.234863;0.008301;0.969238;-0.77;-1.61;1.05;204.0;-0.024058;-0.08211
3.85;3.25;3.0;3.0;2.5;1.0;0.5;0.0;0.25;1.5;2.25;2.5;3.0;1.75;5.75;0.0;0.75;-0.249512;0.048828;0.962402;-1.96;0.42;-0.49;261.0;0.011151;-0.037006;1.75;2.25;2.5;2.75;0.5;0.75;0.0;1.0;0.75;0.5;1.25;1.75;1.75;4.75;0.0;0.75;-0.23584;0.01123;0.977051;-0.84;-1.47;0.98;195.0;-0.011573;-0.080465
3.86;3.25;2.25;3.0;2.5;0.75;0.5;0.0;0.25;1.5;2.0;2.75;1.75;1.25;5.75;0.0;1.0;-0.242188;0.053223;0.961914;-2.1;0.56;-0.49;239.0;0.012816;-0.019357;1.5;2.25;2.5;3.0;0.5;1.0;0.0;1.0;0.5;1.0;1.5;1.75;1.75;4.5;0.25;0.75;-0.222168;0.011719;0.968262;-0.84;-1.54;1.26;201.0;-0.006863;-0.090737
3.87;3.25;2.0;3.25;2.5;0.5;0.5;0.0;0.0;1.5;2.0;1.75;2.75;1.25;5.75;0.25;0.75;-0.243652;0.04834;0.958496;-1.89;0.35;-0.35;236.0;0.016658;-0.01878;2.25;2.25;3.25;3.0;0.5;1.25;0.0;0.75;0.5;0.5;1.75;1.75;2.0;4.5;0.25;1.0;-0.234863;0.011719;0.975098;-0.77;-1.61;1.19;215.0;-0.027945;-0.084042
3.88;3.75;2.25;3.25;2.75;0.75;0.25;0.0;0.0;1.75;2.25;1.5;3.25;1.5;5.5;0.25;0.75;-0.236328;0.051758;0.960938;-1.96;0.56;-0.49;251.0;0.007943;-0.021303;1.75;2.25;2.75;2.75;0.5;1.0;0.0;0.75;0.75;0.25;1.75;1.75;2.0;4.25;0.25;0.75;-0.236328;0.01416;0.976074;-0.84;-1.54;1.19;199.0;-0.014986;-0.086249
3.89;4.0;2.75;3.25;2.75;0.75;0.5;0.0;0.25;1.75;2.5;2.0;2.75;1.75;5.75;0.0;1.0;-0.242188;0.057129;0.96582;-1.96;0.49;-0.42;267.0;0.001083;-0.027635;1.75;2.25;2.75;2.75;0.5;1.0;0.0;0.75;0.75;0.25;1.5;1.75;2.0;3.75;0.0;0.75;-0.232422;0.01709;0.974609;-0.84;-1.61;1.19;191.0;-0.0307;-0.090913
3.9;3.75;2.0;3.5;2.5;0.75;0.5;0.0;0.0;1.75;2.5;2.25;2.75;1.75;5.75;0.0;1.0;-0.237793;0.052734;0.96582;-1.96;0.63;-0.42;259.0;0.016013;-0.019153;1.75;2.25;2.75;2.75;0.5;1.0;0.0;1.0;0.75;0.5;1.5;2.75;1.75;4.0;0.0;1.0;-0.235352;0.010742;0.973633;-0.77;-1.54;1.19;206.0;-0.013061;-0.098298
3.91;2.75;2.25;3.0;2.5;1.0;0.25;0.0;0.0;2.0;2.0;2.75;3.0;1.5;5.75;0.25;1.0;-0.238281;0.052734;0.955078;-1.96;0.7;-0.35;253.0;0.038911;-0.023337;1.75;2.75;2.75;2.75;0.5;1.25;0.0;1.0;1.0;0.75;1.75;1.75;2.0;4.5;0.0;0.75;-0.233887;0.01416;0.976562;-0.7;-1.47;1.19;215.0;-0.01575;-0.08438
3.92;3.5;2.25;3.0;2.5;1.0;0.5;0.0;0.25;1.75;2.25;2.25;3.25;1.5;5.75;0.0;1.25;-0.243164;0.051758;0.96875;-1.96;0.7;-0.49;261.0;0.021568;-0.03064;2.5;2.75;2.75;2.75;0.5;1.25;0.0;1.0;1.0;0.75;1.75;1.75;2.25;4.25;0.0;0.75;-0.236328;0.009277;0.971191;-0.7;-1.47;1.12;221.0;-0.029065;-0.083955
3.93;3.75;2.25;3.0;2.5;1.0;0.25;0.0;0.25;1.75;1.75;2.25;2.5;1.25;5.75;0.0;1.0;-0.245605;0.053711;0.96582;-1.96;0.7;-0.49;247.0;0.007897;-0.0172;1.75;2.5;2.75;2.25;0.75;1.0;0.0;0.75;0.75;0.25;1.75;1.75;1.25;4.25;0.0;1.0;-0.239746;0.01416;0.974609;-0.77;-1.47;1.19;192.0;-0.021753;-0.072589
3.94;3.5;2.0;3.0;2.75;1.0;0.25;0.0;0.0;2.0;1.5;2.5;3.5;1.25;5.75;0.25;1.0;-0.236816;0.052734;0.96582;-1.89;0.7;-0.42;256.0;0.02511;-0.022966;2.25;2.25;2.75;2.25;0.5;1.0;0.0;0.75;0.75;0.25;1.75;2.25;1.0;4.25;0.25;1.0;-0.237305;0.01123;0.973633;-0.77;-1.54;1.19;197.0;-0.016869;-0.07073
3.95;3.5;2.75;3.0;2.75;0.75;0.0;0.0;0.0;1.75;1.75;0.75;2.75;1.5;5.75;0.25;1.0;-0.236328;0.052246;0.958496;-1.82;0.77;-0.42;236.0;-0.000279;-0.017236;2.5;2.75;2.75;2.5;0.5;0.75;0.0;0.75;0.5;0.25;1.75;1.75;1.75;4.25;0.0;1.0;-0.23291;0.010742;0.972656;-0.91;-1.47;1.26;199.0;-0.03872;-0.08054
3.96;3.25;2.75;3.25;2.5;1.0;0.0;0.0;0.0;1.75;1.25;2.75;2.5;1.5;5.75;0.25;1.25;-0.243652;0.054199;0.957031;-1.96;0.77;-0.42;248.0;0.013801;-0.021965;2.25;3.25;3.0;2.5;0.5;0.75;0.0;0.75;0.5;0.25;1.5;1.75;2.0;3.75;0.0;0.75;-0.239746;-0.016113;0.964844;-0.91;-1.4;1.05;198.0;-0.056254;-0.088746
3.97;3.75;2.25;3.25;2.25;1.0;0.0;0.0;0.25;1.5;1.25;3.25;2.25;1.5;5.75;0.25;1.0;-0.236328;0.054199;0.966309;-2.03;0.7;-0.49;248.0;0.013391;-0.021447;1.5;2.75;2.5;2.5;0.75;0.75;0.0;0.75;0.75;0.0;0.5;1.75;1.25;3.75;0.0;0.75;-0.236816;0.009277;0.963379;-0.84;-1.47;1.19;171.0;-0.050683;-0.080105
3.98;3.75;2.25;3.25;2.5;1.0;0.0;0.0;0.25;1.5;1.75;2.5;2.25;1.25;5.75;0.0;1.0;-0.237305;0.053223;0.967773;-1.89;0.49;-0.42;244.0;0.00413;-0.015431;1.5;2.5;2.75;2.5;0.75;0.75;0.0;0.75;0.75;0.25;0.75;1.75;1.25;4.0;0.0;1.0;-0.234375;0.005371;0.973633;-1.12;-1.68;1.26;179.0;-0.035361;-0.074574
3.99;3.75;2.75;3.25;2.75;1.0;0.25;0.0;0.0;1.75;2.0;3.0;2.75;1.75;5.75;0.0;0.75;-0.236328;0.054688;0.963867;-1.89;0.56;-0.42;265.0;0.006711;-0.024695;1.75;2.5;3.0;2.5;0.5;0.75;0.0;0.75;0.25;0.25;0.75;1.25;1.0;3.5;0.0;0.75;-0.233887;0.007324;0.974121;-1.12;-1.54;1.12;165.0;-0.073214;-0.076917
4.0;4.0;2.75;3.0;2.75;1.0;0.25;0.0;0.0;1.75;2.25;3.0;3.0;1.5;5.5;0.25;0.75;-0.241699;0.052734;0.959473;-1.96;0.56;-0.49;268.0;0.008813;-0.024959;2.25;2.25;2.75;2.5;0.5;1.0;0.0;0.75;0.25;0.5;2.0;1.25;1.0;3.75;0.0;0.75;-0.225098;-0.009277;0.936523;-1.12;-1.47;1.12;182.0;-0.049418;-0.074294
4.01;4.0;2.75;3.25;2.75;0.75;0.25;0.0;0.25;1.5;1.75;3.0;3.5;1.5;5.75;0.25;1.0;-0.237793;0.054199;0.955566;-1.96;0.56;-0.49;272.0;0.008516;-0.037724;2.5;2.25;2.75;2.5;0.75;1.0;0.0;0.75;0.25;0.75;1.5;1.75;1.25;3.75;0.25;0.5;-0.237305;0.01123;0.975098;-1.05;-1.61;1.12;192.0;-0.04646;-0.075548
4.02;3.75;3.0;3.5;2.75;0.75;0.25;0.0;0.25;1.5;1.75;3.0;3.0;1.5;5.5;0.25;0.75;-0.244629;0.051758;0.961426;-1.96;0.56;-0.35;266.0;-0.001147;-0.034711;2.25;2.5;3.0;2.5;0.5;1.0;0.0;0.75;0.5;0.25;1.25;1.75;1.75;3.75;0.0;0.5;-0.225586;0.030273;0.961426;-1.12;-1.54;1.33;189.0;-0.054395;-0.083301
4.03;3.75;2.75;3.0;2.75;0.75;0.25;0.0;0.25;1.5;2.0;2.75;2.5;1.5;5.25;0.25;1.0;-0.243652;0.049805;0.961914;-1.96;0.56;-0.42;255.0;0.00204;-0.032673;2.75;2.5;3.0;3.25;0.5;1.0;0.0;0.75;0.5;0.0;1.25;1.25;0.75;4.0;0.0;0.75;-0.23877;0.012207;0.975586;-1.05;-1.68;1.12;189.0;-0.082137;-0.065042
4.04;3.75;2.25;3.0;2.75;1.0;0.5;0.0;0.0;1.5;2.0;1.5;3.0;1.5;5.5;0.25;1.0;-0.239746;0.048828;0.961914;-1.89;0.56;-0.35;248.0;0.00287;-0.026816;2.75;2.5;3.0;3.0;0.75;0.5;0.0;0.5;0.5;0.25;1.25;1.25;0.75;3.75;0.0;0.5;-0.233887;0.01123;0.977051;-1.19;-1.75;1.19;181.0;-0.083364;-0.049703
4.05;4.0;3.0;3.5;2.75;1.0;0.5;0.0;0.0;1.5;2.0;1.0;3.25;1.5;5.75;0.25;0.75;-0.23584;0.054199;0.962402;-1.96;0.56;-0.42;259.0;-0.015511;-0.024792;3.25;2.5;2.5;2.75;0.75;0.5;0.0;0.75;0.75;0.5;1.0;1.75;1.0;3.5;0.0;0.5;-0.234863;0.006348;0.970215;-0.91;-1.75;1.26;189.0;-0.072849;-0.058287
4.06;3.75;3.0;3.5;2.75;1.0;0.25;0.0;0.25;1.5;2.25;2.0;3.25;1.5;5.75;0.25;0.25;-0.241699;0.055176;0.957031;-2.03;0.56;-0.42;266.0;-0.004335;-0.027928;2.5;2.5;2.5;2.75;0.5;0.75;0.0;0.5;0.75;0.5;1.0;1.75;1.0;4.0;0.25;0.75;-0.234863;0.010254;0.979004;-1.05;-1.75;1.26;186.0;-0.044889;-0.059847
4.07;3.75;2.75;3.5;2.75;1.0;0.25;0.0;0.25;1.5;2.5;2.5;3.25;1.5;5.75;0.25;0.5;-0.238281;0.050781;0.961914;-2.1;0.35;-0.49;272.0;0.005792;-0.028838;2.75;2.5;3.0;3.0;0.5;0.75;0.0;0.5;0.75;0.5;1.0;1.75;1.25;3.75;0.0;0.25;-0.231934;0.006348;0.977539;-1.33;-2.03;1.12;190.0;-0.069682;-0.059048
4.08;3.5;3.0;3.25;2.5;1.0;0.25;0.0;0.25;1.5;2.5;2.0;3.0;1.5;5.75;0.25;0.75;-0.237793;0.052734;0.95752;-2.03;0.35;-0.49;262.0;0.007226;-0.027858;3.0;2.75;3.25;3.0;0.75;0.75;0.0;0.5;1.0;0.75;1.25;1.75;1.75;3.75;0.0;0.25;-0.236816;-0.000977;0.975098;-1.12;-1.82;1.19;210.0;-0.064353;-0.057337
4.09;3.75;2.75;3.25;2.5;1.25;0.5;0.0;0.0;1.5;2.75;1.75;3.0;1.75;5.25;0.0;1.0;-0.246582;0.05127;0.964355;-2.03;0.14;-0.42;260.0;-0.001561;-0.027784;2.75;3.25;3.25;3.0;0.75;0.5;0.0;0.75;0.75;0.75;1.25;1.75;1.75;4.0;0.0;0.5;-0.233398;0.015625;0.98291;-1.33;-1.75;1.05;213.0;-0.063381;-0.067362
4.1;3.75;2.75;3.5;2.75;1.0;0.25;0.0;0.25;1.5;2.25;2.0;3.0;1.25;5.75;0.25;1.0;-0.244629;0.052734;0.962402;-2.1;0.42;-0.49;264.0;0.000439;-0.025383;2.5;3.25;3.25;3.25;0.5;0.5;0.0;0.75;0.75;0.75;1.25;1.75;1.25;4.0;0.0;0.5;-0.231934;0.004395;0.975586;-1.19;-1.68;1.05;207.0;-0.065755;-0.06539
4.11;4.0;2.75;3.5;2.75;1.0;0.25;0.0;0.25;1.75;2.0;2.25;2.5;1.75;5.75;0.25;1.0;-0.240234;0.048828;0.960938;-2.03;0.21;-0.49;268.0;-0.001421;-0.024214;3.25;3.25;3.25;2.75;0.5;0.75;0.0;0.75;0.5;0.5;1.25;1.25;1.0;3.75;0.0;0.5;-0.234375;0.003418;0.978027;-1.19;-1.68;1.12;198.0;-0.093118;-0.05787
4.12;4.5;3.25;3.5;2.75;1.0;0.5;0.0;0.25;1.75;1.75;2.5;3.25;1.75;5.5;0.25;0.75;-0.239258;0.056641;0.962402;-1.96;0.21;-0.35;282.0;-0.01376;-0.033999;3.0;3.25;3.5;3.0;0.5;1.0;0.0;0.75;0.5;0.25;1.25;1.25;1.0;3.75;0.0;0.75;-0.236328;0.013672;0.970215;-0.98;-1.61;1.12;202.0;-0.095685;-0.065047
4.13;5.0;3.5;3.5;2.75;1.0;0.25;0.0;0.25;1.75;1.75;2.25;3.0;1.25;5.75;0.0;0.75;-0.245605;0.052734;0.961426;-1.96;0.49;-0.42;277.0;-0.028199;-0.020581;2.75;3.25;3.5;3.5;0.5;0.75;0.0;1.0;0.25;0.25;1.5;1.75;1.0;4.0;0.0;0.75;-0.237305;0.009277;0.976562;-0.91;-1.61;1.12;211.0;-0.085372;-0.080706
4.14;4.5;2.75;3.5;2.75;1.25;0.5;0.0;0.25;1.75;2.0;2.0;2.0;1.25;5.75;0.0;0.5;-0.242188;0.048828;0.961914;-1.89;0.35;-0.28;262.0;-0.02493;-0.008913;2.75;3.25;3.25;3.25;0.75;0.75;0.0;1.0;0.5;0.25;1.75;1.75;1.0;4.0;0.0;0.75;-0.22168;0.018555;0.96582;-0.7;-1.61;1.26;213.0;-0.074072;-0.075291
4.15;4.0;2.75;3.25;2.75;1.25;0.5;0.0;0.0;1.25;2.25;2.25;2.0;1.5;5.75;0.25;0.5;-0.23584;0.052734;0.960449;-1.96;0.49;-0.42;255.0;-0.012913;-0.017321;3.0;3.25;3.5;3.0;0.75;1.0;0.0;0.75;0.5;0.5;1.5;1.75;1.0;3.5;0.0;0.75;-0.234375;0.01416;0.974609;-0.7;-1.68;1.19;211.0;-0.087151;-0.069755
4.16;4.0;2.75;3.5;2.75;1.25;0.0;0.0;0.0;1.25;1.75;2.25;2.25;1.5;5.75;0.25;0.5;-0.240723;0.051758;0.961914;-1.96;0.35;-0.35;251.0;-0.015193;-0.015551;3.0;3.5;3.0;3.25;0.75;1.25;0.0;0.75;0.25;0.5;1.5;1.75;1.25;3.5;0.25;0.75;-0.233398;0.013184;0.970215;-0.84;-1.61;1.26;214.0;-0.086134;-0.085793
4.17;5.0;3.0;4.25;3.0;1.0;0.25;0.0;0.25;1.5;2.0;2.25;2.25;1.5;5.75;0.25;0.25;-0.241211;0.057617;0.959961;-1.96;0.42;-0.42;277.0;-0.035724;-0.014133;3.0;3.5;3.25;3.25;0.75;1.0;0.0;0.5;0.25;0.0;1.5;1.75;1.0;3.5;0.25;0.75;-0.236328;0.005371;0.975586;-0.7;-1.68;1.12;205.0;-0.097818;-0.076787
4.18;4.5;2.75;4.0;3.0;1.0;0.5;0.0;0.0;1.25;2.0;2.25;2.25;1.25;5.75;0.25;0.25;-0.240234;0.04834;0.961426;-1.96;0.49;-0.49;263.0;-0.030613;-0.013523;2.75;3.5;3.25;3.5;0.5;1.0;0.0;0.5;0.5;0.25;1.5;1.75;1.0;3.5;0.0;0.75;-0.229492;0.012207;0.971191;-0.84;-1.54;1.26;205.0;-0.093555;-0.075714
4.19;4.5;3.0;4.0;3.0;1.25;0.5;0.0;0.0;1.25;2.0;2.0;2.5;1.25;5.25;0.25;0.75;-0.242676;0.05127;0.955078;-2.03;0.56;-0.42;266.0;-0.03695;-0.020639;3.25;3.5;3.25;3.75;0.75;0.75;0.0;0.5;0.5;0.25;1.0;1.25;0.75;3.5;0.0;0.5;-0.232422;0.007812;0.975586;-0.77;-1.61;1.26;200.0;-0.12083;-0.058993
