Time;left pressure 1[N/cm²];left pressure 2[N/cm²];left pressure 3[N/cm²];left pressure 4[N/cm²];left pressure 5[N/cm²];left pressure 6[N/cm²];left pressure 7[N/cm²];left pressure 8[N/cm²];left pressure 9[N/cm²];left pressure 10[N/cm²];left pressure 11[N/cm²];left pressure 12[N/cm²];left pressure 13[N/cm²];left pressure 14[N/cm²];left pressure 15[N/cm²];left pressure 16[N/cm²];left acceleration X[g];left acceleration Y[g];left acceleration Z[g];left angular X[dps];left angular Y[dps];left angular Z[dps];left total force[N];left center of pressure X[-0.5...+0.5];left center of pressure Y[-0.5...+0.5];right pressure 1[N/cm²];right pressure 2[N/cm²];right pressure 3[N/cm²];right pressure 4[N/cm²];right pressure 5[N/cm²];right pressure 6[N/cm²];right pressure 7[N/cm²];right pressure 8[N/cm²];right pressure 9[N/cm²];right pressure 10[N/cm²];right pressure 11[N/cm²];right pressure 12[N/cm²];right pressure 13[N/cm²];right pressure 14[N/cm²];right pressure 15[N/cm²];right pressure 16[N/cm²];right acceleration X[g];right acceleration Y[g];right acceleration Z[g];right angular X[dps];right angular Y[dps];right angular Z[dps];right total force[N];right center of pressure X[-0.5...+0.5];right center of pressure Y[-0.5...+0.5]
0.0;5.0;4.25;4.0;4.0;0.75;1.0;0.0;0.5;0.75;1.25;2.25;2.25;1.0;2.0;0.75;1.0;-0.216309;0.027832;0.973145;-1.96;1.54;-0.35;315.0;-0.110541;-0.068983;5.5;5.25;5.25;4.25;2.0;1.5;0.0;1.25;0.25;1.5;2.25;2.75;1.5;4.25;0.25;1.0;-0.240234;0.023926;0.986328;-0.07;-1.68;0.28;397.0;-0.104446;-0.072016
0.01;5.0;4.25;4.0;4.0;0.75;1.0;0.0;0.5;0.5;1.5;2.25;2.25;1.25;2.0;0.5;0.75;-0.210449;0.026855;0.972168;-1.89;1.61;-0.28;313.0;-0.115924;-0.073015;5.5;5.25;5.25;4.25;2.0;1.5;0.0;1.25;0.25;1.5;2.25;2.75;1.5;4.25;0.25;1.0;-0.240234;0.023926;0.986328;-0.07;-1.68;0.28;397.0;-0.104446;-0.072016
0.02;4.5;4.25;4.25;4.0;0.5;0.75;0.0;0.5;0.5;1.5;2.25;2.5;1.25;2.0;0.5;0.75;-0.20752;0.028809;0.981934;-1.68;1.68;-0.28;308.0;-0.109262;-0.075942;5.5;5.25;5.25;4.25;2.0;1.5;0.0;1.25;0.25;1.5;2.25;2.75;1.5;4.25;0.25;1.0;-0.240234;0.023926;0.986328;-0.07;-1.68;0.28;397.0;-0.104446;-0.072016
0.03;4.25;4.25;4.0;4.0;0.5;0.75;0.0;0.5;0.5;1.75;2.25;2.5;1.0;1.5;0.75;0.75;-0.208008;0.02832;0.977051;-1.89;1.68;-0.28;301.0;-0.107138;-0.078719;5.5;5.25;5.25;4.25;2.0;1.5;0.0;1.25;0.25;1.5;2.25;2.75;1.5;4.25;0.25;1.0;-0.240234;0.023926;0.986328;-0.07;-1.68;0.28;397.0;-0.104446;-0.072016
0.04;4.25;4.0;4.25;4.0;0.75;0.75;0.0;0.5;0.5;1.25;2.25;2.25;1.5;2.0;0.5;0.75;-0.21582;0.024902;0.979004;-1.96;1.61;-0.21;302.0;-0.108331;-0.07764;5.5;5.25;5.25;4.25;2.0;1.5;0.0;1.25;0.25;1.5;2.25;2.75;1.5;4.25;0.25;1.0;-0.240234;0.023926;0.986328;-0.07;-1.68;0.28;397.0;-0.104446;-0.072016
0.05;4.5;4.0;4.0;4.0;0.75;0.75;0.0;0.5;0.5;1.0;2.25;2.0;1.5;2.25;0.5;1.0;-0.212402;0.027344;0.975098;-1.82;1.54;-0.21;300.0;-0.109398;-0.076154;5.5;5.25;5.25;4.25;2.0;1.5;0.0;1.25;0.25;1.5;2.25;2.75;1.5;4.25;0.25;1.0;-0.240234;0.023926;0.986328;-0.07;-1.68;0.28;397.0;-0.104446;-0.072016
0.06;4.5;4.5;4.0;4.0;0.5;0.75;0.0;0.25;0.5;1.25;2.0;2.25;1.5;2.25;0.5;1.0;-0.216309;0.02832;0.976562;-1.96;1.68;-0.28;301.0;-0.11229;-0.075163;5.5;5.25;5.25;4.25;2.0;1.5;0.0;1.25;0.25;1.5;2.25;2.75;1.5;4.25;0.25;1.0;-0.240234;0.023926;0.986328;-0.07;-1.68;0.28;397.0;-0.104446;-0.072016
0.07;4.5;4.25;4.0;4.0;0.5;0.75;0.0;0.25;0.5;1.25;2.5;2.25;1.25;2.25;0.75;0.75;-0.20752;0.029785;0.975098;-1.89;1.68;-0.21;303.0;-0.103761;-0.071405;5.5;5.25;5.25;4.25;2.0;1.5;0.0;1.25;0.25;1.5;2.25;2.75;1.5;4.25;0.25;1.0;-0.240234;0.023926;0.986328;-0.07;-1.68;0.28;397.0;-0.104446;-0.072016
0.08;4.5;4.25;4.0;3.75;0.5;0.5;0.0;0.5;0.5;1.25;2.75;2.0;1.25;2.25;0.5;0.75;-0.209961;0.022461;0.980469;-1.89;1.61;-0.21;299.0;-0.104838;-0.070558;5.5;5.0;5.25;4.25;2.0;1.5;0.0;1.25;0.25;1.5;2.25;2.75;1.5;4.25;0.25;1.0;-0.241211;0.021484;0.987305;-0.07;-1.68;0.28;394.0;-0.102623;-0.071466
0.09;4.5;4.0;4.0;4.0;0.5;0.75;0.0;0.5;0.5;1.5;2.5;2.0;1.25;2.25;0.5;0.75;-0.209961;0.02832;0.978027;-1.89;1.75;-0.21;302.0;-0.104439;-0.071503;5.5;5.0;4.75;4.25;2.0;1.25;0.0;1.0;0.25;1.5;2.25;2.75;1.5;4.5;0.25;1.25;-0.240234;0.023926;0.984863;-0.0;-1.68;0.21;386.0;-0.09633;-0.068689
0.1;4.0;4.0;4.0;4.0;0.5;0.5;0.0;0.25;0.5;1.25;2.25;2.25;1.25;2.25;0.5;0.75;-0.208984;0.027832;0.971191;-1.82;1.82;-0.28;288.0;-0.103085;-0.071481;5.25;5.0;4.75;4.0;2.0;1.25;0.0;1.25;0.25;1.5;2.75;2.25;1.5;4.5;0.5;1.25;-0.23584;0.013184;0.98584;-0.07;-1.61;0.35;387.0;-0.08846;-0.069585
0.11;4.25;4.0;4.0;3.75;0.5;0.5;0.0;0.25;0.5;1.75;2.5;2.25;1.0;2.5;0.5;0.75;-0.212891;0.03125;0.983398;-1.96;1.75;-0.21;295.0;-0.093319;-0.061829;5.25;5.0;5.25;4.0;2.25;1.0;0.0;1.25;0.25;1.25;2.25;3.0;1.5;4.5;0.25;1.25;-0.242676;0.022461;0.98584;-0.14;-1.61;0.28;390.0;-0.094548;-0.06974
0.12;4.25;4.0;4.0;3.75;0.5;0.5;0.0;0.25;0.5;1.75;2.5;2.0;1.25;2.0;0.5;0.75;-0.211426;0.028809;0.974121;-1.82;1.68;-0.21;291.0;-0.101511;-0.066196;5.25;5.0;5.25;4.0;2.5;1.25;0.0;1.0;0.25;1.5;2.25;3.0;1.75;4.75;0.25;1.25;-0.242676;0.024902;0.987305;-0.14;-1.54;0.21;398.0;-0.089604;-0.067084
0.13;4.75;4.0;4.0;3.75;0.5;0.5;0.0;0.25;0.5;1.0;2.5;2.0;1.25;2.0;0.5;0.75;-0.208496;0.026367;0.976562;-1.89;1.75;-0.14;288.0;-0.116198;-0.066574;5.0;4.75;5.25;3.75;2.25;1.5;0.0;1.25;0.0;1.5;2.25;3.0;1.75;5.0;0.25;1.25;-0.238281;0.023926;0.97998;-0.35;-1.54;0.21;393.0;-0.083842;-0.073538
0.14;4.75;4.0;4.0;3.75;0.5;1.0;0.0;0.25;0.25;1.25;2.5;2.25;1.25;2.0;0.5;1.0;-0.214844;0.026367;0.973633;-2.03;1.82;-0.35;297.0;-0.112772;-0.076139;5.25;4.75;4.5;4.0;2.25;1.5;0.0;1.25;0.0;1.5;2.5;3.0;1.75;5.0;0.5;1.5;-0.245605;0.018066;0.981934;-0.28;-1.61;0.35;397.0;-0.076678;-0.077988
0.15;4.5;4.0;4.0;4.0;0.5;1.0;0.0;0.5;0.25;1.0;2.5;2.25;1.25;2.25;0.5;1.0;-0.216797;0.029297;0.977539;-1.96;1.75;-0.21;300.0;-0.109925;-0.082505;5.5;4.75;4.75;4.0;2.25;1.5;0.0;1.25;0.25;1.5;2.5;3.0;1.75;5.0;0.5;1.25;-0.238281;0.024414;0.988281;-0.28;-1.61;0.28;404.0;-0.078847;-0.071992
0.16;4.75;4.0;4.0;4.0;0.75;0.75;0.0;0.5;0.5;1.0;2.25;2.25;1.25;2.0;0.5;0.75;-0.209961;0.025879;0.980469;-1.96;1.75;-0.21;300.0;-0.116985;-0.074429;5.5;4.5;5.25;4.0;2.0;1.25;0.0;1.25;0.0;1.5;2.75;3.0;1.75;5.0;0.0;1.25;-0.240234;0.02002;0.985352;-0.35;-1.61;0.35;396.0;-0.085904;-0.071732
0.17;5.0;4.0;3.75;4.0;0.5;0.75;0.0;0.5;0.5;1.5;2.25;2.0;1.0;2.0;0.5;0.75;-0.210449;0.028809;0.978027;-2.03;1.54;-0.28;297.0;-0.116729;-0.068425;5.25;4.5;4.75;4.25;2.25;1.0;0.0;1.25;0.0;1.5;2.75;3.0;1.75;5.0;0.0;1.25;-0.242188;0.020508;0.988281;-0.21;-1.54;0.21;391.0;-0.082466;-0.073968
0.18;4.5;4.0;3.75;4.0;0.5;0.75;0.0;0.5;0.25;1.0;2.25;2.5;0.75;2.0;0.5;0.75;-0.20752;0.031738;0.974609;-1.96;1.68;-0.21;287.0;-0.118471;-0.079135;5.25;4.5;4.5;4.0;2.25;1.5;0.0;1.0;0.25;1.5;2.75;2.75;1.75;5.0;0.25;1.75;-0.235352;0.020996;0.98877;-0.35;-1.61;0.28;393.0;-0.074163;-0.071074
0.19;4.75;4.0;4.0;4.0;0.5;1.0;0.0;0.5;0.25;1.0;2.25;1.75;1.0;2.25;0.5;1.0;-0.21582;0.026367;0.977051;-1.96;1.54;-0.21;293.0;-0.123324;-0.073872;5.25;4.75;4.25;4.0;2.25;1.75;0.0;1.25;0.0;1.5;2.75;3.25;1.5;5.0;0.25;1.5;-0.235352;0.02832;0.98291;-0.28;-1.54;0.28;397.0;-0.076533;-0.080072
0.2;4.5;4.0;3.75;4.0;0.5;0.75;0.0;0.5;0.5;1.25;2.25;2.25;1.25;2.25;0.5;1.25;-0.206055;0.02832;0.972656;-1.96;1.68;-0.35;299.0;-0.101844;-0.077962;5.25;4.75;4.5;3.75;2.25;1.5;0.0;1.25;0.0;1.5;2.5;2.75;1.25;5.25;0.0;1.5;-0.245117;0.025391;0.985352;-0.28;-1.54;0.28;384.0;-0.083829;-0.069642
0.21;4.5;4.25;4.0;4.0;0.5;0.75;0.0;0.5;0.5;1.0;2.25;2.5;1.25;2.25;0.75;1.0;-0.210938;0.027832;0.973145;-1.96;1.68;-0.21;306.0;-0.103616;-0.079172;5.25;4.5;4.75;4.0;2.25;1.5;0.0;1.25;0.25;1.5;2.75;2.75;1.75;5.0;0.0;1.0;-0.244629;0.023438;0.98291;-0.28;-1.47;0.28;393.0;-0.082663;-0.07045
0.22;5.0;4.25;4.0;4.0;0.5;0.75;0.0;0.5;0.5;1.0;2.25;2.5;1.0;2.25;0.75;0.75;-0.208008;0.02832;0.973633;-2.03;1.68;-0.21;307.0;-0.112637;-0.072275;5.25;4.5;4.75;3.75;2.0;1.5;0.0;1.25;0.25;1.5;2.75;3.0;1.5;5.5;0.0;1.0;-0.237305;0.021973;0.984375;-0.42;-1.68;0.21;392.0;-0.074985;-0.066949
0.23;4.75;4.25;4.0;4.0;0.5;0.75;0.0;0.25;0.5;1.25;2.5;2.25;1.0;2.5;0.75;0.75;-0.203613;0.025879;0.971191;-1.89;1.75;-0.14;306.0;-0.104637;-0.06538;5.25;4.5;4.75;3.75;1.75;1.25;0.0;1.25;0.25;1.5;2.5;3.25;1.75;5.25;0.25;1.25;-0.239258;0.023438;0.983398;-0.28;-1.54;0.28;390.0;-0.070733;-0.072117
0.24;4.5;4.25;3.75;4.0;0.5;0.75;0.0;0.25;0.5;1.0;2.25;2.25;1.0;2.25;0.75;0.75;-0.213379;0.024902;0.976074;-2.03;1.75;-0.21;293.0;-0.110241;-0.070853;5.25;4.75;4.75;3.75;2.0;1.25;0.0;1.25;0.25;1.5;2.25;3.25;1.5;5.0;0.25;1.25;-0.244141;0.019043;0.983887;-0.35;-1.54;0.21;389.0;-0.079154;-0.070634
0.25;4.5;4.75;3.75;4.0;0.5;0.5;0.0;0.5;0.5;1.0;2.25;2.25;1.0;2.0;0.75;0.75;-0.212891;0.021484;0.976562;-1.96;1.68;-0.35;297.0;-0.117112;-0.076382;5.25;4.75;4.5;3.75;2.0;1.25;0.0;1.25;0.0;1.5;2.75;3.0;1.5;5.0;0.0;1.5;-0.243164;0.021484;0.985352;-0.35;-1.68;0.42;384.0;-0.080253;-0.074589
0.26;4.75;4.25;4.0;4.0;0.5;0.5;0.0;0.5;0.5;1.5;2.25;2.0;1.0;2.0;0.75;0.75;-0.211914;0.026367;0.979004;-1.96;1.61;-0.28;300.0;-0.113024;-0.067503;5.0;4.5;4.5;3.75;2.0;1.25;0.0;1.25;0.0;1.25;2.75;2.75;1.75;5.0;0.0;1.5;-0.236816;0.023438;0.983887;-0.28;-1.68;0.21;376.0;-0.078772;-0.076929
0.27;4.75;4.0;4.0;4.0;0.5;0.75;0.0;0.5;0.5;2.0;2.5;2.5;1.25;2.25;1.0;0.75;-0.208984;0.031738;0.975586;-1.96;1.54;-0.28;320.0;-0.087693;-0.071713;5.0;4.5;4.75;4.0;2.0;1.5;0.0;1.0;0.25;1.25;2.75;3.0;1.75;5.5;0.25;1.25;-0.240234;0.025391;0.97998;-0.35;-1.75;0.35;392.0;-0.070905;-0.07007
0.28;4.75;4.0;4.0;4.0;0.5;0.75;0.0;0.5;0.5;1.5;2.25;2.0;1.0;1.5;0.5;0.75;-0.20752;0.025879;0.979004;-1.96;1.54;-0.35;293.0;-0.123299;-0.072059;5.25;4.5;4.5;4.0;2.0;1.5;0.0;1.0;0.0;1.5;2.75;2.25;1.5;5.5;0.25;1.5;-0.23877;0.021973;0.983887;-0.28;-1.75;0.28;382.0;-0.078027;-0.066036
0.29;4.5;4.0;4.0;4.0;0.5;0.75;0.0;0.5;0.5;1.25;2.5;2.25;1.25;1.5;0.5;1.0;-0.209961;0.02832;0.978027;-1.89;1.47;-0.28;297.0;-0.113672;-0.081143;5.25;4.5;4.5;3.75;2.0;1.75;0.0;1.25;0.0;1.5;2.5;2.75;1.75;5.5;0.5;1.5;-0.237793;0.02002;0.986328;-0.28;-1.54;0.21;393.0;-0.070016;-0.074542
0.3;4.75;4.0;4.0;4.0;0.5;0.75;0.0;0.5;0.5;1.75;2.25;2.0;1.25;2.25;0.5;0.75;-0.20752;0.027344;0.981934;-1.89;1.47;-0.21;305.0;-0.106872;-0.068433;5.25;4.5;4.75;4.0;2.0;1.75;0.0;1.25;0.25;1.5;2.75;2.75;1.75;5.25;0.25;1.5;-0.247559;0.024902;0.984863;-0.35;-1.68;0.35;400.0;-0.073975;-0.07314
0.31;4.75;4.0;4.0;4.0;0.75;0.75;0.0;0.5;0.5;1.25;2.5;2.75;1.0;2.0;0.5;0.75;-0.206055;0.026855;0.980469;-1.82;1.4;-0.21;308.0;-0.107507;-0.074677;5.0;4.5;4.75;4.0;2.0;1.5;0.0;1.25;0.25;1.5;2.75;3.0;1.75;5.25;0.25;1.5;-0.241211;0.021484;0.981934;-0.35;-1.68;0.42;397.0;-0.069422;-0.074433
0.32;4.75;4.25;4.0;4.0;0.5;0.75;0.0;0.5;0.5;1.0;2.5;2.25;1.0;2.0;0.5;0.75;-0.214844;0.029785;0.97168;-1.96;1.47;-0.35;300.0;-0.118288;-0.073941;5.0;4.25;4.5;4.0;2.0;1.5;0.0;1.0;0.25;1.5;2.5;3.0;1.75;5.25;0.25;1.25;-0.239746;0.020508;0.984375;-0.21;-1.61;0.35;385.0;-0.070014;-0.070804
0.33;4.75;4.25;4.0;4.0;0.25;0.75;0.0;0.5;0.25;1.25;2.0;2.0;0.75;2.25;0.5;0.75;-0.211426;0.024414;0.979004;-1.96;1.47;-0.35;289.0;-0.126706;-0.070383;5.0;4.5;4.5;3.5;1.75;1.5;0.0;1.0;0.25;1.5;2.5;3.0;1.75;5.5;0.5;1.5;-0.242188;0.022949;0.991211;-0.35;-1.68;0.21;385.0;-0.061138;-0.069682
0.34;4.5;4.25;4.0;4.0;0.25;0.75;0.0;0.5;0.5;1.25;2.25;2.25;1.25;2.0;0.25;0.75;-0.208008;0.024902;0.972168;-1.96;1.61;-0.21;294.0;-0.11819;-0.078001;4.75;4.5;4.5;3.75;1.75;1.5;0.0;1.25;0.0;1.5;2.5;3.25;1.75;5.5;0.25;1.25;-0.242188;0.022949;0.990723;-0.28;-1.61;0.35;384.0;-0.065522;-0.078717
0.35;4.5;4.25;4.0;4.0;0.5;0.75;0.0;0.5;0.5;1.25;2.5;2.25;1.0;1.75;0.25;0.75;-0.208496;0.02832;0.978516;-1.89;1.54;-0.28;295.0;-0.121143;-0.07607;5.0;4.5;4.75;4.0;1.75;1.5;0.0;1.25;0.0;1.75;2.5;3.25;1.75;5.5;0.25;1.5;-0.242676;0.02832;0.992676;-0.35;-1.61;0.35;396.0;-0.067204;-0.07719
0.36;4.5;4.25;4.0;4.0;0.5;1.0;0.0;0.5;0.5;1.0;2.5;2.5;1.0;1.75;0.5;0.75;-0.211914;0.026367;0.969727;-1.96;1.61;-0.28;301.0;-0.117035;-0.081039;5.0;4.5;4.5;4.0;2.0;1.25;0.0;1.25;0.0;1.5;2.5;3.0;1.75;5.5;0.0;1.75;-0.241211;0.028809;0.986328;-0.28;-1.47;0.35;387.0;-0.071259;-0.076288
0.37;4.75;4.25;4.0;4.0;0.5;1.0;0.0;0.5;0.5;1.0;2.25;2.5;1.25;2.0;0.25;0.75;-0.210449;0.02832;0.977539;-1.96;1.47;-0.28;302.0;-0.121235;-0.080008;5.0;4.75;4.5;3.75;2.25;1.25;0.0;1.25;0.0;1.25;2.5;2.75;1.75;5.5;0.25;1.5;-0.246094;0.01709;0.98584;-0.35;-1.68;0.35;385.0;-0.07444;-0.073435
0.38;5.0;4.25;4.0;3.75;0.5;0.5;0.0;0.5;0.5;1.5;2.25;2.0;1.0;2.25;0.25;0.75;-0.208496;0.030273;0.975586;-1.89;1.4;-0.21;297.0;-0.119403;-0.062489;5.0;4.5;4.5;3.75;2.25;1.5;0.0;1.25;0.0;1.25;2.5;3.0;1.75;5.75;0.25;1.5;-0.241699;0.021973;0.97998;-0.28;-1.75;0.21;390.0;-0.068397;-0.074409
0.39;4.25;4.0;4.0;4.0;0.5;0.5;0.0;0.5;0.5;1.75;2.5;2.0;1.25;2.0;0.5;1.0;-0.211914;0.030273;0.972168;-1.96;1.33;-0.35;299.0;-0.09998;-0.072931;4.75;4.5;4.75;3.5;2.5;1.25;0.0;1.25;0.0;1.25;2.5;3.0;1.75;5.75;0.25;1.5;-0.233398;0.019043;0.985352;-0.35;-1.61;0.14;388.0;-0.065846;-0.071037
0.4;4.0;4.0;4.0;4.0;0.5;0.75;0.0;0.5;0.25;1.5;2.5;2.25;1.25;2.0;0.25;0.75;-0.208984;0.028809;0.976074;-1.96;1.33;-0.28;291.0;-0.10875;-0.08234;4.75;4.5;4.5;3.75;2.25;1.25;0.0;1.0;0.0;1.5;2.75;3.0;1.75;5.5;0.25;1.5;-0.242188;0.029785;0.98877;-0.21;-1.68;0.28;384.0;-0.064676;-0.071839
0.41;4.0;4.0;4.0;4.0;0.5;0.75;0.0;0.5;0.25;1.25;2.5;2.5;1.25;2.5;0.25;0.75;-0.203613;0.026367;0.970703;-1.96;1.26;-0.28;296.0;-0.101485;-0.081784;4.75;4.5;4.5;3.75;1.75;1.25;0.0;1.25;0.0;1.5;2.5;3.0;1.75;5.5;0.5;1.5;-0.237305;0.021484;0.981934;-0.35;-1.75;0.35;383.0;-0.062028;-0.0767
0.42;4.5;4.0;4.0;4.0;0.5;0.5;0.0;0.5;0.5;1.5;2.5;2.5;1.25;2.5;0.5;1.0;-0.20752;0.025879;0.973145;-1.96;1.4;-0.28;308.0;-0.093035;-0.072908;4.75;4.5;4.5;3.25;1.75;1.25;0.0;1.25;0.0;1.5;2.25;3.0;1.75;6.0;0.5;1.75;-0.242188;0.022461;0.98291;-0.28;-1.54;0.28;380.0;-0.053932;-0.072292
0.43;4.5;4.0;4.0;4.0;0.5;0.5;0.0;0.5;0.5;1.75;2.5;2.25;1.25;2.25;0.5;0.75;-0.207031;0.027344;0.976074;-1.96;1.47;-0.35;304.0;-0.098357;-0.070489;4.75;4.5;4.5;3.5;2.0;1.25;0.0;1.25;0.25;1.5;2.5;3.0;1.75;5.75;0.5;1.5;-0.241211;0.025391;0.982422;-0.28;-1.47;0.14;388.0;-0.055594;-0.070323
0.44;4.25;4.0;4.0;4.0;0.75;0.5;0.0;0.5;0.5;1.25;2.5;2.25;1.25;2.5;0.5;1.0;-0.208496;0.025879;0.972656;-1.89;1.4;-0.21;303.0;-0.096164;-0.07248;5.0;4.25;4.5;3.75;1.75;1.25;0.0;1.25;0.0;1.25;2.25;3.25;1.75;5.75;0.5;1.25;-0.244141;0.023926;0.984863;-0.28;-1.4;0.28;381.0;-0.063227;-0.074839
0.45;4.5;4.25;4.0;4.0;0.75;0.5;0.0;0.5;0.5;2.0;2.5;2.5;1.0;2.5;0.5;1.0;-0.205566;0.026367;0.974609;-1.96;1.47;-0.28;316.0;-0.091985;-0.067507;5.0;4.25;4.5;3.25;1.75;1.25;0.0;1.25;0.0;1.25;2.5;3.0;1.5;5.75;0.5;1.5;-0.241211;0.022461;0.985352;-0.35;-1.4;0.21;375.0;-0.059646;-0.070008
0.46;4.75;4.25;4.0;3.75;0.75;0.5;0.0;0.5;0.5;1.5;2.75;2.5;1.0;2.25;0.5;1.0;-0.213867;0.026367;0.974121;-1.89;1.4;-0.28;311.0;-0.099183;-0.068933;5.0;4.5;4.5;3.25;2.25;1.5;0.0;1.25;0.0;1.5;2.5;3.0;1.5;5.5;0.5;1.75;-0.233398;0.019043;0.984375;-0.35;-1.4;0.21;387.0;-0.062457;-0.071461
0.47;4.25;4.0;4.0;4.0;0.75;0.5;0.0;0.5;0.5;1.25;2.5;2.5;1.0;2.5;0.5;1.0;-0.208496;0.027832;0.977539;-1.89;1.33;-0.35;303.0;-0.095414;-0.07164;4.75;4.25;4.5;3.5;2.25;1.25;0.0;1.25;0.0;1.75;2.75;3.0;1.75;5.75;0.5;1.5;-0.243652;0.023438;0.989746;-0.35;-1.47;0.14;390.0;-0.052709;-0.071132
0.48;4.0;4.0;4.0;3.75;0.75;0.75;0.0;0.5;0.75;1.75;2.5;2.5;1.0;2.5;0.5;0.75;-0.210938;0.027832;0.97168;-2.03;1.61;-0.35;308.0;-0.08422;-0.066538;4.75;4.25;4.25;3.5;2.25;1.25;0.0;1.25;0.0;1.5;2.5;3.25;1.75;5.75;0.5;1.75;-0.23877;0.023926;0.989258;-0.35;-1.54;0.28;386.0;-0.051799;-0.075279
0.49;4.75;4.0;4.0;4.0;0.75;0.75;0.0;0.5;0.5;1.75;2.5;2.5;1.5;2.5;0.5;0.75;-0.208984;0.030273;0.96875;-1.82;1.54;-0.28;319.0;-0.093763;-0.072483;4.75;4.25;4.5;3.75;2.0;1.25;0.0;1.25;0.25;1.5;2.75;3.5;1.75;6.0;0.25;1.75;-0.240723;0.020996;0.991699;-0.35;-1.47;0.28;397.0;-0.04888;-0.07355
0.5;4.75;4.0;4.0;4.0;0.75;0.5;0.0;0.5;0.75;1.5;2.25;2.5;1.25;2.5;0.5;1.0;-0.213379;0.024414;0.973145;-1.82;1.61;-0.21;314.0;-0.094891;-0.06626;4.5;4.25;4.5;3.5;2.0;1.5;0.0;1.0;0.25;1.5;2.5;3.25;1.75;6.0;0.5;1.75;-0.238281;0.020508;0.986816;-0.35;-1.54;0.28;388.0;-0.046422;-0.070239
0.51;4.5;4.0;4.0;4.0;0.75;0.5;0.0;0.5;0.5;1.25;2.5;2.25;1.25;2.5;0.5;1.0;-0.213379;0.025879;0.973145;-1.89;1.61;-0.35;306.0;-0.098764;-0.070944;4.75;4.25;4.25;3.25;1.75;1.5;0.0;1.25;0.25;1.5;2.75;3.25;1.75;5.75;0.25;1.75;-0.23877;0.023438;0.976562;-0.35;-1.54;0.28;384.0;-0.048408;-0.074815
0.52;4.75;4.0;4.0;4.0;0.75;0.75;0.0;0.5;0.25;1.25;2.5;2.5;1.0;2.5;0.5;0.75;-0.216309;0.022949;0.975586;-1.82;1.61;-0.21;307.0;-0.106884;-0.072998;5.0;4.25;4.25;3.5;1.75;1.5;0.0;1.25;0.25;1.75;2.5;2.75;1.5;5.75;0.25;1.75;-0.243652;0.021973;0.983398;-0.28;-1.54;0.28;382.0;-0.057218;-0.068182
0.53;4.75;3.75;4.0;4.0;0.5;0.5;0.0;0.5;0.25;1.25;2.5;2.5;1.0;2.5;0.5;0.75;-0.212402;0.029785;0.976562;-1.82;1.54;-0.21;299.0;-0.103916;-0.071695;4.75;4.25;4.5;3.25;1.75;1.5;0.0;1.25;0.25;1.5;2.5;3.0;1.75;5.75;0.5;1.75;-0.239746;0.021973;0.978027;-0.35;-1.4;0.35;384.0;-0.050492;-0.07188
0.54;4.25;4.0;4.0;4.0;0.5;0.5;0.0;0.5;0.5;1.0;2.5;2.5;1.5;2.5;0.5;0.75;-0.211914;0.028809;0.974121;-1.68;1.54;-0.28;301.0;-0.096288;-0.078543;4.5;4.25;4.5;3.25;1.5;1.5;0.0;1.0;0.25;1.5;2.5;2.75;1.75;6.0;0.25;1.75;-0.243164;0.021973;0.978027;-0.28;-1.68;0.35;372.0;-0.050301;-0.067762
0.55;4.25;4.0;4.0;4.0;0.5;0.5;0.0;0.5;0.5;1.25;2.5;2.5;1.5;2.25;0.75;0.75;-0.20459;0.024902;0.975098;-1.96;1.68;-0.28;304.0;-0.092614;-0.07915;4.5;4.0;4.5;3.25;1.75;1.5;0.0;1.25;0.25;1.5;2.75;2.75;1.75;6.0;0.0;1.75;-0.243652;0.020508;0.985352;-0.35;-1.68;0.21;376.0;-0.0495;-0.069729
0.56;4.25;4.0;4.0;4.0;0.5;0.5;0.0;0.5;0.5;1.75;2.75;2.5;1.25;2.25;0.75;1.0;-0.208984;0.027344;0.975098;-1.75;1.68;-0.28;311.0;-0.084215;-0.07543;5.0;4.0;4.25;3.25;2.0;1.5;0.0;1.25;0.25;1.75;2.25;2.75;1.75;6.0;0.25;1.75;-0.241699;0.025391;0.98291;-0.35;-1.61;0.35;381.0;-0.051914;-0.066067
0.57;4.75;4.5;4.0;4.0;0.5;0.75;0.0;0.5;0.5;1.25;2.5;2.25;1.25;2.5;1.0;0.75;-0.20752;0.030762;0.979492;-1.82;1.54;-0.28;317.0;-0.099665;-0.072886;4.75;4.25;4.25;3.25;2.0;1.5;0.0;1.25;0.25;1.5;2.25;3.0;1.75;6.0;0.5;1.75;-0.245605;0.024902;0.986328;-0.42;-1.54;0.21;384.0;-0.048779;-0.070415
0.58;4.25;4.0;3.75;4.0;0.5;0.5;0.0;0.5;0.5;1.0;2.5;2.5;1.0;2.5;0.5;0.75;-0.213379;0.025391;0.979492;-1.82;1.68;-0.28;294.0;-0.098599;-0.07449;4.5;4.0;4.25;3.5;1.75;1.0;0.0;1.25;0.25;1.5;2.25;3.0;1.75;6.0;0.25;1.5;-0.241699;0.023438;0.97998;-0.49;-1.54;0.21;370.0;-0.048438;-0.069239
0.59;4.0;3.75;3.75;4.0;0.5;0.5;0.0;0.5;0.5;1.5;2.5;2.5;1.25;2.5;0.5;1.0;-0.212891;0.024902;0.975098;-1.96;1.75;-0.28;298.0;-0.083525;-0.076865;4.5;4.25;4.25;3.25;1.5;1.25;0.0;1.25;0.25;1.5;2.5;3.0;1.75;6.0;0.5;1.75;-0.240723;0.022461;0.986328;-0.42;-1.61;0.35;376.0;-0.042558;-0.072426
0.6;4.25;3.75;3.75;4.0;0.5;0.5;0.0;0.5;0.5;1.75;2.25;2.25;1.25;2.5;0.5;1.0;-0.210938;0.027832;0.97168;-1.96;1.68;-0.35;298.0;-0.08878;-0.071741;4.75;4.25;4.25;3.25;1.5;1.25;0.0;1.0;0.25;1.5;2.5;2.25;1.75;6.0;0.25;1.75;-0.240723;0.019531;0.984375;-0.42;-1.61;0.28;364.0;-0.054144;-0.062875
0.61;4.75;4.0;4.0;4.0;0.5;0.5;0.0;0.5;0.5;1.75;2.25;2.0;1.25;2.5;0.5;0.75;-0.210938;0.029297;0.977051;-2.03;1.68;-0.28;304.0;-0.102827;-0.06488;4.5;4.25;4.25;3.0;2.0;1.25;0.0;1.0;0.0;1.5;2.5;3.25;1.75;6.0;0.25;1.75;-0.23877;0.025391;0.984863;-0.42;-1.54;0.35;371.0;-0.046322;-0.070621
0.62;4.5;4.0;4.0;4.0;0.5;0.75;0.0;0.5;0.5;1.75;2.5;2.25;1.25;2.5;0.5;1.25;-0.207031;0.029785;0.976562;-1.89;1.75;-0.21;312.0;-0.091345;-0.072678;4.75;4.0;4.25;3.25;2.0;1.5;0.0;1.25;0.0;1.75;2.5;3.0;1.75;6.0;0.0;1.75;-0.241699;0.021484;0.980957;-0.49;-1.61;0.35;378.0;-0.051636;-0.072042
0.63;4.25;4.0;4.0;4.0;0.5;0.75;0.0;0.5;0.5;1.5;2.5;2.5;1.0;2.5;0.5;1.0;-0.202637;0.024902;0.977051;-1.89;1.75;-0.21;306.0;-0.092797;-0.073471;4.5;4.25;4.25;3.25;1.75;1.5;0.0;1.25;0.25;1.5;2.5;3.25;1.75;6.0;0.25;1.75;-0.240723;0.024902;0.98584;-0.56;-1.61;0.28;381.0;-0.045308;-0.07437
0.64;4.25;4.0;4.0;4.0;0.75;0.75;0.0;0.5;0.5;1.75;2.5;2.5;1.5;2.5;0.5;0.75;-0.208984;0.024902;0.979492;-1.89;1.75;-0.21;314.0;-0.088667;-0.075469;4.75;4.0;4.25;3.25;1.75;1.0;0.0;1.25;0.25;1.5;2.25;3.25;1.75;6.0;0.5;1.75;-0.237793;0.023926;0.983398;-0.49;-1.61;0.35;376.0;-0.042669;-0.06944
0.65;4.5;4.0;4.0;4.0;0.75;0.75;0.0;0.5;0.5;1.25;2.5;2.5;1.5;2.25;0.5;1.0;-0.206543;0.029785;0.97168;-1.75;1.68;-0.28;311.0;-0.098259;-0.079039;4.75;4.0;4.25;3.25;1.75;1.0;0.0;1.0;0.25;1.5;2.75;3.25;1.75;6.0;0.5;1.75;-0.238281;0.024902;0.983398;-0.42;-1.68;0.28;377.0;-0.039251;-0.066834
0.66;4.5;4.0;4.0;4.0;0.75;0.5;0.0;0.5;0.75;1.25;2.5;2.5;1.0;2.5;0.5;1.0;-0.209961;0.025391;0.975098;-1.82;1.75;-0.14;309.0;-0.094268;-0.06647;4.5;4.0;4.25;3.25;1.75;1.25;0.0;1.0;0.25;1.5;2.75;2.75;1.75;6.25;0.5;1.75;-0.24707;0.023438;0.992188;-0.42;-1.61;0.28;374.0;-0.038471;-0.064933
0.67;4.5;4.0;3.75;4.0;0.75;0.75;0.0;0.5;0.5;1.25;2.75;2.5;1.5;2.5;0.5;1.0;-0.208984;0.029297;0.970215;-1.89;1.61;-0.28;313.0;-0.09058;-0.079102;4.5;4.0;4.25;3.25;1.75;1.25;0.0;1.25;0.25;1.5;2.5;2.75;1.75;6.25;0.75;1.75;-0.243164;0.026367;0.986328;-0.42;-1.61;0.35;378.0;-0.036935;-0.067988
0.68;4.5;4.0;3.75;4.0;0.75;0.75;0.0;0.5;0.5;1.25;2.5;2.5;1.25;2.25;0.5;1.0;-0.208984;0.020996;0.976562;-1.89;1.75;-0.21;306.0;-0.09863;-0.077866;4.5;4.0;4.25;3.0;2.0;1.25;0.0;1.25;0.25;1.5;2.75;3.0;1.75;6.0;0.25;1.75;-0.241211;0.021973;0.980469;-0.35;-1.61;0.21;376.0;-0.040968;-0.069022
0.69;4.5;4.0;3.75;4.0;0.5;0.75;0.0;0.5;0.5;1.5;2.5;2.5;1.25;2.5;0.25;0.75;-0.211426;0.03125;0.978516;-2.03;1.75;-0.28;304.0;-0.09834;-0.07503;4.5;4.0;4.5;3.25;2.0;1.25;0.0;1.25;0.0;1.5;2.75;3.0;1.75;6.0;0.25;1.75;-0.241211;0.025391;0.98584;-0.42;-1.75;0.28;378.0;-0.046982;-0.071953
0.7;4.5;4.0;4.0;4.0;0.5;1.0;0.0;0.5;0.5;1.5;2.5;2.5;1.25;2.5;0.5;1.0;-0.211426;0.03125;0.975586;-1.89;1.68;-0.28;313.0;-0.094063;-0.076378;4.5;4.0;4.5;3.25;2.0;1.5;0.0;1.25;0.0;1.5;2.75;3.25;1.5;6.0;0.25;1.75;-0.246582;0.024902;0.985352;-0.28;-1.75;0.28;382.0;-0.047198;-0.072719
0.71;4.5;4.0;4.0;4.0;0.5;1.0;0.0;0.5;0.5;1.5;2.5;2.5;1.0;2.5;0.5;0.75;-0.208984;0.027344;0.972656;-2.1;1.75;-0.28;310.0;-0.097897;-0.072646;4.5;4.25;4.75;3.25;2.0;1.25;0.0;1.25;0.25;1.75;2.5;3.0;1.75;6.0;0.5;1.75;-0.246094;0.025879;0.980469;-0.42;-1.68;0.28;389.0;-0.045029;-0.067311
0.72;4.25;4.0;4.0;4.0;0.5;1.0;0.0;0.5;0.5;1.5;2.5;2.5;1.0;2.5;0.25;0.75;-0.212402;0.029785;0.979492;-2.03;1.75;-0.28;305.0;-0.099668;-0.074105;4.75;4.0;4.25;3.25;2.0;1.25;0.0;1.25;0.25;1.75;2.75;3.0;1.75;6.0;0.5;1.75;-0.242676;0.021973;0.986816;-0.42;-1.68;0.28;387.0;-0.040196;-0.068133
0.73;4.5;4.0;4.0;4.0;0.5;0.75;0.0;0.5;0.5;1.5;2.5;2.5;1.25;2.5;0.5;0.75;-0.211426;0.024902;0.977539;-1.96;1.68;-0.28;309.0;-0.095547;-0.073609;4.5;3.75;4.25;3.25;2.0;1.5;0.0;1.25;0.0;1.5;2.75;3.0;1.75;6.0;0.5;1.75;-0.244141;0.02832;0.986328;-0.35;-1.68;0.21;379.0;-0.04072;-0.074083
0.74;4.5;4.0;4.0;4.0;0.75;0.75;0.0;0.5;0.5;1.5;2.75;2.5;1.25;2.5;0.5;1.0;-0.207031;0.02832;0.974609;-1.96;1.82;-0.21;316.0;-0.091184;-0.073819;4.5;4.0;4.25;3.25;1.75;1.25;0.0;1.25;0.0;1.5;2.75;3.0;1.75;6.25;0.5;1.75;-0.246094;0.025879;0.978516;-0.56;-1.82;0.35;378.0;-0.039039;-0.072777
0.75;4.5;4.0;3.75;4.0;0.75;1.0;0.0;0.5;1.25;1.75;2.5;2.5;1.25;2.5;0.5;0.75;-0.208496;0.032715;0.974609;-1.96;1.61;-0.28;324.0;-0.081475;-0.063912;4.5;4.0;4.25;3.0;1.75;1.25;0.0;1.25;0.25;1.5;2.75;3.0;1.75;6.25;0.25;1.75;-0.240723;0.02002;0.98291;-0.35;-1.75;0.35;375.0;-0.03778;-0.068576
0.76;4.75;4.0;4.0;4.0;0.5;0.75;0.0;0.5;0.75;1.75;2.5;2.5;1.25;2.5;0.5;0.75;-0.210938;0.023438;0.979004;-1.89;1.68;-0.21;318.0;-0.091682;-0.067417;4.5;4.0;4.25;3.25;2.0;1.5;0.0;1.25;0.25;1.5;2.5;3.0;1.75;6.25;0.25;1.75;-0.23877;0.020508;0.988281;-0.42;-1.89;0.42;381.0;-0.042835;-0.069899
0.77;4.75;4.25;4.0;4.0;0.5;0.75;0.0;0.5;0.75;1.75;2.5;2.5;1.25;2.5;0.25;0.75;-0.20459;0.026367;0.979492;-1.89;1.61;-0.28;318.0;-0.098174;-0.068011;4.75;4.25;4.25;3.0;2.0;1.25;0.0;1.25;0.25;1.5;2.5;3.25;1.75;6.5;0.5;1.75;-0.240723;0.020508;0.984863;-0.35;-1.89;0.28;388.0;-0.0377;-0.067018
0.78;4.5;4.25;4.0;4.0;0.5;0.75;0.0;0.5;0.75;1.75;2.75;2.5;1.25;2.5;0.25;1.0;-0.207031;0.030762;0.980957;-1.96;1.68;-0.21;319.0;-0.091086;-0.070886;4.75;4.0;4.25;3.25;2.0;1.25;0.0;1.25;0.0;1.5;2.75;3.25;1.75;6.25;0.5;1.75;-0.242188;0.022461;0.980957;-0.42;-1.89;0.21;386.0;-0.040406;-0.072128
0.79;4.5;4.0;4.0;4.0;0.5;0.75;0.0;0.5;0.75;1.5;2.25;2.5;1.25;2.5;0.5;0.75;-0.211426;0.02832;0.974609;-1.96;1.61;-0.21;310.0;-0.094548;-0.06958;4.5;4.0;4.25;3.25;2.0;1.25;0.0;1.0;0.0;1.5;2.75;3.5;1.75;6.25;0.5;1.5;-0.237305;0.024902;0.98584;-0.56;-1.89;0.28;380.0;-0.037928;-0.070848
0.8;4.5;4.0;4.0;4.0;0.5;0.75;0.0;0.5;0.25;1.5;2.5;2.5;1.25;2.5;0.5;0.75;-0.211426;0.025879;0.978027;-2.1;1.75;-0.21;306.0;-0.099308;-0.077327;4.5;4.0;4.0;3.0;2.0;1.25;0.0;1.0;0.25;1.5;2.5;3.25;1.75;6.25;0.75;1.5;-0.246582;0.026367;0.987305;-0.49;-1.82;0.28;376.0;-0.032297;-0.066093
0.81;4.5;4.25;4.25;4.0;0.5;0.75;0.0;0.5;0.25;1.25;2.5;2.5;1.25;2.5;0.5;1.0;-0.209473;0.024902;0.976074;-2.03;1.75;-0.21;310.0;-0.103997;-0.078708;4.75;4.0;4.25;3.0;2.0;1.5;0.0;1.25;0.25;1.5;2.5;3.0;1.75;6.5;0.5;1.75;-0.241699;0.022949;0.982422;-0.42;-1.96;0.28;386.0;-0.037926;-0.066315
0.82;4.5;4.0;3.75;4.0;0.5;0.75;0.0;0.5;0.5;1.5;2.5;2.25;1.25;2.5;0.25;1.0;-0.211426;0.029297;0.977051;-1.96;1.75;-0.28;303.0;-0.098953;-0.074179;4.5;4.0;4.25;3.25;2.0;1.75;0.0;1.25;0.25;1.5;2.5;3.25;1.75;6.5;0.25;1.75;-0.23877;0.023438;0.982422;-0.42;-1.82;0.28;389.0;-0.039401;-0.071496
0.83;4.75;4.0;3.75;4.0;1.0;0.5;0.0;0.5;0.5;1.5;2.5;2.5;1.25;2.5;0.5;1.0;-0.209473;0.024414;0.973145;-1.89;1.68;-0.21;313.0;-0.094625;-0.070499;4.5;4.0;4.5;3.25;2.0;1.5;0.0;1.25;0.0;1.5;2.5;3.25;1.75;6.5;0.25;1.5;-0.243164;0.022461;0.982422;-0.49;-1.82;0.35;384.0;-0.044179;-0.07099
0.84;4.25;3.75;3.75;4.0;0.75;0.5;0.0;0.5;0.5;1.5;2.5;2.5;1.25;2.0;0.5;1.0;-0.210449;0.025879;0.978027;-1.89;1.54;-0.28;299.0;-0.093745;-0.077614;4.5;4.0;4.25;3.25;2.25;1.5;0.0;1.25;0.0;1.5;2.5;3.25;1.75;7.0;0.5;1.5;-0.241211;0.024902;0.987305;-0.49;-1.89;0.28;391.0;-0.03515;-0.068572
0.85;4.75;3.75;3.75;4.0;0.5;0.75;0.0;0.5;0.5;1.5;2.5;2.5;1.75;2.5;0.5;1.25;-0.209961;0.024902;0.978027;-1.89;1.54;-0.21;314.0;-0.086612;-0.080306;4.5;4.0;4.0;3.25;1.75;1.75;0.0;1.25;0.0;1.5;2.75;3.25;1.75;6.5;0.25;1.5;-0.243652;0.021484;0.983398;-0.42;-1.89;0.35;381.0;-0.039269;-0.076041
0.86;4.75;4.0;4.0;4.0;0.5;0.75;0.0;0.5;0.5;1.25;2.5;2.5;1.5;2.5;0.5;1.0;-0.206055;0.030762;0.972168;-1.82;1.75;-0.35;313.0;-0.097069;-0.076971;4.5;4.0;4.25;3.25;2.25;1.5;0.0;1.25;0.0;1.25;2.75;3.0;1.75;7.0;0.25;1.5;-0.242676;0.022461;0.987793;-0.49;-1.89;0.35;386.0;-0.039921;-0.068141
0.87;4.75;3.75;4.0;4.0;0.5;0.75;0.0;0.5;0.5;1.5;2.5;2.25;1.25;2.5;0.5;0.75;-0.214844;0.02832;0.976562;-1.82;1.68;-0.14;307.0;-0.098343;-0.06947;4.5;4.0;4.25;3.25;2.0;1.25;0.0;1.25;0.0;1.5;2.75;3.0;1.75;7.0;0.5;1.75;-0.249512;0.025391;0.984863;-0.49;-1.89;0.28;387.0;-0.03219;-0.06769
0.88;4.75;4.0;4.0;4.0;0.5;0.75;0.0;0.5;0.5;1.5;2.5;2.0;1.0;2.0;0.5;1.0;-0.208984;0.024902;0.970215;-1.82;1.68;-0.21;302.0;-0.110525;-0.070003;4.5;4.0;4.25;2.75;2.0;1.5;0.0;1.25;0.25;1.5;3.0;3.25;1.5;7.0;0.5;1.5;-0.243164;0.024902;0.987305;-0.42;-1.82;0.35;389.0;-0.026131;-0.062848
0.89;4.75;4.25;4.0;4.0;0.5;0.75;0.0;0.5;0.5;1.5;2.5;2.25;1.5;2.25;0.75;0.75;-0.208984;0.027832;0.977051;-1.96;1.75;-0.28;314.0;-0.100389;-0.07537;4.5;4.0;4.0;3.0;2.0;1.25;0.0;1.25;0.25;1.5;2.75;3.0;1.75;7.25;0.5;1.25;-0.242188;0.023926;0.98584;-0.49;-1.68;0.21;384.0;-0.026521;-0.061691
0.9;4.75;4.0;4.0;4.0;0.5;0.75;0.0;0.5;0.5;1.25;2.5;2.5;1.25;2.25;0.5;1.0;-0.211426;0.030762;0.977539;-1.96;1.82;-0.21;309.0;-0.102456;-0.076027;4.5;4.0;4.25;3.25;1.75;1.0;0.0;1.25;0.25;1.5;2.75;3.0;1.75;7.25;0.25;1.25;-0.249023;0.026367;0.989746;-0.35;-1.61;0.35;381.0;-0.031536;-0.060997
0.91;4.5;4.0;4.0;4.25;0.5;0.75;0.0;0.25;0.5;1.25;2.25;2.5;1.25;2.5;0.5;1.0;-0.208008;0.023438;0.978027;-1.89;1.75;-0.21;304.0;-0.101914;-0.072877;4.5;4.0;4.25;3.25;1.75;1.5;0.0;1.25;0.25;1.5;2.75;3.0;1.75;6.5;0.25;1.5;-0.240234;0.023438;0.983398;-0.49;-1.68;0.42;382.0;-0.039294;-0.06891
0.92;4.75;4.0;4.25;4.0;0.5;1.0;0.0;0.5;0.5;1.25;2.5;2.5;1.25;2.0;0.5;1.0;-0.212891;0.027832;0.978516;-1.96;1.75;-0.35;312.0;-0.107863;-0.077996;4.75;4.0;4.5;3.5;1.75;1.5;0.0;1.25;0.0;1.5;2.75;3.0;1.75;7.0;0.25;1.5;-0.237305;0.026855;0.989258;-0.28;-1.68;0.28;391.0;-0.042611;-0.067885
0.93;5.0;4.0;4.0;4.0;0.5;0.75;0.0;0.5;0.5;1.0;2.25;2.5;1.0;2.5;0.75;0.75;-0.208496;0.024414;0.980469;-1.89;1.75;-0.28;307.0;-0.106718;-0.069839;4.75;4.0;4.5;3.25;2.0;1.25;0.0;1.25;0.0;1.5;2.75;3.0;1.75;7.0;0.25;1.5;-0.240234;0.019043;0.98291;-0.42;-1.61;0.35;388.0;-0.040697;-0.064425
0.94;4.5;4.0;4.0;4.0;0.5;0.75;0.0;0.5;0.5;1.5;2.5;2.5;1.0;2.5;0.5;0.75;-0.209961;0.032227;0.972168;-1.89;1.82;-0.21;307.0;-0.097416;-0.070873;4.5;4.25;4.25;3.5;1.75;1.25;0.0;1.0;0.25;1.5;2.5;3.25;1.75;6.5;0.0;1.5;-0.239746;0.027344;0.98584;-0.42;-1.61;0.35;378.0;-0.046079;-0.067078
0.95;4.75;4.0;4.0;4.0;0.5;0.75;0.0;0.5;0.5;1.25;2.75;2.5;1.0;2.5;0.5;0.75;-0.205078;0.026367;0.971191;-1.82;1.61;-0.21;310.0;-0.100075;-0.070883;4.75;4.0;4.25;3.25;1.75;1.25;0.0;1.0;0.25;1.5;2.5;3.25;1.75;7.25;0.0;1.5;-0.246094;0.024902;0.989746;-0.49;-1.54;0.28;382.0;-0.03685;-0.060056
0.96;4.75;4.0;4.0;4.0;0.5;0.75;0.0;0.5;0.5;1.75;2.5;2.5;1.0;2.5;0.5;1.0;-0.211914;0.02832;0.974121;-1.96;1.68;-0.35;314.0;-0.095156;-0.069325;4.5;4.25;4.25;3.25;1.75;1.0;0.0;1.25;0.25;1.5;2.5;3.0;1.75;6.5;0.0;1.5;-0.239746;0.022949;0.981934;-0.49;-1.61;0.42;373.0;-0.044984;-0.066114
0.97;4.75;4.5;4.0;4.0;0.5;0.75;0.0;0.5;0.5;1.5;2.5;2.5;1.25;2.5;0.5;0.75;-0.208984;0.026367;0.969727;-1.89;1.68;-0.21;317.0;-0.102734;-0.073464;4.5;4.0;4.25;3.25;1.75;1.0;0.0;1.25;0.25;1.75;2.75;3.0;1.75;6.5;0.0;1.5;-0.240234;0.020996;0.987305;-0.56;-1.68;0.42;376.0;-0.038852;-0.06495
0.98;5.0;4.0;4.0;4.0;0.5;0.75;0.0;0.5;0.5;1.5;2.5;2.5;1.0;2.25;0.75;0.75;-0.210938;0.027344;0.979492;-1.82;1.54;-0.21;313.0;-0.1017;-0.069686;4.5;4.0;4.25;3.25;1.75;1.25;0.0;1.25;0.0;1.5;2.5;3.25;1.75;7.0;0.0;1.25;-0.238281;0.022949;0.980957;-0.49;-1.68;0.21;376.0;-0.040612;-0.067914
0.99;4.5;4.0;4.0;4.25;0.5;0.75;0.0;0.5;0.25;1.25;2.5;2.5;1.0;2.5;0.5;1.0;-0.208984;0.028809;0.974609;-1.96;1.61;-0.21;305.0;-0.103751;-0.07818;4.75;4.0;4.25;3.25;2.0;1.25;0.0;1.25;0.0;1.5;2.75;3.25;1.75;7.0;0.0;1.5;-0.243164;0.021484;0.987305;-0.42;-1.54;0.28;385.0;-0.040425;-0.066999
1.0;4.5;4.25;4.25;4.0;0.5;0.75;0.0;0.5;0.25;1.25;2.5;2.75;1.25;2.25;0.25;1.0;-0.205078;0.032715;0.97168;-1.82;1.61;-0.28;308.0;-0.109263;-0.082308;5.0;4.0;4.25;3.25;2.0;1.25;0.0;1.0;0.25;1.5;2.75;3.25;1.75;7.0;0.25;1.25;-0.23877;0.023438;0.986328;-0.49;-1.68;0.42;389.0;-0.038987;-0.059015
1.01;4.75;4.5;4.25;4.0;0.5;1.0;0.0;0.5;0.5;1.5;2.5;2.5;1.25;2.25;0.5;0.75;-0.207031;0.026855;0.969727;-1.96;1.61;-0.35;320.0;-0.108003;-0.075411;5.0;4.25;4.25;3.25;2.0;1.5;0.0;1.0;0.25;1.5;2.5;3.25;1.75;6.25;0.0;1.5;-0.243652;0.025879;0.985352;-0.49;-1.61;0.28;383.0;-0.05304;-0.065474
1.02;4.75;4.5;4.25;4.25;0.5;1.0;0.0;0.5;0.5;1.5;2.5;2.0;1.5;2.25;0.5;0.75;-0.214355;0.02832;0.972168;-1.82;1.61;-0.21;320.0;-0.112886;-0.075678;4.75;4.0;4.25;3.25;2.0;1.25;0.0;1.25;0.25;1.5;2.75;3.25;1.75;6.5;0.25;1.75;-0.240723;0.021484;0.989746;-0.35;-1.68;0.35;388.0;-0.038457;-0.067771
1.03;4.75;4.25;4.25;4.25;0.5;0.75;0.0;0.5;0.5;1.25;2.5;2.5;0.75;2.25;0.5;0.75;-0.209473;0.026855;0.966309;-2.03;1.54;-0.21;311.0;-0.113698;-0.070109;4.5;4.0;4.25;3.25;2.0;0.75;0.0;1.25;0.25;1.5;2.75;3.25;1.75;6.5;0.25;1.75;-0.243652;0.023926;0.98291;-0.42;-1.54;0.28;380.0;-0.034347;-0.066039
1.04;4.75;4.25;4.0;4.0;0.5;0.75;0.0;0.5;0.5;1.25;2.5;2.5;0.75;2.0;0.5;0.75;-0.208496;0.029785;0.978516;-1.96;1.61;-0.28;303.0;-0.114424;-0.071916;5.0;4.0;4.25;3.25;2.0;1.0;0.0;1.0;0.25;1.5;2.5;3.0;1.75;7.0;0.25;1.5;-0.242188;0.022949;0.981445;-0.49;-1.61;0.21;382.0;-0.040281;-0.056375
1.05;5.0;4.5;4.0;4.0;0.5;0.75;0.0;0.25;0.5;1.25;2.5;2.25;1.0;2.5;0.5;1.0;-0.21582;0.029297;0.976074;-1.89;1.54;-0.28;309.0;-0.11177;-0.06562;4.75;4.0;4.25;3.25;1.75;1.25;0.0;1.0;0.25;1.75;2.5;3.0;1.75;7.0;0.25;1.75;-0.238281;0.02002;0.981934;-0.42;-1.61;0.28;383.0;-0.034694;-0.059966
1.06;4.75;4.0;4.25;4.0;0.5;1.0;0.0;0.25;0.5;1.25;2.5;2.5;1.25;2.5;0.5;1.0;-0.210938;0.026367;0.978027;-1.89;1.47;-0.28;312.0;-0.101934;-0.070691;4.5;3.5;4.25;3.25;1.75;1.25;0.0;1.25;0.0;1.25;2.0;3.0;1.75;6.25;0.25;1.5;-0.234863;0.018555;0.984863;-0.35;-1.61;0.28;359.0;-0.046808;-0.070643
1.07;4.75;4.0;4.0;4.0;0.5;1.0;0.0;0.25;0.5;1.25;2.5;2.5;1.25;2.25;0.5;1.0;-0.212891;0.02832;0.975098;-1.89;1.47;-0.21;308.0;-0.104012;-0.073862;4.5;4.0;4.25;3.25;1.5;1.25;0.0;1.25;0.0;1.5;2.75;3.25;1.75;6.5;0.0;1.5;-0.242676;0.020996;0.984375;-0.49;-1.61;0.28;373.0;-0.041833;-0.0729
1.08;4.75;4.25;4.0;4.0;0.5;0.75;0.0;0.5;0.25;1.25;2.5;2.5;1.5;2.0;0.5;0.75;-0.209473;0.025879;0.974609;-1.89;1.54;-0.42;306.0;-0.11236;-0.083882;4.75;4.0;4.5;3.25;1.5;1.25;0.0;1.25;0.25;1.5;2.75;3.25;1.75;6.5;0.0;1.75;-0.237793;0.02832;0.990234;-0.56;-1.68;0.28;383.0;-0.041931;-0.068379
1.09;5.25;4.25;4.0;4.0;0.75;1.0;0.0;0.5;0.25;1.5;2.5;2.5;1.5;2.5;0.5;1.25;-0.208008;0.025391;0.972656;-1.96;1.61;-0.21;327.0;-0.103821;-0.078507;4.75;4.25;4.5;3.0;1.75;1.25;0.0;1.25;0.25;1.75;2.75;3.25;1.75;6.5;0.0;1.75;-0.23584;0.024414;0.975098;-0.49;-1.75;0.42;388.0;-0.041116;-0.066048
1.1;5.25;4.5;4.25;4.0;0.5;1.0;0.0;0.5;0.5;1.25;2.25;2.25;1.25;2.5;0.75;1.25;-0.211426;0.025879;0.976074;-1.75;1.47;-0.28;325.0;-0.10925;-0.071865;4.75;4.25;4.5;3.25;1.75;1.25;0.0;1.0;0.25;1.75;2.5;3.25;1.75;6.5;0.0;1.75;-0.239746;0.02832;0.987793;-0.35;-1.61;0.14;384.0;-0.044979;-0.063617
1.11;4.5;4.5;4.0;4.25;0.5;0.75;0.0;0.5;0.5;1.75;2.5;2.75;1.25;2.25;0.5;1.0;-0.206543;0.026855;0.978027;-1.89;1.54;-0.28;321.0;-0.098014;-0.079617;4.75;4.0;4.5;3.25;1.75;1.5;0.0;1.0;0.25;1.5;2.5;3.0;1.75;6.5;0.25;1.25;-0.240234;0.024902;0.985352;-0.42;-1.61;0.21;379.0;-0.046973;-0.062093
1.12;4.25;4.25;4.0;4.0;0.5;0.75;0.0;0.5;0.5;1.5;2.5;2.75;1.0;2.25;0.25;0.75;-0.212402;0.02832;0.973145;-1.96;1.61;-0.28;305.0;-0.102506;-0.0767;4.75;4.0;4.25;3.25;1.75;1.25;0.0;1.25;0.25;1.25;2.75;3.25;1.75;6.5;0.25;1.25;-0.243164;0.024414;0.980957;-0.56;-1.75;0.42;380.0;-0.042587;-0.067846
1.13;4.5;4.25;4.0;4.0;0.5;1.0;0.0;0.5;0.5;1.5;2.5;2.5;1.0;2.5;0.5;1.0;-0.210938;0.028809;0.979492;-1.89;1.68;-0.21;314.0;-0.098252;-0.074377;4.5;4.0;4.5;3.25;1.75;1.25;0.0;1.0;0.5;1.5;2.75;3.25;1.75;6.5;0.5;1.5;-0.239746;0.020996;0.983398;-0.49;-1.68;0.28;387.0;-0.033167;-0.061885
1.14;5.0;4.25;4.0;4.0;0.5;0.75;0.0;0.5;0.75;1.5;2.5;2.5;1.5;2.5;0.25;1.0;-0.214355;0.029297;0.980469;-1.89;1.68;-0.21;321.0;-0.099628;-0.071349;4.5;3.75;4.0;3.0;1.75;1.25;0.0;1.0;0.25;1.5;2.5;3.25;1.75;6.5;0.5;1.25;-0.237305;0.023926;0.985352;-0.49;-1.68;0.35;369.0;-0.03122;-0.063982
1.15;4.75;4.25;4.0;4.0;0.5;0.75;0.0;0.5;0.5;1.5;2.5;2.5;1.25;2.5;0.25;1.0;-0.20752;0.030273;0.973633;-2.03;1.75;-0.14;313.0;-0.102702;-0.073751;4.75;3.5;4.25;3.0;1.75;1.25;0.0;1.25;0.0;1.5;2.75;3.0;1.75;6.25;0.5;1.75;-0.243652;0.021973;0.979492;-0.56;-1.75;0.28;373.0;-0.035074;-0.069244
1.16;4.75;4.25;4.0;4.0;0.75;0.75;0.0;0.5;0.5;1.75;2.75;2.5;1.25;2.5;0.5;0.75;-0.210938;0.029785;0.979492;-1.89;1.75;-0.21;322.0;-0.095244;-0.07089;4.75;4.0;4.25;3.25;2.0;1.25;0.0;1.25;0.0;1.5;2.75;3.25;1.5;6.25;0.5;1.5;-0.242188;0.018555;0.990723;-0.49;-1.68;0.28;382.0;-0.043022;-0.06906
1.17;4.75;4.25;4.0;4.0;0.5;1.0;0.0;0.5;0.5;1.25;2.5;2.5;1.0;2.5;0.5;0.75;-0.208496;0.027344;0.969727;-1.89;1.75;-0.21;312.0;-0.105597;-0.072968;4.5;4.0;4.25;3.25;2.0;1.0;0.0;1.25;0.0;1.5;2.75;3.0;1.5;6.5;0.5;1.5;-0.242676;0.024414;0.98584;-0.49;-1.68;0.28;376.0;-0.038937;-0.065826
1.18;4.75;4.25;4.25;4.0;0.5;0.75;0.0;0.5;0.5;1.0;2.5;2.5;1.25;2.5;0.5;0.75;-0.208984;0.029297;0.974121;-2.17;1.75;-0.21;312.0;-0.107595;-0.073613;4.5;4.0;4.25;3.25;1.75;1.25;0.0;1.25;0.25;1.5;2.75;2.75;1.75;6.5;0.5;1.25;-0.248047;0.025879;0.985352;-0.42;-1.82;0.28;378.0;-0.038533;-0.065069
1.19;4.75;4.0;4.25;4.0;0.75;0.75;0.0;0.5;0.5;1.5;2.5;2.25;1.0;2.25;0.5;0.75;-0.210449;0.02832;0.974609;-1.96;1.68;-0.14;311.0;-0.107814;-0.066563;4.5;4.0;4.25;2.75;1.75;1.0;0.0;1.25;0.0;1.5;2.75;3.25;1.75;6.5;0.25;1.5;-0.243164;0.020996;0.979492;-0.49;-1.75;0.28;370.0;-0.034806;-0.068249
1.2;4.75;4.0;4.25;4.25;0.75;0.75;0.0;0.5;0.5;1.0;2.5;2.25;1.25;2.25;0.5;0.75;-0.208008;0.027344;0.976074;-2.03;1.75;-0.28;310.0;-0.113303;-0.072907;4.75;4.0;4.25;3.25;1.75;1.25;0.0;1.25;0.0;1.5;2.75;3.25;1.75;6.5;0.25;1.75;-0.244629;0.022949;0.986816;-0.35;-1.61;0.28;382.0;-0.040356;-0.071626
1.21;4.75;4.25;4.0;4.0;0.75;0.5;0.0;0.5;0.5;1.0;2.75;2.25;1.25;2.25;0.5;0.75;-0.212891;0.029785;0.975586;-2.03;1.75;-0.21;307.0;-0.109402;-0.072317;5.0;4.0;4.5;3.5;1.5;1.25;0.0;1.25;0.0;1.5;2.5;3.25;1.75;7.0;0.5;1.5;-0.237793;0.021484;0.984863;-0.42;-1.61;0.35;391.0;-0.040731;-0.067506
1.22;4.5;4.25;4.0;4.0;0.75;0.5;0.0;0.5;0.5;1.0;2.75;2.5;1.25;2.25;0.5;1.0;-0.210449;0.029785;0.974121;-2.03;1.68;-0.14;308.0;-0.102147;-0.07681;4.5;4.0;4.5;3.5;2.25;1.5;0.0;1.0;0.0;1.5;2.75;3.25;1.75;6.5;0.25;1.5;-0.245117;0.023438;0.983398;-0.49;-1.54;0.35;388.0;-0.044963;-0.068301
1.23;4.75;4.25;4.25;4.0;0.75;0.75;0.0;0.5;0.25;1.25;2.5;2.5;1.25;2.0;0.5;1.0;-0.208984;0.02832;0.974609;-1.89;1.82;-0.28;311.0;-0.113745;-0.07942;5.0;4.25;4.25;3.25;2.0;1.25;0.0;1.0;0.0;1.5;2.5;3.25;1.75;6.5;0.0;1.5;-0.245117;0.022949;0.98291;-0.35;-1.68;0.35;380.0;-0.052384;-0.065553
1.24;4.75;4.25;4.25;4.0;0.5;0.75;0.0;0.5;0.25;1.25;2.75;2.5;1.25;2.0;0.5;0.75;-0.206543;0.032715;0.974609;-2.1;1.89;-0.21;310.0;-0.112854;-0.079949;5.0;4.0;4.25;3.25;1.75;1.25;0.0;1.25;0.25;1.5;2.75;3.25;1.75;6.25;0.25;1.5;-0.239258;0.026367;0.985352;-0.35;-1.68;0.28;385.0;-0.044196;-0.067994
1.25;4.75;4.25;4.0;4.0;0.75;0.75;0.0;0.5;0.25;1.5;2.75;2.5;1.25;2.25;0.25;0.75;-0.210449;0.028809;0.981445;-1.89;1.82;-0.28;312.0;-0.10945;-0.077241;4.5;4.0;4.25;3.5;2.0;1.25;0.0;1.25;0.25;1.5;2.75;3.25;1.75;7.0;0.25;1.5;-0.249512;0.022461;0.986328;-0.42;-1.61;0.35;391.0;-0.034266;-0.066517
1.26;5.0;4.25;4.0;4.0;0.75;0.75;0.0;0.5;0.25;1.5;2.5;2.0;1.25;2.5;0.25;0.75;-0.208984;0.03125;0.975586;-1.96;1.75;-0.21;308.0;-0.116594;-0.069859;4.5;4.25;4.5;3.25;2.0;1.25;0.0;1.25;0.0;1.75;2.75;3.25;1.75;7.0;0.5;1.5;-0.243652;0.018555;0.988281;-0.42;-1.68;0.21;396.0;-0.034028;-0.066966
1.27;5.0;4.25;4.0;4.0;0.5;0.75;0.0;0.5;0.25;1.5;2.5;2.25;1.25;2.25;0.25;0.75;-0.208008;0.027344;0.981445;-1.96;1.61;-0.14;306.0;-0.117396;-0.0747;4.75;4.0;4.0;3.25;2.0;1.5;0.0;1.0;0.25;1.5;2.5;3.25;1.5;6.5;0.5;1.5;-0.239746;0.024414;0.987305;-0.42;-1.75;0.42;381.0;-0.039209;-0.063802
1.28;4.75;4.25;4.25;4.0;0.5;1.0;0.0;0.5;0.5;1.75;2.5;2.5;1.0;2.25;0.25;1.0;-0.213379;0.029785;0.969727;-1.96;1.75;-0.21;317.0;-0.107068;-0.071933;4.75;4.0;4.25;3.25;1.75;1.5;0.0;1.0;0.0;1.5;2.5;3.25;1.75;6.5;0.5;1.75;-0.237793;0.025879;0.988281;-0.49;-1.68;0.21;381.0;-0.040172;-0.069635
1.29;5.25;4.25;4.0;4.0;0.5;1.0;0.0;0.5;0.5;1.0;2.5;2.5;1.0;2.5;0.5;1.25;-0.213379;0.032227;0.975586;-2.03;1.75;-0.28;318.0;-0.109292;-0.073185;4.75;4.0;4.25;3.25;1.75;1.25;0.0;1.0;0.0;1.5;2.75;3.0;1.75;6.0;0.5;1.5;-0.23877;0.027344;0.977051;-0.42;-1.68;0.28;373.0;-0.045874;-0.068814
1.3;5.0;4.25;4.0;4.0;0.5;0.75;0.0;0.5;0.5;1.0;2.5;2.5;1.0;2.5;0.5;1.0;-0.208496;0.025879;0.976562;-2.03;1.75;-0.28;311.0;-0.108523;-0.071902;4.25;4.0;4.25;3.25;1.75;1.25;0.0;1.25;0.0;1.5;2.75;3.0;1.75;6.25;0.5;1.5;-0.239746;0.022949;0.979492;-0.49;-1.75;0.42;374.0;-0.037969;-0.073159
1.31;4.5;4.25;4.0;4.0;0.5;0.75;0.0;0.25;0.5;1.0;2.5;2.5;1.25;2.5;0.5;0.75;-0.210449;0.027344;0.978516;-2.03;1.82;-0.28;303.0;-0.10481;-0.072675;4.5;4.0;4.5;3.25;1.75;1.0;0.0;1.25;0.0;1.5;2.75;3.0;1.75;6.0;0.5;1.5;-0.241211;0.025879;0.98584;-0.56;-1.68;0.35;374.0;-0.043926;-0.070664
1.32;4.75;4.25;4.0;4.0;0.5;0.75;0.0;0.25;0.5;1.25;2.5;2.5;1.5;2.25;0.25;0.75;-0.209473;0.029297;0.978516;-2.03;1.75;-0.14;305.0;-0.110475;-0.074397;4.75;4.0;4.25;3.25;2.0;1.25;0.0;1.25;0.25;1.5;2.5;3.0;1.75;6.5;0.5;1.5;-0.243652;0.022461;0.98584;-0.56;-1.75;0.28;384.0;-0.040306;-0.06511
1.33;5.0;4.25;4.0;4.25;0.5;0.75;0.0;0.5;0.5;1.5;2.5;2.5;1.0;2.25;0.5;0.75;-0.211914;0.02832;0.978516;-1.96;1.82;-0.21;315.0;-0.109864;-0.071636;4.75;4.0;4.25;3.25;2.0;1.25;0.0;1.25;0.25;1.5;2.5;3.0;1.75;6.25;0.25;1.5;-0.237793;0.027344;0.981934;-0.56;-1.82;0.35;380.0;-0.04595;-0.066353
1.34;4.75;4.25;4.0;4.0;0.5;0.75;0.0;0.5;0.75;1.0;2.5;2.0;1.0;2.0;0.25;0.75;-0.210449;0.025391;0.975098;-1.89;1.75;-0.28;298.0;-0.121708;-0.068084;4.5;4.25;4.25;3.25;1.75;1.25;0.0;1.25;0.25;1.5;2.5;3.25;1.75;6.25;0.25;1.75;-0.244141;0.029785;0.984375;-0.49;-1.75;0.28;381.0;-0.041981;-0.071541
1.35;4.5;4.0;4.0;4.0;0.5;0.5;0.0;0.25;0.75;1.0;2.25;2.25;1.25;2.0;0.25;0.75;-0.209961;0.024902;0.980469;-2.03;1.75;-0.07;289.0;-0.115937;-0.067289;4.75;4.0;4.25;3.5;1.75;1.5;0.0;1.25;0.0;1.5;2.75;3.25;1.75;6.25;0.25;1.5;-0.244629;0.021973;0.976562;-0.49;-1.75;0.35;384.0;-0.046839;-0.074669
1.36;4.75;4.25;4.0;4.0;0.5;0.5;0.0;0.5;0.5;1.75;2.5;2.25;1.25;2.5;0.5;0.75;-0.21582;0.024414;0.978516;-1.96;1.89;-0.28;312.0;-0.099751;-0.06801;4.75;4.0;4.5;3.5;2.0;1.5;0.0;1.25;0.0;1.5;2.75;3.0;1.75;6.25;0.0;1.5;-0.242676;0.022949;0.983398;-0.56;-1.75;0.35;385.0;-0.053842;-0.070943
1.37;5.0;4.5;4.25;4.25;0.5;0.75;0.0;0.5;0.5;1.5;2.5;2.25;1.25;2.5;0.5;0.75;-0.210938;0.027832;0.973633;-1.96;1.75;-0.21;322.0;-0.110681;-0.070059;4.5;4.0;4.25;3.5;2.0;1.5;0.0;1.0;0.25;1.5;2.75;3.0;1.75;6.25;0.25;1.75;-0.239746;0.020996;0.987305;-0.56;-1.75;0.21;383.0;-0.043054;-0.068123
1.38;4.75;4.25;4.25;4.0;0.5;0.75;0.0;0.5;0.75;1.0;2.5;2.5;1.25;2.5;0.5;0.75;-0.206055;0.024414;0.977051;-2.03;1.82;-0.21;315.0;-0.103817;-0.070001;4.75;4.25;4.25;3.25;2.0;1.25;0.0;1.0;0.25;1.5;2.5;3.0;1.75;6.5;0.25;1.75;-0.240234;0.018555;0.982422;-0.49;-1.75;0.28;382.0;-0.044518;-0.063229
1.39;4.5;4.5;4.0;4.0;0.75;0.75;0.0;0.5;0.5;1.0;2.5;2.25;1.25;2.25;0.5;0.75;-0.213867;0.027344;0.972656;-1.96;1.68;-0.21;307.0;-0.11247;-0.075957;4.75;4.25;4.5;3.25;2.25;1.0;0.0;1.25;0.5;1.25;2.75;3.0;1.75;6.25;0.25;1.75;-0.241211;0.024414;0.98877;-0.49;-1.68;0.35;389.0;-0.045661;-0.062688
1.4;4.75;4.5;4.25;4.0;0.5;0.75;0.0;0.5;0.5;1.75;2.75;2.5;1.0;2.25;0.5;0.75;-0.212402;0.028809;0.975098;-2.03;1.68;-0.28;320.0;-0.103948;-0.070321;4.75;4.0;4.5;3.25;2.25;1.0;0.0;1.25;0.25;1.5;2.75;3.25;1.75;6.25;0.25;1.5;-0.240234;0.023926;0.983887;-0.42;-1.75;0.35;388.0;-0.043782;-0.064773
1.41;5.0;4.25;4.25;4.0;0.5;0.75;0.0;0.5;0.75;1.5;2.5;2.5;1.0;2.25;0.5;0.75;-0.202148;0.024414;0.975586;-2.03;1.75;-0.21;319.0;-0.105938;-0.065356;4.5;4.25;4.5;3.25;2.0;1.5;0.0;1.25;0.0;1.5;2.75;3.25;1.75;6.25;0.25;1.5;-0.244141;0.027344;0.987305;-0.42;-1.75;0.42;387.0;-0.047084;-0.073229
1.42;4.75;4.5;4.25;4.0;0.5;0.75;0.0;0.5;0.75;1.25;2.5;2.5;1.25;2.5;0.5;0.75;-0.208984;0.027344;0.980469;-1.96;1.61;-0.21;320.0;-0.103271;-0.069605;4.5;4.25;4.5;3.25;2.0;1.5;0.0;1.0;0.0;1.5;2.75;3.25;1.75;6.5;0.25;1.5;-0.238281;0.024902;0.984375;-0.42;-1.75;0.42;385.0;-0.044886;-0.068695
1.43;5.25;4.5;4.25;4.0;0.5;0.75;0.0;0.5;0.75;1.0;2.5;2.5;1.25;2.0;0.5;1.0;-0.210938;0.026855;0.975586;-2.1;1.75;-0.14;320.0;-0.115821;-0.072132;4.75;4.25;4.5;3.25;1.75;1.25;0.0;1.0;0.0;1.5;2.75;3.0;1.75;6.25;0.25;1.5;-0.245117;0.022949;0.982422;-0.35;-1.68;0.28;377.0;-0.050334;-0.066756
1.44;5.25;4.5;4.25;4.0;0.5;0.75;0.0;0.25;0.5;1.0;2.5;2.5;1.25;2.0;0.5;1.25;-0.213379;0.028809;0.97168;-1.96;1.68;-0.21;314.0;-0.118891;-0.072913;5.0;4.0;4.5;3.75;1.75;1.25;0.0;1.25;0.0;1.5;2.75;3.25;1.75;6.0;0.25;1.75;-0.241211;0.030762;0.987793;-0.42;-1.68;0.21;389.0;-0.052832;-0.074161
1.45;5.25;4.75;4.5;4.0;0.5;0.75;0.0;0.25;0.5;1.75;2.5;2.25;1.25;2.25;0.5;0.75;-0.205566;0.030273;0.975098;-1.96;1.75;-0.14;324.0;-0.116811;-0.063398;4.75;4.0;4.75;3.25;1.75;1.5;0.0;1.0;0.0;1.5;2.5;3.25;1.75;6.0;0.25;1.5;-0.239746;0.019531;0.981445;-0.56;-1.82;0.21;379.0;-0.053136;-0.069111
1.46;5.25;4.5;4.5;4.0;0.5;0.75;0.0;0.5;0.5;1.5;2.25;2.25;1.25;2.25;0.5;0.75;-0.215332;0.029785;0.973145;-1.96;1.75;-0.14;320.0;-0.119116;-0.067169;4.75;4.0;4.5;3.25;2.0;1.25;0.0;1.0;0.25;1.5;2.5;3.0;1.75;6.0;0.0;1.25;-0.239258;0.023438;0.984863;-0.42;-1.89;0.35;372.0;-0.055246;-0.062243
1.47;5.25;4.5;4.0;4.25;0.5;1.0;0.0;0.25;0.5;1.75;2.25;2.25;1.5;2.25;0.5;0.75;-0.208984;0.026367;0.971191;-1.96;1.82;-0.21;321.0;-0.114693;-0.070734;4.5;4.25;4.5;3.25;1.75;1.25;0.0;1.0;0.25;1.5;2.5;3.0;1.75;6.25;0.25;1.75;-0.242676;0.021484;0.981445;-0.56;-1.68;0.28;377.0;-0.045687;-0.06555
1.48;5.0;4.5;4.25;4.5;0.5;1.0;0.0;0.5;0.5;1.25;2.25;2.5;1.25;2.25;0.5;0.75;-0.210449;0.026855;0.976074;-1.96;1.82;-0.14;323.0;-0.118934;-0.077267;4.75;4.0;4.5;3.25;1.75;1.5;0.0;1.0;0.25;1.75;2.75;3.25;1.75;6.25;0.25;1.25;-0.245117;0.019531;0.989258;-0.42;-1.68;0.28;385.0;-0.043971;-0.064533
1.49;5.0;4.5;4.0;4.25;0.5;0.75;0.0;0.5;0.5;1.0;2.5;2.5;1.25;2.0;0.5;0.75;-0.210938;0.02832;0.97168;-1.89;1.75;-0.21;312.0;-0.119579;-0.07899;4.75;4.0;4.5;3.25;1.75;1.0;0.0;1.25;0.25;1.5;2.5;3.0;1.75;6.25;0.25;1.5;-0.240234;0.023926;0.984375;-0.42;-1.68;0.21;377.0;-0.046232;-0.06464
1.5;4.75;4.5;4.0;4.0;0.5;0.75;0.0;0.5;0.5;1.25;2.5;2.25;1.0;2.25;0.5;0.75;-0.211914;0.027344;0.980957;-1.96;1.61;-0.14;307.0;-0.113807;-0.071722;4.5;4.25;4.5;3.25;1.75;1.0;0.0;1.25;0.0;1.5;2.5;2.75;1.75;6.25;0.25;1.5;-0.237305;0.020508;0.987793;-0.42;-1.75;0.28;371.0;-0.050521;-0.06783
1.51;5.0;4.5;4.25;4.25;0.5;0.75;0.0;0.5;0.5;1.25;2.5;2.5;1.25;2.25;0.5;0.75;-0.210938;0.024414;0.979492;-1.96;1.61;-0.21;320.0;-0.114385;-0.074654;4.75;4.25;4.5;3.5;1.75;1.25;0.0;1.0;0.25;1.5;2.5;3.25;1.75;6.25;0.25;1.5;-0.243652;0.017578;0.983887;-0.42;-1.75;0.35;384.0;-0.049521;-0.066215
1.52;5.0;4.5;4.25;4.25;0.5;0.75;0.0;0.25;0.5;1.0;2.75;2.5;1.0;1.75;0.5;0.75;-0.214355;0.024902;0.976074;-2.1;1.68;-0.21;310.0;-0.124972;-0.073032;5.0;4.0;4.5;3.25;1.75;1.5;0.0;1.0;0.0;1.5;2.75;3.0;1.75;6.5;0.25;1.25;-0.238281;0.024902;0.983887;-0.63;-1.61;0.28;381.0;-0.050121;-0.064189
1.53;5.0;4.5;4.25;4.0;0.75;0.5;0.0;0.25;0.5;1.25;2.5;2.25;1.0;2.25;0.5;0.75;-0.214355;0.027832;0.977051;-1.82;1.68;-0.28;309.0;-0.118619;-0.06185;4.75;4.25;4.5;3.25;2.0;1.25;0.0;1.25;0.0;1.5;2.5;3.0;1.5;6.0;0.25;1.5;-0.24707;0.02002;0.989746;-0.42;-1.68;0.21;377.0;-0.056289;-0.067873
1.54;5.25;4.75;4.25;4.25;0.5;0.75;0.0;0.5;0.5;1.25;2.25;2.5;1.25;2.25;0.5;0.75;-0.20752;0.026367;0.980469;-1.75;1.61;-0.21;322.0;-0.121628;-0.0735;5.0;4.0;4.25;3.5;1.5;1.25;0.0;1.0;0.0;0.75;2.5;3.0;1.75;6.0;0.25;1.5;-0.236328;0.022461;0.980957;-0.35;-1.68;0.28;362.0;-0.06107;-0.072131
1.55;5.25;4.5;4.25;4.25;0.5;0.75;0.0;0.5;0.5;1.0;2.5;2.5;1.25;2.5;0.5;0.75;-0.211914;0.023438;0.973145;-1.89;1.61;-0.28;322.0;-0.116087;-0.072631;5.0;4.0;4.5;3.25;1.75;1.25;0.0;1.25;0.0;1.25;2.5;3.25;1.75;6.25;0.5;1.25;-0.242188;0.019043;0.982422;-0.42;-1.68;0.42;380.0;-0.050532;-0.069578
1.56;5.25;4.25;4.5;4.25;0.75;1.0;0.0;0.25;0.5;1.5;2.5;2.5;1.25;2.25;0.5;1.0;-0.208496;0.03125;0.973145;-1.96;1.68;-0.28;329.0;-0.11264;-0.067903;4.75;4.0;4.75;3.25;1.5;1.25;0.0;1.25;0.25;1.25;2.5;3.25;1.75;6.5;0.25;1.25;-0.245605;0.025879;0.979492;-0.42;-1.68;0.28;380.0;-0.047109;-0.066143
1.57;5.25;4.5;4.5;4.25;0.5;1.0;0.0;0.5;0.5;1.25;2.5;2.5;1.25;2.25;0.25;0.75;-0.210938;0.026367;0.979004;-1.96;1.82;-0.21;325.0;-0.122512;-0.073386;5.0;4.0;4.5;3.25;1.5;1.0;0.0;1.25;0.25;1.5;2.5;3.25;1.5;6.25;0.25;1.0;-0.241699;0.026367;0.983398;-0.49;-1.75;0.35;375.0;-0.050526;-0.061887
1.58;5.25;4.5;4.5;4.25;0.75;1.0;0.0;0.5;0.5;1.25;2.5;2.5;1.25;2.25;0.25;0.75;-0.212402;0.026367;0.977539;-1.96;1.61;-0.28;328.0;-0.122535;-0.072259;5.0;4.0;4.25;3.0;2.0;1.0;0.0;1.25;0.25;1.5;2.75;3.25;1.75;6.0;0.5;1.5;-0.241211;0.024414;0.984863;-0.35;-1.61;0.42;382.0;-0.041701;-0.065948
1.59;5.0;4.5;4.5;4.0;0.75;1.0;0.0;0.5;0.5;1.5;2.5;2.5;1.5;2.25;0.5;1.0;-0.212402;0.02832;0.979492;-1.89;1.68;-0.21;332.0;-0.108043;-0.074954;4.5;4.0;4.25;2.75;1.75;1.0;0.0;1.0;0.0;1.5;2.5;3.25;1.75;6.0;0.25;1.5;-0.239258;0.023438;0.98877;-0.56;-1.54;0.28;359.0;-0.042243;-0.06739
1.6;5.0;4.5;4.5;4.5;0.5;1.0;0.0;0.5;0.5;1.5;2.25;2.5;1.5;2.5;0.25;0.75;-0.210938;0.025391;0.970703;-1.89;1.54;-0.21;330.0;-0.116214;-0.075585;4.75;4.0;4.25;2.75;1.5;1.0;0.0;1.0;0.25;1.5;2.75;3.0;1.75;6.25;0.25;1.5;-0.23877;0.025391;0.985352;-0.42;-1.54;0.28;365.0;-0.038732;-0.06131
1.61;5.25;4.5;4.0;4.5;0.5;1.0;0.0;0.5;0.75;1.5;2.25;2.25;1.0;2.25;0.5;0.75;-0.208496;0.028809;0.974609;-1.96;1.75;-0.21;324.0;-0.117861;-0.068176;4.5;4.25;4.5;3.25;2.0;1.25;0.0;1.25;0.25;1.75;2.25;2.75;1.75;6.25;0.0;1.5;-0.243652;0.022949;0.984863;-0.42;-1.61;0.28;377.0;-0.052245;-0.064056
1.62;4.75;4.5;4.0;4.25;0.75;0.75;0.0;0.25;0.5;1.5;2.5;2.5;1.25;2.25;0.25;0.75;-0.209473;0.027344;0.974121;-1.96;1.75;-0.28;314.0;-0.113426;-0.071377;4.5;4.25;4.75;3.5;1.75;1.0;0.0;1.25;0.25;1.5;2.5;3.0;1.75;6.0;0.25;1.25;-0.242188;0.016602;0.980469;-0.42;-1.61;0.42;379.0;-0.053448;-0.066938
1.63;4.75;4.5;4.25;4.25;0.5;1.0;0.0;0.25;0.5;1.75;2.5;2.5;1.25;2.25;0.25;0.75;-0.206543;0.026367;0.970215;-1.82;1.61;-0.28;319.0;-0.1121;-0.071729;4.75;4.25;4.5;3.25;2.0;1.0;0.0;1.25;0.25;1.5;2.5;3.0;1.75;6.25;0.0;1.25;-0.240723;0.021973;0.983398;-0.42;-1.61;0.49;378.0;-0.053682;-0.063326
1.64;5.0;4.5;4.25;4.25;0.5;1.0;0.0;0.5;0.5;1.75;2.5;2.5;1.5;2.5;0.5;0.75;-0.217773;0.026367;0.978027;-1.89;1.61;-0.28;332.0;-0.103912;-0.075016;5.0;4.25;4.5;3.25;2.0;1.5;0.0;1.0;0.25;1.5;2.5;3.0;1.75;6.5;0.0;1.5;-0.237793;0.021484;0.984863;-0.35;-1.54;0.35;386.0;-0.053793;-0.061439
1.65;5.0;4.5;4.25;4.25;0.5;1.25;0.0;0.5;0.5;1.25;2.5;2.25;1.25;2.0;0.25;0.75;-0.208496;0.02832;0.974121;-1.89;1.68;-0.35;318.0;-0.125555;-0.077841;4.5;4.25;4.25;3.5;2.0;1.5;0.0;1.0;0.25;1.5;2.75;3.25;1.75;6.0;0.25;1.75;-0.241699;0.019043;0.984375;-0.42;-1.61;0.28;385.0;-0.046084;-0.071623
1.66;5.0;4.5;4.5;4.25;0.5;0.75;0.0;0.25;0.5;1.5;2.5;2.0;1.0;2.25;0.25;0.75;-0.212891;0.028809;0.972168;-1.82;1.68;-0.21;311.0;-0.125873;-0.06166;4.5;4.25;4.25;3.5;2.0;1.5;0.0;1.25;0.0;1.5;2.5;3.0;1.75;6.25;0.25;1.75;-0.246094;0.024902;0.978516;-0.42;-1.68;0.28;383.0;-0.049392;-0.07453
1.67;5.25;4.75;4.5;4.25;0.5;0.75;0.0;0.25;0.5;1.5;2.5;2.25;1.0;2.0;0.5;0.75;-0.214355;0.022949;0.971191;-2.03;1.75;-0.28;320.0;-0.126652;-0.064726;4.5;4.0;4.25;3.5;2.0;1.25;0.0;1.0;0.25;1.25;2.75;3.0;1.75;6.25;0.0;1.75;-0.241699;0.023926;0.985352;-0.42;-1.75;0.28;375.0;-0.047393;-0.067454
1.68;5.25;4.75;4.5;4.25;0.5;1.25;0.0;0.5;0.5;1.25;2.5;2.25;1.0;2.25;0.5;1.0;-0.210938;0.026367;0.974121;-1.89;1.68;-0.21;330.0;-0.123159;-0.072412;4.75;4.25;4.25;3.25;1.75;1.25;0.0;1.0;0.25;1.25;2.5;3.0;1.75;6.25;0.0;1.5;-0.241211;0.025879;0.979492;-0.49;-1.68;0.28;370.0;-0.053251;-0.065378
1.69;5.25;4.75;4.25;4.25;0.5;1.0;0.0;0.5;0.5;1.5;2.5;2.5;1.25;2.5;0.5;1.0;-0.211914;0.022461;0.974609;-1.89;1.68;-0.28;334.0;-0.110959;-0.073763;4.75;4.25;4.5;3.25;1.75;1.25;0.0;1.0;0.0;1.5;2.5;3.0;1.75;6.5;0.25;1.5;-0.234375;0.023926;0.985352;-0.42;-1.75;0.28;377.0;-0.049637;-0.065034
1.7;5.0;4.75;4.25;4.25;0.5;0.5;0.0;0.5;0.5;1.5;2.5;2.25;1.25;2.25;0.5;1.0;-0.210449;0.023926;0.981934;-1.89;1.82;-0.28;321.0;-0.114001;-0.071704;4.5;4.25;4.5;3.25;1.75;1.25;0.0;1.25;0.0;1.25;2.5;3.0;1.75;6.0;0.25;1.5;-0.239258;0.021973;0.987305;-0.42;-1.61;0.28;371.0;-0.054122;-0.073279
1.71;5.0;4.25;4.25;4.25;0.5;0.5;0.0;0.5;0.5;1.5;2.5;2.5;1.0;2.25;0.5;0.75;-0.207031;0.02832;0.975098;-2.1;1.89;-0.21;315.0;-0.110876;-0.068476;4.5;4.25;4.5;3.25;2.0;1.25;0.0;1.0;0.0;1.5;2.75;2.75;1.75;6.0;0.25;1.5;-0.243164;0.025879;0.986816;-0.42;-1.75;0.35;373.0;-0.052908;-0.066808
1.72;5.0;4.5;4.25;4.5;0.75;0.5;0.0;0.5;0.5;1.5;2.5;2.0;1.0;2.5;0.5;0.75;-0.206543;0.027832;0.970703;-1.89;1.68;-0.35;320.0;-0.116494;-0.064026;4.75;4.25;4.5;3.5;2.25;1.25;0.0;1.0;0.0;1.5;2.5;2.75;1.75;6.25;0.0;1.25;-0.243652;0.022949;0.984863;-0.42;-1.68;0.28;376.0;-0.061567;-0.063096
1.73;5.25;5.0;4.5;4.25;0.75;0.75;0.0;0.5;0.5;1.25;2.5;2.5;1.0;2.0;0.25;0.75;-0.214355;0.024902;0.975586;-1.96;1.61;-0.21;326.0;-0.131884;-0.070955;5.0;4.25;4.5;3.75;2.0;1.25;0.0;1.0;0.0;1.5;2.5;3.0;1.75;6.25;0.0;1.5;-0.236816;0.022949;0.985352;-0.49;-1.61;0.28;383.0;-0.061682;-0.066474
1.74;5.25;4.75;4.5;4.5;0.5;0.5;0.0;0.5;0.5;1.25;2.5;2.5;1.25;2.0;0.25;0.75;-0.213379;0.024414;0.981445;-2.03;1.75;-0.21;323.0;-0.129039;-0.073628;4.5;4.25;4.5;3.5;1.75;1.25;0.0;1.25;0.25;1.5;2.5;3.25;1.75;6.25;0.25;1.25;-0.242676;0.023438;0.984375;-0.42;-1.68;0.28;383.0;-0.048217;-0.069751
1.75;5.25;4.5;4.5;4.5;0.5;0.75;0.0;0.5;0.5;1.5;2.5;2.5;1.0;2.25;0.5;0.75;-0.214844;0.02832;0.981445;-1.89;1.68;-0.28;329.0;-0.118453;-0.069423;4.75;4.25;4.5;3.25;2.0;1.25;0.0;1.0;0.0;1.75;2.5;3.25;1.5;6.0;0.0;1.5;-0.24707;0.025879;0.982422;-0.42;-1.61;0.28;376.0;-0.056072;-0.065181
1.76;5.0;4.5;4.25;4.5;0.5;0.75;0.0;0.5;0.25;1.25;2.5;2.5;1.25;2.0;0.25;0.75;-0.209473;0.025391;0.977539;-1.89;1.68;-0.21;315.0;-0.127676;-0.081236;4.75;4.0;4.25;3.25;2.0;1.25;0.0;1.0;0.0;1.75;2.5;3.25;1.5;6.25;0.0;1.75;-0.243164;0.022461;0.986328;-0.42;-1.61;0.28;374.0;-0.048114;-0.065232
1.77;5.25;4.25;4.25;4.25;0.5;0.75;0.0;0.5;0.5;1.5;2.25;2.75;1.0;2.0;0.25;0.75;-0.203125;0.029297;0.972168;-1.96;1.82;-0.28;316.0;-0.121593;-0.071831;4.75;4.25;4.5;3.25;2.0;1.0;0.0;1.0;0.25;1.75;2.25;3.25;1.5;6.25;0.25;1.25;-0.23584;0.021973;0.984375;-0.42;-1.61;0.21;377.0;-0.050247;-0.05824
1.78;5.25;4.75;4.25;4.25;0.5;0.75;0.0;0.5;0.5;1.75;2.5;2.5;1.25;2.0;0.25;0.75;-0.209473;0.027344;0.978027;-1.96;1.75;-0.28;325.0;-0.120819;-0.073218;4.75;4.25;4.5;3.25;1.75;1.25;0.0;1.5;0.25;1.5;2.75;3.25;1.75;6.25;0.25;1.25;-0.240234;0.025391;0.983398;-0.49;-1.61;0.21;390.0;-0.046698;-0.070928
1.79;5.0;4.75;4.25;4.25;0.5;0.75;0.0;0.5;0.5;1.75;2.75;2.5;1.25;2.25;0.5;1.0;-0.209961;0.02832;0.978516;-1.96;1.68;-0.28;331.0;-0.106285;-0.074422;4.75;4.5;4.5;3.5;2.25;1.25;0.0;1.25;0.5;1.5;2.75;3.25;1.75;6.0;0.25;1.5;-0.239258;0.018066;0.981445;-0.42;-1.61;0.28;399.0;-0.050478;-0.066976
1.8;5.25;4.5;4.5;4.25;0.5;0.75;0.0;0.5;0.5;1.5;2.5;2.5;1.0;2.25;0.5;0.75;-0.210938;0.027832;0.97998;-1.96;1.75;-0.28;326.0;-0.11703;-0.068114;4.75;4.0;4.5;3.25;2.0;1.0;0.0;1.0;0.0;1.5;2.75;3.0;1.75;6.0;0.25;1.5;-0.241211;0.021484;0.982422;-0.49;-1.68;0.49;373.0;-0.050522;-0.065091
1.81;5.0;5.0;4.5;4.25;0.75;0.75;0.0;0.5;0.5;1.5;2.25;2.5;1.0;2.0;0.5;0.75;-0.208984;0.030273;0.974609;-1.96;1.61;-0.21;326.0;-0.125277;-0.071037;4.75;4.0;4.5;3.25;2.0;1.25;0.0;1.0;0.0;1.75;2.75;3.0;1.75;6.0;0.25;1.5;-0.235352;0.026855;0.984863;-0.42;-1.75;0.35;378.0;-0.049254;-0.065699
1.82;5.0;4.75;4.5;4.25;0.75;1.0;0.0;0.5;0.5;1.25;2.25;2.5;1.0;2.25;0.5;0.75;-0.208984;0.026367;0.976074;-1.96;1.54;-0.21;326.0;-0.122846;-0.071502;4.75;4.25;4.5;3.25;2.0;1.25;0.0;1.0;0.0;1.5;2.75;3.0;1.75;6.0;0.25;1.25;-0.239258;0.021484;0.986816;-0.42;-1.68;0.35;377.0;-0.054977;-0.066313
1.83;4.75;4.25;4.25;4.0;0.75;1.0;0.0;0.5;0.5;1.0;2.25;2.5;1.25;2.25;0.5;0.75;-0.210449;0.027832;0.974609;-1.96;1.54;-0.21;313.0;-0.114473;-0.075519;4.5;4.25;4.75;3.25;2.0;1.25;0.0;1.25;0.0;1.5;2.75;3.0;1.5;6.25;0.5;1.75;-0.23877;0.026855;0.979492;-0.42;-1.75;0.28;386.0;-0.04635;-0.067856
1.84;4.75;4.75;4.5;4.25;0.5;1.0;0.0;0.5;0.5;1.25;2.5;2.5;1.25;2.5;0.5;1.0;-0.211914;0.030273;0.973633;-2.1;1.68;-0.35;329.0;-0.110449;-0.076343;4.75;4.0;4.75;3.0;2.0;1.25;0.0;1.25;0.25;1.5;2.75;3.0;1.5;6.5;0.0;1.75;-0.240234;0.018555;0.982422;-0.49;-1.82;0.35;384.0;-0.045906;-0.060477
1.85;5.0;5.0;4.5;4.25;0.5;1.0;0.0;0.5;0.5;1.0;2.5;2.5;1.25;2.25;0.25;1.0;-0.210449;0.028809;0.974609;-1.96;1.68;-0.35;326.0;-0.125319;-0.078236;4.75;4.0;4.5;3.5;1.5;1.25;0.0;1.25;0.25;1.5;2.75;3.0;1.75;6.25;0.0;1.5;-0.237793;0.019531;0.985352;-0.49;-1.82;0.35;380.0;-0.049432;-0.068433
1.86;5.25;5.0;4.5;4.25;0.75;1.25;0.0;0.5;0.5;1.0;2.5;2.0;1.25;2.0;0.5;1.0;-0.210938;0.032227;0.975098;-1.96;1.54;-0.21;329.0;-0.13229;-0.075417;4.5;4.0;4.5;3.25;1.75;1.25;0.0;1.0;0.25;1.5;2.75;3.25;1.75;6.0;0.0;1.25;-0.23877;0.020508;0.983398;-0.42;-1.75;0.28;372.0;-0.048471;-0.066373
1.87;5.25;4.5;4.5;4.25;0.5;1.0;0.0;0.5;0.5;1.0;2.5;2.25;1.0;2.0;0.5;1.0;-0.209473;0.027344;0.973633;-1.96;1.54;-0.28;320.0;-0.12732;-0.072804;4.75;4.0;4.5;3.25;1.75;1.25;0.0;1.25;0.5;1.25;2.5;3.0;1.75;6.25;0.0;1.25;-0.23877;0.021484;0.980469;-0.56;-1.89;0.28;376.0;-0.050989;-0.063064
1.88;5.25;4.75;4.5;4.5;0.5;1.0;0.0;0.5;0.5;1.0;2.5;2.5;1.25;2.25;0.5;0.75;-0.213867;0.024902;0.98291;-1.82;1.61;-0.14;331.0;-0.124568;-0.076439;5.0;4.0;4.5;3.25;2.0;1.25;0.0;1.0;0.0;1.5;2.75;3.25;1.75;6.5;0.25;1.5;-0.240234;0.020996;0.984863;-0.35;-1.68;0.35;385.0;-0.046719;-0.064285
1.89;5.25;4.5;4.5;4.25;0.5;0.75;0.0;0.25;0.5;1.0;2.25;2.25;1.25;2.25;0.5;0.75;-0.213867;0.027832;0.973633;-1.89;1.61;-0.28;314.0;-0.127845;-0.066783;4.75;4.0;4.5;3.25;2.0;1.25;0.0;1.25;0.0;1.25;2.5;3.0;1.75;6.5;0.0;1.5;-0.243652;0.026367;0.987305;-0.56;-1.82;0.35;376.0;-0.052767;-0.067571
1.9;5.25;4.5;4.5;4.25;0.5;0.5;0.0;0.25;0.5;1.5;2.25;2.25;1.25;2.0;0.25;0.75;-0.211426;0.023438;0.979492;-1.89;1.68;-0.28;311.0;-0.129699;-0.064341;4.75;4.25;4.5;3.5;2.0;1.25;0.0;1.25;0.25;1.5;2.25;3.0;1.5;6.5;0.25;1.25;-0.239258;0.024414;0.981934;-0.56;-1.82;0.28;383.0;-0.05347;-0.062151
1.91;4.75;4.5;4.75;4.25;0.5;0.75;0.0;0.5;0.5;1.5;2.5;2.5;1.25;2.0;0.0;1.0;-0.213379;0.031738;0.974121;-1.96;1.82;-0.28;320.0;-0.121882;-0.074723;5.0;4.0;4.5;3.5;2.25;1.0;0.0;1.0;0.25;1.5;2.5;3.25;1.75;6.25;0.25;1.5;-0.237793;0.018066;0.988281;-0.49;-1.68;0.14;387.0;-0.050053;-0.061182
1.92;4.75;4.5;4.5;4.5;0.5;0.75;0.0;0.5;0.5;1.5;2.25;2.5;1.25;2.25;0.25;0.75;-0.212891;0.03125;0.975586;-1.96;1.68;-0.35;320.0;-0.119037;-0.074472;5.0;4.0;4.5;3.25;1.75;1.0;0.0;1.25;0.0;1.5;2.5;3.25;1.75;6.5;0.5;1.5;-0.245117;0.022461;0.978027;-0.42;-1.75;0.35;384.0;-0.043813;-0.066724
1.93;5.25;4.5;4.5;4.5;0.75;0.75;0.0;0.5;0.5;1.5;2.25;2.5;1.25;2.25;0.5;0.75;-0.210938;0.027832;0.974609;-2.03;1.68;-0.28;331.0;-0.119348;-0.070538;5.0;4.0;4.5;3.25;2.0;1.25;0.0;1.25;0.0;2.0;2.5;3.25;1.75;6.5;0.25;1.25;-0.240723;0.023926;0.982422;-0.49;-1.75;0.35;390.0;-0.045802;-0.064556
1.94;5.25;4.5;4.5;4.5;0.5;1.0;0.0;0.5;0.5;1.5;2.5;2.5;1.25;2.0;0.25;0.75;-0.208008;0.024414;0.974609;-1.89;1.82;-0.28;329.0;-0.124484;-0.07519;4.75;4.25;4.5;3.5;1.75;1.25;0.0;1.25;0.25;1.5;2.75;3.25;1.75;6.25;0.0;1.25;-0.237793;0.022461;0.986328;-0.42;-1.61;0.35;386.0;-0.051844;-0.068782
1.95;4.75;4.5;4.5;4.5;0.5;1.25;0.0;0.5;0.5;1.25;2.5;2.5;1.25;2.0;0.25;0.75;-0.213379;0.024902;0.979004;-1.89;1.61;-0.21;324.0;-0.123191;-0.080913;4.75;4.0;4.5;3.5;1.75;1.5;0.0;1.0;0.0;1.25;2.5;3.0;1.75;6.0;0.25;1.25;-0.23877;0.019043;0.981934;-0.35;-1.61;0.21;372.0;-0.058687;-0.069878
1.96;5.25;4.75;4.25;4.5;0.75;1.0;0.0;0.5;0.5;1.5;2.5;2.5;1.25;2.25;0.5;0.75;-0.20752;0.032715;0.980469;-1.96;1.61;-0.14;336.0;-0.117747;-0.074516;5.0;4.0;4.25;3.25;2.0;1.25;0.0;1.0;0.0;1.5;2.25;3.0;1.75;6.25;0.5;1.0;-0.239746;0.022461;0.986328;-0.42;-1.75;0.35;372.0;-0.053105;-0.062762
1.97;5.25;4.75;4.5;4.5;0.75;0.75;0.0;0.25;0.5;1.5;2.5;2.5;1.25;2.5;0.5;0.75;-0.208008;0.030273;0.974609;-1.89;1.75;-0.21;334.0;-0.116522;-0.066312;4.75;4.0;4.25;3.25;2.0;1.25;0.0;1.0;0.0;1.5;2.5;3.0;1.75;6.25;0.25;1.5;-0.244141;0.023926;0.982422;-0.42;-1.61;0.28;373.0;-0.048949;-0.066021
1.98;5.5;4.75;4.5;4.25;0.75;0.75;0.0;0.25;0.5;1.25;2.5;2.75;1.25;2.25;0.5;0.75;-0.210938;0.029785;0.973145;-1.89;1.68;-0.21;332.0;-0.120953;-0.068043;4.75;4.25;4.5;3.25;1.75;1.25;0.0;1.0;0.0;1.25;2.5;3.25;1.75;6.25;0.25;1.5;-0.245605;0.02002;0.97998;-0.56;-1.68;0.35;375.0;-0.05246;-0.068928
1.99;5.25;4.75;4.5;4.25;0.5;1.0;0.0;0.5;0.5;1.25;2.25;2.5;1.5;2.5;0.5;0.75;-0.206543;0.028809;0.977051;-1.96;1.68;-0.21;332.0;-0.117764;-0.074687;4.75;4.25;4.5;3.5;1.75;1.25;0.0;1.25;0.25;1.5;2.75;3.25;1.75;6.5;0.25;1.25;-0.249023;0.021484;0.983887;-0.56;-1.61;0.28;391.0;-0.04622;-0.067529
2.0;5.25;4.5;4.5;4.5;0.5;0.75;0.0;0.5;0.5;1.25;2.25;2.5;1.5;2.0;0.5;1.0;-0.209961;0.023926;0.976562;-1.96;1.75;-0.35;327.0;-0.121716;-0.077933;4.75;4.0;4.75;3.5;2.0;1.25;0.0;1.25;0.0;1.5;2.25;3.25;1.5;6.25;0.0;1.5;-0.240723;0.024902;0.98291;-0.42;-1.68;0.28;380.0;-0.058002;-0.067032
2.01;5.25;4.75;4.25;4.25;1.0;1.25;0.0;0.25;0.5;1.5;2.5;2.5;1.25;2.25;0.0;1.0;-0.206055;0.026855;0.978516;-2.03;1.68;-0.14;331.0;-0.124289;-0.070984;4.75;4.0;4.5;3.5;2.0;1.5;0.0;1.0;0.0;1.5;2.5;3.25;1.75;6.25;0.0;1.75;-0.240723;0.017578;0.981934;-0.49;-1.68;0.35;382.0;-0.052891;-0.069853
2.02;5.0;4.25;4.5;4.25;0.75;1.25;0.0;0.25;0.5;1.25;2.5;2.25;1.25;2.5;0.0;0.75;-0.208008;0.025391;0.97168;-1.82;1.68;-0.21;319.0;-0.123239;-0.067355;4.75;4.25;4.25;3.25;1.75;1.5;0.0;0.75;0.0;1.5;2.75;3.25;1.5;6.5;0.25;1.75;-0.239746;0.02002;0.981934;-0.49;-1.68;0.35;378.0;-0.045228;-0.064962
2.03;5.0;4.5;4.5;4.5;0.5;0.75;0.0;0.5;0.5;1.25;2.5;2.25;1.0;2.25;0.25;1.0;-0.211426;0.026367;0.978027;-1.82;1.75;-0.21;319.0;-0.12406;-0.071019;4.5;4.25;4.25;3.75;2.0;1.5;0.0;1.0;0.0;1.25;2.5;3.0;1.5;6.0;0.25;1.25;-0.241211;0.02002;0.977051;-0.42;-1.61;0.28;372.0;-0.060461;-0.070804
2.04;5.0;4.75;4.5;4.5;0.75;1.25;0.0;0.5;0.5;1.25;2.75;2.5;1.25;1.75;0.5;1.25;-0.213379;0.027344;0.976562;-1.89;1.82;-0.21;337.0;-0.119995;-0.08267;5.0;4.25;4.5;3.25;2.25;1.5;0.0;1.25;0.0;1.5;2.75;3.0;1.75;6.0;0.25;1.0;-0.230469;0.019531;0.98291;-0.49;-1.68;0.35;387.0;-0.059523;-0.068019
2.05;5.25;4.75;4.5;4.5;0.75;1.0;0.0;0.5;0.5;1.0;2.5;2.25;1.0;2.0;0.5;1.0;-0.210938;0.023926;0.977539;-1.89;1.75;-0.28;328.0;-0.130677;-0.073609;5.0;4.25;4.5;3.25;2.0;1.5;0.0;1.5;0.0;1.5;2.5;3.25;1.5;6.5;0.25;1.5;-0.241699;0.027344;0.98877;-0.49;-1.75;0.28;393.0;-0.051957;-0.070132
2.06;5.25;4.75;4.5;4.5;0.5;0.75;0.0;0.5;0.5;1.25;2.5;2.5;1.25;2.25;0.25;0.75;-0.208008;0.025879;0.970215;-1.96;1.75;-0.28;328.0;-0.125713;-0.07365;4.75;4.25;4.5;3.25;1.75;1.5;0.0;1.25;0.25;1.75;2.5;3.0;1.5;6.5;0.25;1.5;-0.244141;0.019043;0.983398;-0.49;-1.68;0.28;387.0;-0.046683;-0.063754
2.07;5.0;4.75;4.5;4.25;0.75;0.75;0.0;0.5;0.5;1.25;2.5;2.5;1.25;2.25;0.5;1.0;-0.208496;0.027344;0.972168;-1.89;1.68;-0.21;329.0;-0.115911;-0.073758;4.75;4.25;4.5;3.25;2.0;1.25;0.0;1.25;0.0;1.5;2.5;3.0;1.5;6.25;0.0;1.5;-0.243652;0.02832;0.983887;-0.49;-1.68;0.28;377.0;-0.056878;-0.066386
2.08;4.75;4.75;4.5;4.5;0.75;0.75;0.0;0.5;0.5;1.25;2.5;2.5;1.0;2.25;0.5;0.75;-0.207031;0.025391;0.973145;-1.96;1.68;-0.21;326.0;-0.118958;-0.072901;5.0;4.25;4.5;3.25;2.0;1.5;0.0;1.25;0.0;1.5;2.25;3.0;1.5;6.25;0.0;1.75;-0.241699;0.020508;0.981445;-0.49;-1.68;0.35;381.0;-0.060368;-0.067212
2.09;4.75;4.75;4.5;4.5;0.5;1.0;0.0;0.5;0.5;1.25;2.5;2.5;1.0;2.0;0.25;0.75;-0.209473;0.030762;0.977051;-1.96;1.75;-0.21;321.0;-0.127025;-0.077328;4.75;4.25;4.5;3.75;2.0;1.25;0.0;1.25;0.25;1.5;2.25;3.0;1.5;6.25;0.0;1.5;-0.241211;0.020508;0.981934;-0.35;-1.68;0.35;383.0;-0.059439;-0.065406
2.1;5.25;4.75;4.5;4.5;0.5;0.5;0.0;0.5;0.5;1.25;2.25;2.5;1.5;1.75;0.25;1.0;-0.211426;0.027344;0.970215;-1.96;1.68;-0.21;322.0;-0.131432;-0.078573;4.75;4.0;4.5;3.5;2.0;1.5;0.0;1.0;0.25;1.5;2.75;3.0;1.75;6.25;0.0;1.5;-0.242188;0.023926;0.98584;-0.56;-1.68;0.28;384.0;-0.051611;-0.064822
2.11;5.25;4.75;4.5;4.5;0.5;0.5;0.0;0.5;0.5;1.75;2.25;2.0;1.5;2.25;0.5;1.0;-0.211426;0.026855;0.976074;-1.89;1.68;-0.21;328.0;-0.119637;-0.069542;4.75;4.0;4.5;3.75;1.75;1.25;0.0;0.75;0.25;1.5;2.5;3.25;1.75;6.5;0.0;1.5;-0.243652;0.025391;0.984375;-0.42;-1.68;0.35;380.0;-0.049961;-0.062014
2.12;5.25;4.5;4.5;4.5;0.5;1.0;0.0;0.5;0.5;1.5;2.5;2.5;1.25;2.25;0.5;1.0;-0.210938;0.030762;0.973633;-2.03;1.75;-0.28;335.0;-0.11492;-0.074605;5.0;4.0;4.75;3.25;1.75;1.5;0.0;1.0;0.25;1.5;2.75;3.25;1.75;6.25;0.25;1.5;-0.243652;0.023926;0.980469;-0.42;-1.68;0.28;389.0;-0.048438;-0.064005
2.13;5.25;4.75;4.5;4.5;0.5;1.0;0.0;0.25;0.25;1.25;2.5;2.5;1.25;2.25;0.25;0.75;-0.217285;0.020508;0.971191;-1.96;1.61;-0.21;323.0;-0.131135;-0.075103;5.0;4.25;4.75;3.25;1.75;1.0;0.0;1.25;0.0;1.25;2.75;3.25;1.75;6.25;0.0;1.5;-0.237793;0.025391;0.983887;-0.42;-1.75;0.28;381.0;-0.05655;-0.068562
2.14;5.25;4.75;4.5;4.25;0.5;0.75;0.0;0.25;0.5;1.0;2.5;2.5;1.25;2.5;0.5;0.75;-0.211914;0.026855;0.972656;-2.03;1.75;-0.35;323.0;-0.120738;-0.068145;5.0;4.25;4.75;3.25;1.75;1.25;0.0;1.0;0.25;1.5;2.25;3.25;1.5;6.25;0.0;1.5;-0.240234;0.026855;0.98584;-0.56;-1.75;0.42;379.0;-0.058137;-0.060009
2.15;5.25;4.5;4.5;4.25;0.5;0.5;0.0;0.25;0.5;1.0;2.25;2.0;1.25;2.0;0.5;0.75;-0.212402;0.026855;0.979004;-1.96;1.68;-0.28;306.0;-0.134284;-0.06468;4.75;4.25;4.5;3.5;1.75;1.25;0.0;1.0;0.0;1.5;2.75;3.25;1.75;6.25;0.25;1.75;-0.242188;0.025391;0.991699;-0.49;-1.75;0.42;384.0;-0.0488;-0.070328
2.16;5.25;4.75;4.5;4.25;0.5;0.5;0.0;0.5;0.5;1.5;2.25;2.0;1.0;2.5;0.5;1.0;-0.207031;0.029785;0.975586;-2.03;1.68;-0.21;321.0;-0.121492;-0.062364;5.0;4.25;4.75;3.75;1.75;1.25;0.0;1.25;0.0;1.5;2.75;3.25;1.5;6.5;0.5;1.75;-0.237793;0.028809;0.983398;-0.49;-1.75;0.35;399.0;-0.049622;-0.068807
2.17;5.25;5.0;4.5;4.5;0.5;0.5;0.0;0.5;0.5;1.75;2.25;2.25;1.25;2.5;0.5;1.0;-0.209473;0.025879;0.975586;-2.03;1.68;-0.35;333.0;-0.117573;-0.067872;4.75;4.25;4.25;3.25;2.0;1.25;0.0;1.25;0.0;1.5;2.75;3.25;1.75;6.5;0.5;1.5;-0.241699;0.021484;0.98291;-0.42;-1.75;0.28;389.0;-0.041554;-0.070472
2.18;5.25;4.75;4.5;4.5;0.5;0.5;0.0;0.5;0.5;1.75;2.25;2.5;1.25;2.5;0.5;1.25;-0.206055;0.028809;0.975586;-1.96;1.75;-0.21;335.0;-0.111013;-0.069985;4.75;4.25;4.75;3.25;2.0;1.25;0.0;1.0;0.0;1.5;2.75;3.25;1.75;6.5;0.5;1.75;-0.236816;0.023926;0.980469;-0.49;-1.61;0.35;392.0;-0.043636;-0.065919
2.19;5.25;4.75;4.5;4.5;0.5;0.75;0.0;0.5;0.5;1.5;2.25;2.0;1.25;2.25;0.75;1.0;-0.213379;0.025391;0.973633;-1.96;1.68;-0.35;329.0;-0.120441;-0.069797;4.75;4.25;4.5;3.25;2.0;1.25;0.0;1.0;0.0;1.5;2.75;3.25;1.5;6.5;0.5;1.5;-0.240234;0.024902;0.983887;-0.42;-1.68;0.28;385.0;-0.044652;-0.063945
2.2;5.0;4.75;4.5;4.5;0.5;0.75;0.0;0.5;0.5;1.5;2.5;2.0;1.25;2.0;0.75;0.75;-0.212402;0.024414;0.971191;-1.96;1.61;-0.21;326.0;-0.120902;-0.072188;5.0;3.75;4.5;3.25;2.0;1.25;0.0;1.0;0.0;1.5;2.5;3.0;1.5;6.5;0.25;1.25;-0.244141;0.02002;0.98291;-0.49;-1.68;0.28;374.0;-0.050876;-0.058461
2.21;5.0;4.5;4.5;4.5;0.5;0.75;0.0;0.5;0.5;1.25;2.5;2.25;1.25;2.25;0.5;0.75;-0.210938;0.03125;0.974609;-1.89;1.61;-0.28;323.0;-0.119799;-0.072709;4.75;4.25;4.75;3.25;2.0;1.25;0.0;1.25;0.25;1.5;2.5;3.0;1.75;6.25;0.25;1.25;-0.23877;0.022461;0.98291;-0.42;-1.75;0.21;386.0;-0.052765;-0.063828
2.22;5.25;4.5;4.25;4.5;0.75;0.5;0.0;0.5;0.5;1.25;2.25;2.25;1.25;2.0;0.5;1.0;-0.208984;0.027344;0.975098;-1.89;1.54;-0.21;319.0;-0.124932;-0.072136;4.75;4.5;4.75;3.25;1.75;1.0;0.0;1.25;0.25;1.5;2.5;3.25;1.75;6.25;0.0;1.5;-0.25;0.024414;0.986328;-0.35;-1.68;0.28;384.0;-0.053624;-0.066204
2.23;5.0;4.75;4.25;4.5;0.75;0.5;0.0;0.5;0.5;1.25;2.25;2.25;1.0;2.25;0.75;0.75;-0.208496;0.026855;0.979492;-1.96;1.75;-0.28;320.0;-0.120886;-0.069037;5.0;4.25;4.75;3.5;1.75;1.25;0.0;1.25;0.0;1.25;2.75;3.0;1.75;6.25;0.0;1.5;-0.245117;0.025391;0.983887;-0.28;-1.89;0.35;384.0;-0.060694;-0.069566
2.24;4.75;4.5;4.25;4.25;0.5;0.75;0.0;0.5;0.5;1.5;2.25;2.5;1.25;2.5;0.5;1.0;-0.209473;0.027344;0.975586;-2.03;1.54;-0.21;321.0;-0.106448;-0.074014;5.0;4.25;4.5;3.5;2.0;1.5;0.0;1.25;0.25;1.5;2.75;3.0;1.75;6.25;0.25;1.5;-0.244141;0.023438;0.987793;-0.42;-1.89;0.28;395.0;-0.052605;-0.067538
2.25;5.25;4.75;4.25;4.75;0.75;1.0;0.0;0.5;0.5;1.5;2.25;2.5;1.25;2.5;0.5;0.75;-0.208984;0.024414;0.976562;-1.82;1.68;-0.21;338.0;-0.118445;-0.073828;4.75;4.25;4.5;3.25;2.25;1.5;0.0;1.25;0.25;1.5;2.75;3.25;1.75;6.25;0.5;1.5;-0.239258;0.024414;0.98291;-0.42;-1.89;0.35;398.0;-0.044439;-0.068319
2.26;5.0;4.5;4.25;4.5;0.75;0.75;0.0;0.5;0.5;1.0;2.5;2.25;1.25;2.25;0.5;0.75;-0.208984;0.03125;0.975098;-1.96;1.75;-0.28;320.0;-0.121501;-0.074081;4.75;4.25;4.75;3.25;2.25;1.75;0.0;1.25;0.5;1.5;2.75;3.25;1.75;6.5;0.0;1.5;-0.242676;0.022461;0.981934;-0.42;-1.82;0.28;404.0;-0.047736;-0.064354
2.27;5.75;4.75;4.25;4.5;0.5;0.75;0.0;0.5;0.5;1.0;2.5;2.5;1.0;2.5;0.5;1.0;-0.209961;0.025391;0.975098;-2.03;1.75;-0.28;332.0;-0.123989;-0.070153;5.0;4.25;4.5;3.25;2.25;1.5;0.0;1.0;0.25;1.5;2.75;3.25;1.75;6.0;0.0;1.5;-0.239258;0.023926;0.982422;-0.35;-1.82;0.35;389.0;-0.055743;-0.065139
2.28;5.25;4.75;4.25;4.25;0.5;0.75;0.0;0.5;0.5;1.0;2.75;2.25;1.25;2.5;0.5;0.75;-0.216309;0.023438;0.977051;-2.1;1.82;-0.35;324.0;-0.118101;-0.071831;5.0;4.0;4.5;3.25;2.0;1.5;0.0;1.25;0.0;1.5;2.5;3.25;1.75;6.5;0.0;1.5;-0.244629;0.022949;0.980957;-0.35;-1.75;0.35;387.0;-0.05206;-0.068506
2.29;5.25;4.5;4.5;4.25;0.5;1.0;0.0;0.5;0.75;1.25;2.5;2.5;1.5;1.75;0.5;0.75;-0.208496;0.03125;0.977539;-2.03;1.61;-0.28;329.0;-0.119512;-0.075801;5.0;4.0;4.75;3.5;2.0;1.5;0.0;1.25;0.0;1.5;2.5;3.25;1.75;6.5;0.25;1.25;-0.243164;0.023926;0.98291;-0.35;-1.61;0.28;393.0;-0.053567;-0.067722
2.3;4.75;4.5;4.5;4.25;0.5;0.75;0.0;0.5;0.75;1.25;2.5;2.5;1.5;2.25;0.5;1.0;-0.209961;0.025391;0.978516;-2.03;1.61;-0.21;327.0;-0.105825;-0.074773;5.0;4.25;4.75;3.75;2.25;1.5;0.0;1.25;0.0;1.5;2.5;2.75;1.75;6.5;0.25;1.5;-0.242188;0.021484;0.978516;-0.28;-1.54;0.28;397.0;-0.059843;-0.066301
2.31;5.0;4.75;4.25;4.5;1.25;1.0;0.0;0.5;0.75;1.25;2.5;2.5;1.0;2.25;0.5;0.75;-0.208008;0.028809;0.979004;-1.96;1.68;-0.21;337.0;-0.116656;-0.068905;5.0;4.25;4.75;3.5;1.75;1.25;0.0;1.25;0.0;1.5;2.75;2.75;1.75;6.5;0.25;1.5;-0.242676;0.030273;0.986328;-0.35;-1.68;0.21;389.0;-0.054745;-0.065873
2.32;5.0;4.5;4.25;4.0;1.0;0.75;0.0;0.5;0.5;1.25;2.25;2.5;1.25;2.25;0.5;0.75;-0.211914;0.026367;0.975586;-1.96;1.75;-0.35;320.0;-0.11587;-0.070698;5.0;4.0;4.5;3.5;2.25;1.5;0.0;1.25;0.0;1.5;2.75;3.25;1.75;6.5;0.25;1.5;-0.245605;0.024414;0.985352;-0.35;-1.75;0.35;397.0;-0.049316;-0.069091
2.33;5.25;4.5;4.5;4.5;0.75;1.0;0.0;0.5;0.5;1.25;2.5;2.5;1.25;2.5;0.5;0.75;-0.213379;0.031738;0.972656;-2.03;1.82;-0.21;336.0;-0.116336;-0.071999;4.75;4.25;4.75;3.5;2.0;1.5;0.0;1.25;0.25;1.25;2.5;2.75;1.75;6.5;0.25;1.25;-0.241699;0.024414;0.977051;-0.35;-1.61;0.21;388.0;-0.056303;-0.064387
2.34;5.25;4.75;4.25;4.5;0.75;1.0;0.0;0.5;0.5;1.5;2.5;2.5;1.0;2.25;0.5;0.75;-0.210449;0.030762;0.981445;-1.89;1.61;-0.28;334.0;-0.119613;-0.072002;4.75;4.25;4.5;3.75;2.0;1.75;0.0;1.25;0.0;1.5;2.75;3.0;1.75;6.5;0.0;1.25;-0.243164;0.024414;0.980957;-0.21;-1.75;0.28;393.0;-0.057184;-0.071787
2.35;5.0;4.5;4.5;4.5;0.75;1.0;0.0;0.5;0.5;1.5;2.5;2.5;1.25;2.0;0.5;0.75;-0.203613;0.025391;0.976074;-1.96;1.61;-0.14;331.0;-0.118092;-0.075552;4.75;4.25;4.5;3.5;2.0;1.75;0.0;1.25;0.25;1.5;2.75;3.0;1.75;6.5;0.0;1.5;-0.247559;0.024902;0.984863;-0.35;-1.82;0.28;395.0;-0.051551;-0.068689
2.36;5.0;4.5;4.5;4.5;0.75;0.75;0.0;0.5;0.5;1.5;2.5;2.5;1.0;2.5;0.75;0.75;-0.208496;0.022461;0.980957;-2.03;1.61;-0.14;333.0;-0.108759;-0.068253;4.75;4.25;4.5;3.75;2.0;1.25;0.0;1.0;0.0;1.5;2.75;2.25;1.75;6.5;0.25;1.5;-0.236816;0.025879;0.977539;-0.42;-1.75;0.28;380.0;-0.057088;-0.061978
2.37;5.25;4.75;4.5;4.5;0.75;1.25;0.0;0.5;0.5;1.5;2.25;2.5;1.0;2.5;0.75;0.75;-0.209473;0.026367;0.976074;-2.03;1.54;-0.28;341.0;-0.116331;-0.070469;4.75;4.25;4.75;3.75;2.0;1.25;0.0;1.25;0.0;1.5;2.75;3.25;1.5;6.25;0.25;1.5;-0.240723;0.028809;0.98877;-0.42;-1.75;0.35;393.0;-0.054806;-0.069468
2.38;5.25;4.5;4.5;4.5;0.75;1.0;0.0;0.5;0.5;1.75;2.5;2.5;1.25;2.5;0.5;0.75;-0.211426;0.023438;0.974609;-1.96;1.54;-0.14;341.0;-0.110893;-0.069926;4.5;4.25;4.5;3.5;2.25;1.5;0.0;1.25;0.0;1.5;2.75;3.25;1.5;6.5;0.25;1.75;-0.242676;0.020996;0.981934;-0.35;-1.82;0.28;394.0;-0.046603;-0.070683
2.39;5.25;4.5;4.25;4.25;0.75;1.0;0.0;0.5;0.5;1.75;2.5;3.0;1.0;2.25;0.5;1.0;-0.211914;0.026855;0.974121;-2.03;1.4;-0.14;338.0;-0.106395;-0.073536;4.75;4.25;4.75;3.5;2.0;1.5;0.0;1.25;0.25;1.5;2.75;3.25;1.75;6.25;0.25;1.5;-0.241699;0.020996;0.985352;-0.35;-1.82;0.14;398.0;-0.050092;-0.069096
2.4;5.25;4.75;4.5;4.75;1.25;0.75;0.0;0.5;0.75;1.5;2.5;2.5;1.25;2.5;0.5;0.75;-0.209473;0.024414;0.97168;-1.96;1.47;-0.35;349.0;-0.113374;-0.065906;4.75;4.25;4.5;3.25;2.25;1.5;0.0;1.25;0.25;1.5;2.5;3.5;1.75;6.25;0.25;1.5;-0.239746;0.021973;0.987793;-0.56;-1.89;0.21;395.0;-0.047551;-0.069428
2.41;5.25;4.75;4.5;4.75;0.75;0.75;0.0;0.5;0.5;1.5;2.25;2.25;1.0;2.25;0.75;0.75;-0.211914;0.030273;0.974609;-1.96;1.47;-0.21;334.0;-0.123095;-0.068241;5.0;4.25;4.75;3.5;2.25;1.5;0.0;1.0;0.0;1.5;2.75;3.25;1.75;6.25;0.25;1.5;-0.240723;0.024414;0.982422;-0.42;-1.96;0.21;396.0;-0.055809;-0.066768
2.42;5.25;5.0;4.5;4.5;0.75;0.75;0.0;0.5;0.5;1.25;2.25;2.5;1.0;2.25;0.5;0.75;-0.20459;0.032227;0.974609;-1.89;1.61;-0.21;331.0;-0.12821;-0.070365;5.0;4.5;4.75;4.0;2.0;1.0;0.0;1.0;0.0;1.5;2.5;3.25;1.75;6.25;0.25;1.5;-0.241211;0.03125;0.983887;-0.42;-1.96;0.28;393.0;-0.061207;-0.067271
2.43;5.25;5.0;4.5;4.5;0.75;1.5;0.0;0.5;0.5;1.75;2.5;2.5;1.0;2.25;0.0;0.75;-0.212891;0.026855;0.977051;-1.96;1.68;-0.14;341.0;-0.12871;-0.073329;4.75;4.25;5.25;4.0;2.0;1.5;0.0;1.25;0.0;1.5;2.75;3.25;1.75;6.25;0.25;1.5;-0.240234;0.021484;0.981934;-0.49;-1.96;0.21;406.0;-0.058731;-0.071791
2.44;5.25;4.75;4.5;4.75;0.75;1.0;0.0;0.5;0.5;1.25;2.75;2.5;1.25;2.25;0.0;0.75;-0.210449;0.022949;0.973145;-1.89;1.82;-0.21;336.0;-0.128681;-0.075657;5.0;4.25;5.25;3.75;2.0;1.5;0.0;1.0;0.0;1.5;2.75;3.25;1.75;6.5;0.0;1.25;-0.237305;0.022461;0.987793;-0.42;-1.82;0.21;400.0;-0.061812;-0.064314
2.45;5.25;4.5;4.5;4.75;0.75;0.75;0.0;0.5;0.5;1.0;2.5;2.5;1.5;2.25;0.5;1.25;-0.211426;0.028809;0.972656;-1.82;1.89;-0.21;336.0;-0.117856;-0.078722;5.0;4.25;5.25;4.0;2.25;1.75;0.0;1.0;0.25;1.5;2.75;3.25;1.75;6.5;0.0;1.25;-0.242676;0.021973;0.981934;-0.49;-1.82;0.28;412.0;-0.061808;-0.063233
2.46;5.25;4.5;4.5;4.25;0.5;0.75;0.0;0.5;0.5;1.0;2.5;2.5;1.25;2.25;0.25;0.75;-0.209961;0.024902;0.975586;-1.75;1.96;-0.14;320.0;-0.125208;-0.072805;5.0;4.25;5.25;4.0;2.25;1.5;0.0;1.25;0.25;1.5;2.75;3.25;1.75;6.5;0.0;1.5;-0.243164;0.023438;0.982422;-0.42;-1.75;0.35;414.0;-0.059373;-0.065696
2.47;5.0;4.5;4.5;4.25;0.5;0.75;0.0;0.5;0.5;1.25;2.5;2.5;1.25;2.5;0.25;0.75;-0.202148;0.029297;0.976562;-1.89;1.96;-0.07;322.0;-0.116472;-0.071507;4.75;4.25;5.25;4.0;2.0;1.25;0.0;1.25;0.25;1.0;2.75;3.25;1.75;7.0;0.25;1.25;-0.239746;0.023926;0.987305;-0.49;-1.82;0.28;406.0;-0.053389;-0.064665
2.48;5.25;4.5;4.5;4.25;0.5;0.5;0.0;0.5;0.5;1.25;2.5;2.5;1.25;2.5;0.5;0.75;-0.211914;0.023438;0.977539;-1.82;1.75;-0.07;325.0;-0.114214;-0.068469;5.25;4.25;5.25;4.0;2.25;1.5;0.0;1.25;0.0;1.5;2.5;3.25;1.75;6.25;0.25;1.25;-0.238281;0.021484;0.98291;-0.49;-1.68;0.21;410.0;-0.066731;-0.067535
2.49;5.25;4.75;4.0;4.5;0.5;0.5;0.0;0.5;0.5;1.25;2.5;2.5;1.0;2.25;0.5;0.75;-0.205078;0.023926;0.977539;-1.68;1.82;-0.21;320.0;-0.120664;-0.072241;5.0;4.25;5.25;4.0;2.0;1.5;0.0;1.25;0.0;1.5;2.5;3.25;1.75;6.5;0.5;1.25;-0.239746;0.022461;0.980469;-0.42;-1.61;0.35;409.0;-0.058671;-0.068334
2.5;5.0;4.75;4.25;4.5;0.5;0.75;0.0;0.5;0.5;1.25;2.5;2.5;1.5;2.25;0.25;0.75;-0.215332;0.025391;0.976562;-1.89;1.82;-0.21;325.0;-0.120328;-0.079095;5.25;4.25;5.25;4.0;2.0;1.25;0.0;1.25;0.0;1.5;2.5;3.25;1.5;7.0;0.25;1.5;-0.243164;0.023926;0.986816;-0.42;-1.68;0.28;410.0;-0.058138;-0.061951
2.51;4.75;5.0;4.25;4.25;0.5;1.0;0.0;0.5;0.75;1.25;2.5;2.5;1.5;2.25;0.25;0.75;-0.211426;0.025879;0.978027;-1.82;1.75;-0.28;328.0;-0.115279;-0.07805;5.0;4.25;5.25;4.0;2.0;1.25;0.0;1.25;0.0;1.5;2.75;3.25;1.75;6.5;0.25;1.5;-0.239746;0.022461;0.983398;-0.49;-1.68;0.21;408.0;-0.057832;-0.068003
2.52;5.25;5.0;4.25;4.5;0.5;0.5;0.0;0.5;0.75;1.25;2.5;2.5;1.25;2.25;0.5;0.75;-0.210449;0.02832;0.978027;-1.82;1.75;-0.28;330.0;-0.118315;-0.070653;5.0;4.25;4.25;4.0;2.0;1.5;0.0;1.0;0.25;1.5;2.75;3.25;1.75;6.5;0.25;1.5;-0.237305;0.023926;0.981934;-0.49;-1.68;0.28;399.0;-0.050523;-0.067904
2.53;5.25;4.5;4.25;4.5;0.5;0.5;0.0;0.5;0.5;1.0;2.25;2.5;1.25;2.25;0.5;0.75;-0.210938;0.026367;0.973145;-1.96;1.82;-0.42;317.0;-0.123625;-0.073552;4.75;4.25;4.75;3.75;2.25;1.5;0.0;1.25;0.0;1.5;2.75;3.25;1.75;6.5;0.0;1.5;-0.242676;0.023926;0.985352;-0.63;-1.68;0.21;400.0;-0.055289;-0.070679
2.54;5.0;4.5;4.5;4.25;0.5;0.75;0.0;0.5;0.5;1.0;2.5;2.5;1.5;2.25;0.5;0.75;-0.206055;0.025391;0.976074;-1.89;1.75;-0.35;322.0;-0.116648;-0.076953;5.0;4.25;5.25;3.75;2.25;1.5;0.0;1.0;0.25;1.5;2.75;3.0;1.75;6.0;0.0;1.5;-0.244141;0.021973;0.982422;-0.7;-1.82;0.35;401.0;-0.065037;-0.062582
2.55;5.0;4.5;4.5;4.75;0.5;0.75;0.0;0.5;0.5;1.25;2.25;2.5;1.5;2.25;0.5;0.75;-0.214844;0.027832;0.977539;-1.82;1.75;-0.21;328.0;-0.119409;-0.078001;5.0;4.5;5.25;3.75;2.5;1.25;0.0;1.0;0.0;1.5;2.75;3.25;1.75;6.25;0.25;1.25;-0.23877;0.026367;0.98291;-0.63;-1.75;0.35;406.0;-0.063524;-0.063179
2.56;5.0;4.5;4.5;4.5;0.5;0.75;0.0;0.5;0.5;1.5;2.25;2.25;1.25;2.5;0.5;0.75;-0.210938;0.028809;0.974121;-1.75;1.82;-0.28;325.0;-0.116213;-0.069629;5.0;4.25;5.25;3.75;2.0;1.25;0.0;1.25;0.0;1.5;2.75;3.25;1.75;6.25;0.5;1.25;-0.241211;0.024902;0.984375;-0.7;-1.47;0.28;404.0;-0.057129;-0.067499
2.57;5.25;4.5;4.25;4.0;0.5;1.0;0.0;0.5;0.5;1.5;2.5;2.25;1.0;2.5;0.25;0.75;-0.211426;0.027832;0.973145;-1.82;1.89;-0.28;320.0;-0.118044;-0.066258;4.75;4.5;5.25;3.75;2.0;1.25;0.0;1.25;0.0;1.5;2.75;3.0;1.75;6.5;0.25;1.25;-0.244629;0.020508;0.987793;-0.7;-1.54;0.28;401.0;-0.05926;-0.066305
2.58;4.75;4.25;4.25;4.25;0.25;1.0;0.0;0.5;0.5;1.5;2.5;2.5;1.25;2.5;0.25;0.75;-0.208984;0.02832;0.973145;-1.82;1.75;-0.21;317.0;-0.107946;-0.075473;4.5;4.5;4.75;3.75;2.25;1.5;0.0;1.25;0.0;1.75;2.75;3.0;1.75;6.25;0.0;1.0;-0.238281;0.020508;0.983887;-0.63;-1.54;0.35;395.0;-0.060315;-0.06969
2.59;4.75;4.25;4.0;4.0;0.0;0.75;0.0;0.5;0.5;1.5;2.5;2.5;1.0;2.25;0.5;0.75;-0.209961;0.028809;0.970215;-1.82;1.68;-0.28;305.0;-0.105494;-0.074187;4.75;4.25;4.75;3.75;2.25;1.75;0.0;1.25;0.25;1.5;2.5;3.25;1.75;6.25;0.0;1.0;-0.239258;0.022949;0.987793;-0.63;-1.47;0.42;398.0;-0.060575;-0.068599
2.6;4.75;4.5;4.0;4.0;0.5;0.5;0.0;0.5;0.5;1.25;2.5;2.0;1.25;2.25;0.5;1.0;-0.212402;0.030273;0.976074;-1.89;1.68;-0.28;305.0;-0.112126;-0.071839;5.0;4.0;5.25;3.75;2.0;1.5;0.0;1.25;0.25;1.5;2.75;3.25;1.75;6.0;0.25;1.0;-0.244629;0.025391;0.983398;-0.7;-1.54;0.28;402.0;-0.060102;-0.065911
2.61;4.5;4.5;4.0;4.25;0.5;0.5;0.0;0.5;0.5;1.0;2.5;2.5;1.25;2.25;0.5;0.75;-0.209961;0.026855;0.975586;-1.82;1.54;-0.28;307.0;-0.110808;-0.078659;4.75;4.5;4.75;3.75;2.25;1.25;0.0;1.25;0.0;1.5;2.75;3.25;1.75;6.0;0.0;1.0;-0.245117;0.023926;0.986328;-0.77;-1.54;0.28;393.0;-0.064692;-0.070849
2.62;4.75;4.5;4.0;4.25;0.5;0.5;0.0;0.5;0.5;1.25;2.5;2.5;1.25;2.25;0.5;0.75;-0.210938;0.029785;0.977051;-1.89;1.68;-0.21;312.0;-0.110306;-0.075915;4.75;4.25;4.75;4.0;1.75;1.0;0.0;1.0;0.0;1.5;3.0;3.25;1.75;6.0;0.0;1.0;-0.242188;0.025879;0.987305;-0.7;-1.61;0.35;384.0;-0.061222;-0.06896
2.63;5.0;4.75;4.25;4.0;0.5;0.75;0.0;0.5;0.5;1.25;2.5;2.25;1.25;2.25;0.5;0.75;-0.206055;0.029297;0.978027;-1.82;1.75;-0.28;317.0;-0.11777;-0.072181;4.75;4.25;4.75;3.75;2.25;1.25;0.0;1.0;0.25;1.75;3.0;2.75;1.75;6.0;0.0;0.75;-0.242188;0.024414;0.981934;-0.84;-1.61;0.28;388.0;-0.061605;-0.059727
2.64;5.25;4.5;4.5;4.0;0.5;0.75;0.0;0.5;0.5;1.25;2.5;2.5;1.25;2.25;0.5;0.75;-0.208984;0.027832;0.972656;-1.82;1.54;-0.35;323.0;-0.116538;-0.070488;5.0;4.25;4.75;3.25;2.0;1.5;0.0;1.25;0.0;1.75;3.0;3.0;1.75;5.75;0.0;1.0;-0.241699;0.018066;0.986328;-0.84;-1.54;0.35;388.0;-0.062364;-0.068494
2.65;5.0;4.75;4.25;4.25;0.5;0.75;0.0;0.5;0.5;1.0;2.5;2.25;1.25;2.5;0.5;0.75;-0.20459;0.029297;0.975586;-1.89;1.75;-0.28;319.0;-0.11861;-0.072935;4.75;4.25;4.75;3.25;2.5;1.75;0.0;1.25;0.0;1.75;2.75;3.0;1.75;6.0;0.0;0.75;-0.244629;0.023438;0.984375;-0.7;-1.4;0.14;391.0;-0.062428;-0.06676
2.66;5.0;4.75;4.25;4.5;0.75;1.0;0.0;0.5;0.5;1.25;2.25;2.5;1.25;2.5;0.5;1.0;-0.210449;0.023926;0.975586;-1.89;1.54;-0.21;331.0;-0.115674;-0.076068;4.5;4.25;4.75;3.25;2.25;1.75;0.0;1.25;0.0;1.5;3.0;3.0;1.75;6.0;0.25;0.75;-0.240723;0.018066;0.984375;-0.77;-1.54;0.28;389.0;-0.056621;-0.070142
2.67;5.25;4.75;4.25;4.5;0.75;1.0;0.0;0.5;0.5;1.25;2.25;2.5;1.5;2.25;0.5;0.75;-0.210449;0.022461;0.976562;-1.82;1.68;-0.21;333.0;-0.12138;-0.077794;4.5;4.25;4.75;3.75;2.25;1.25;0.0;1.0;0.25;1.5;3.0;3.0;1.75;6.0;0.0;0.75;-0.245117;0.023926;0.984863;-0.7;-1.68;0.42;386.0;-0.059505;-0.063305
2.68;5.0;4.75;4.25;4.5;0.5;0.75;0.0;0.5;0.25;1.25;2.25;2.5;1.25;2.25;0.75;1.0;-0.209961;0.032715;0.972168;-1.89;1.89;-0.35;323.0;-0.118273;-0.080847;5.0;4.25;4.75;4.0;2.25;1.0;0.0;1.0;0.25;1.75;3.0;3.25;1.75;5.75;0.0;1.0;-0.239258;0.024902;0.990723;-0.63;-1.54;0.28;395.0;-0.062288;-0.063601
2.69;5.25;4.5;4.25;4.25;0.5;0.75;0.0;0.5;0.5;1.0;2.5;2.5;1.25;2.25;0.75;0.75;-0.205566;0.03125;0.973145;-1.89;1.96;-0.28;323.0;-0.115307;-0.07436;5.0;4.25;4.75;3.25;2.25;1.0;0.0;1.25;0.25;1.75;2.75;3.25;1.75;6.0;0.0;1.0;-0.240234;0.025391;0.986816;-0.49;-1.68;0.35;390.0;-0.056397;-0.061735
2.7;4.75;4.25;4.5;4.0;0.5;0.75;0.0;0.5;0.5;1.0;2.75;2.5;1.25;2.25;0.5;1.0;-0.210449;0.023926;0.976562;-1.75;1.89;-0.28;317.0;-0.107719;-0.075247;4.75;4.0;4.5;3.25;2.25;1.25;0.0;1.25;0.25;2.0;2.75;3.25;1.75;6.0;0.0;0.75;-0.243164;0.022461;0.982422;-0.35;-1.47;0.28;387.0;-0.050565;-0.0631
2.71;4.75;4.25;4.0;4.0;0.5;0.75;0.0;0.5;0.5;1.0;2.5;2.5;1.0;2.0;0.5;0.75;-0.210449;0.027344;0.979004;-1.82;1.68;-0.14;303.0;-0.11544;-0.075872;4.5;4.0;4.5;3.25;2.25;1.0;0.0;1.0;0.25;1.75;3.0;3.25;1.5;5.75;0.0;1.0;-0.243164;0.01709;0.986816;-0.35;-1.54;0.35;375.0;-0.050283;-0.060649
2.72;5.0;4.5;4.0;4.0;0.5;0.75;0.0;0.5;0.5;1.0;2.5;2.25;1.5;2.5;0.5;0.75;-0.210449;0.027832;0.972656;-1.89;1.96;-0.28;313.0;-0.111644;-0.075051;4.5;4.0;4.5;3.25;2.25;1.5;0.0;1.25;0.25;1.5;3.0;3.25;1.5;5.75;0.0;1.0;-0.239746;0.023438;0.98584;-0.35;-1.54;0.35;381.0;-0.053341;-0.06783
2.73;4.75;4.0;4.25;4.0;0.5;0.75;0.0;0.5;0.5;1.0;2.5;2.5;1.25;2.25;0.5;0.75;-0.210449;0.027832;0.975586;-1.89;1.75;-0.28;307.0;-0.108882;-0.07466;4.75;4.0;4.5;3.5;2.25;1.5;0.0;1.25;0.25;1.5;2.75;3.25;1.5;6.0;0.0;1.0;-0.241699;0.020508;0.987793;-0.35;-1.4;0.49;386.0;-0.056672;-0.066082
2.74;4.75;4.0;4.0;4.0;0.5;0.75;0.0;0.5;0.5;1.25;2.25;2.25;1.25;2.25;0.5;1.0;-0.213867;0.02832;0.976074;-1.82;1.82;-0.21;303.0;-0.107991;-0.073775;4.5;4.0;4.5;3.5;2.25;1.75;0.0;1.0;0.25;1.75;2.75;3.0;1.5;5.75;0.25;1.0;-0.239746;0.021484;0.981934;-0.35;-1.47;0.35;383.0;-0.054677;-0.0645
2.75;5.0;4.5;4.0;4.0;0.5;0.75;0.0;0.5;0.25;1.25;2.25;2.0;1.5;2.25;0.5;1.0;-0.217773;0.027832;0.969727;-1.89;1.82;-0.28;307.0;-0.119762;-0.078166;4.75;4.0;4.5;3.75;2.25;1.25;0.0;1.0;0.0;1.75;2.75;3.0;1.5;6.0;0.25;1.0;-0.244629;0.03125;0.980957;-0.35;-1.47;0.35;382.0;-0.057381;-0.06306
2.76;5.0;4.25;4.5;4.5;0.5;0.75;0.0;0.5;0.25;1.5;2.5;2.25;1.25;2.25;0.5;0.75;-0.209961;0.030273;0.980469;-1.96;1.82;-0.28;320.0;-0.118581;-0.074476;4.75;4.0;4.5;3.25;1.75;1.0;0.0;1.0;0.25;1.75;2.75;3.25;1.5;5.75;0.25;1.0;-0.238281;0.022461;0.98584;-0.21;-1.54;0.42;372.0;-0.050338;-0.061034
2.77;5.0;4.5;4.0;4.25;0.5;0.5;0.0;0.5;0.5;1.75;2.5;2.5;1.0;2.25;0.5;1.0;-0.217285;0.024414;0.971191;-2.03;1.89;-0.35;319.0;-0.106858;-0.070528;4.5;4.0;4.5;3.25;2.25;1.25;0.0;1.0;0.25;1.5;3.0;3.0;1.5;6.0;0.25;1.25;-0.244629;0.023438;0.987305;-0.14;-1.47;0.42;378.0;-0.047553;-0.06111
2.78;5.0;4.5;4.0;4.25;0.5;0.5;0.0;0.5;0.5;1.5;2.25;2.5;1.25;2.25;0.5;0.75;-0.211426;0.024414;0.973633;-1.89;1.89;-0.28;314.0;-0.112615;-0.072905;4.5;4.25;4.5;3.25;2.25;1.5;0.0;1.0;0.25;1.5;2.75;3.0;1.5;6.0;0.25;1.25;-0.242676;0.024414;0.980469;-0.28;-1.61;0.28;381.0;-0.052414;-0.062883
2.79;5.0;4.25;4.25;4.5;0.5;0.5;0.0;0.5;0.5;1.25;2.25;2.5;1.25;2.25;0.5;1.0;-0.211914;0.026367;0.977539;-1.89;1.82;-0.28;316.0;-0.114136;-0.074271;4.5;4.25;4.25;3.25;2.0;1.5;0.0;1.25;0.25;1.5;2.75;3.0;1.75;6.0;0.25;1.5;-0.243164;0.019531;0.986328;-0.35;-1.68;0.42;383.0;-0.047214;-0.071305
2.8;5.0;4.5;4.25;4.25;0.5;0.5;0.0;0.25;0.5;1.25;2.25;2.5;1.0;2.25;0.5;0.75;-0.210938;0.027832;0.977539;-1.96;1.96;-0.28;309.0;-0.120187;-0.065933;4.5;4.25;4.5;3.25;2.0;1.0;0.0;1.0;0.25;1.75;2.75;3.0;1.75;6.0;0.25;1.5;-0.244141;0.02002;0.97998;-0.28;-1.61;0.35;379.0;-0.045689;-0.063076
2.81;5.25;4.25;4.0;4.0;0.5;0.75;0.0;0.25;0.5;1.5;2.25;2.5;1.0;2.5;0.5;0.75;-0.209473;0.031738;0.971191;-1.96;1.89;-0.21;311.0;-0.111182;-0.062783;4.5;4.25;4.25;3.25;2.0;1.25;0.0;1.0;0.25;1.5;2.75;3.0;1.5;6.0;0.25;1.5;-0.240723;0.023438;0.97998;-0.21;-1.61;0.35;374.0;-0.048061;-0.064314
2.82;5.0;4.25;4.0;4.0;0.25;0.75;0.0;0.25;0.5;1.5;3.0;2.5;1.25;2.25;0.75;0.75;-0.212402;0.026855;0.973145;-2.03;1.89;-0.28;316.0;-0.097583;-0.071101;4.5;4.25;4.5;3.25;2.0;1.25;0.0;1.0;0.25;1.5;2.75;3.0;1.5;6.0;0.25;1.25;-0.237305;0.021973;0.986816;-0.28;-1.68;0.35;375.0;-0.051157;-0.062269
2.83;5.0;4.5;4.25;4.0;0.25;1.0;0.0;0.5;0.5;1.25;2.75;2.5;1.0;2.5;0.75;0.75;-0.211426;0.027832;0.977539;-2.03;1.82;-0.21;322.0;-0.104547;-0.072337;4.5;4.25;4.5;3.25;2.5;1.75;0.0;1.25;0.0;1.5;3.0;3.25;1.75;6.0;0.5;1.5;-0.239746;0.020996;0.982422;-0.28;-1.54;0.42;398.0;-0.04654;-0.074419
2.84;5.0;4.5;4.0;4.25;0.5;1.0;0.0;0.5;0.5;1.5;2.25;2.5;1.0;2.25;0.75;1.0;-0.210449;0.02832;0.977051;-1.96;1.54;-0.21;322.0;-0.108933;-0.074763;4.75;4.0;4.5;3.5;2.0;1.75;0.0;1.25;0.0;1.5;2.75;3.25;1.5;6.0;0.5;1.5;-0.241699;0.023926;0.982422;-0.28;-1.47;0.28;391.0;-0.050328;-0.073204
2.85;4.75;4.5;4.25;4.25;0.5;0.75;0.0;0.5;0.5;1.0;2.25;2.5;1.0;2.25;0.5;0.75;-0.210449;0.027832;0.973145;-1.96;1.61;-0.28;310.0;-0.119806;-0.074296;4.75;4.25;4.5;3.5;2.0;1.5;0.0;1.25;0.25;1.5;2.75;3.25;1.75;6.0;0.5;1.75;-0.242188;0.026367;0.976562;-0.21;-1.61;0.35;397.0;-0.046624;-0.072453
2.86;4.5;4.5;4.25;4.25;0.5;0.75;0.0;0.5;0.5;1.0;2.5;2.5;1.0;1.75;0.5;1.0;-0.212891;0.03418;0.978516;-2.1;1.54;-0.21;307.0;-0.119728;-0.080744;4.5;4.25;4.75;3.5;2.25;1.5;0.0;1.25;0.25;1.5;2.75;3.0;1.75;6.0;0.0;1.75;-0.246094;0.019043;0.983398;-0.35;-1.68;0.28;392.0;-0.054183;-0.069933
2.87;4.75;4.5;4.25;4.25;0.5;0.75;0.0;0.5;0.5;1.25;2.25;2.0;1.0;2.0;0.5;1.0;-0.213379;0.026855;0.97168;-2.1;1.54;-0.21;307.0;-0.123968;-0.072127;4.75;4.25;4.75;3.25;2.0;1.5;0.0;1.25;0.25;1.5;2.75;3.0;1.75;6.0;0.0;1.75;-0.241211;0.019531;0.984375;-0.35;-1.61;0.42;389.0;-0.054359;-0.068578
2.88;5.25;4.5;4.5;4.25;0.5;0.75;0.0;0.5;0.25;1.25;2.25;2.5;1.25;2.25;0.5;1.0;-0.210449;0.030273;0.978027;-2.03;1.54;-0.35;321.0;-0.122574;-0.075983;4.5;3.5;4.25;3.0;1.75;0.75;0.0;0.75;0.0;1.5;2.5;2.25;1.5;6.0;0.0;1.75;-0.246582;0.026855;0.986328;-0.28;-1.54;0.28;337.0;-0.049658;-0.053204
2.89;5.25;4.5;4.25;4.25;0.5;0.75;0.0;0.5;0.25;1.5;2.5;2.5;1.0;2.25;0.5;1.0;-0.216309;0.031738;0.973145;-2.17;1.54;-0.14;321.0;-0.117523;-0.07401;4.25;3.25;4.25;3.25;1.75;0.5;0.0;0.75;0.0;1.5;2.5;2.25;1.25;6.0;0.25;1.5;-0.243164;0.021484;0.97998;-0.35;-1.54;0.28;331.0;-0.044957;-0.049793
2.9;5.0;4.75;4.5;4.25;0.5;1.0;0.0;0.5;0.5;1.25;2.5;2.5;1.25;2.0;0.5;1.0;-0.213867;0.026855;0.972168;-2.24;1.61;-0.21;327.0;-0.119576;-0.078184;4.25;3.25;4.25;3.25;1.75;0.5;0.0;0.75;0.0;1.5;2.5;3.0;1.5;5.5;0.25;1.5;-0.238281;0.020508;0.98877;-0.21;-1.54;0.28;337.0;-0.043419;-0.06108
2.91;5.0;5.0;4.5;4.0;0.5;1.0;0.0;0.5;0.5;1.25;2.5;2.5;1.25;2.0;0.5;0.75;-0.214355;0.027344;0.974609;-2.31;1.75;-0.28;325.0;-0.122269;-0.076587;4.5;3.5;4.5;3.0;2.0;0.75;0.0;0.75;0.0;1.25;2.5;2.75;1.25;6.0;0.25;1.5;-0.23877;0.02832;0.981445;-0.35;-1.61;0.28;344.0;-0.049756;-0.052358
2.92;5.0;4.75;4.5;4.25;0.75;1.0;0.0;0.5;0.5;1.0;2.5;2.5;1.25;2.25;0.5;0.25;-0.203125;0.026855;0.980469;-2.24;1.61;-0.21;325.0;-0.125036;-0.073517;4.25;3.5;4.25;3.0;2.0;0.75;0.0;0.75;0.0;1.5;2.5;2.75;1.25;6.0;0.25;1.75;-0.239746;0.022949;0.98877;-0.28;-1.68;0.28;343.0;-0.041509;-0.054881
2.93;5.0;4.5;4.5;4.5;0.5;1.0;0.0;0.5;0.5;1.0;2.25;2.5;1.0;2.5;0.5;0.5;-0.208984;0.026367;0.979004;-2.24;1.68;-0.28;322.0;-0.123561;-0.071688;4.0;3.5;4.25;3.25;2.0;0.5;0.0;0.75;0.0;1.5;2.5;3.0;1.25;6.0;0.0;1.5;-0.240723;0.021484;0.98584;-0.35;-1.68;0.35;339.0;-0.043002;-0.05638
2.94;5.0;4.5;4.5;4.75;0.5;1.0;0.0;0.5;0.5;1.25;2.25;2.25;1.25;2.0;0.5;0.75;-0.208008;0.022949;0.974609;-2.24;1.68;-0.14;324.0;-0.127792;-0.07698;4.5;3.25;4.25;3.25;1.75;0.5;0.0;0.75;0.0;1.75;2.5;2.75;1.25;6.0;0.0;1.5;-0.239258;0.023438;0.983398;-0.42;-1.47;0.28;339.0;-0.045076;-0.051283
2.95;5.0;5.0;4.5;4.75;0.5;0.75;0.0;0.5;0.5;1.25;2.25;2.5;1.25;2.25;0.5;0.75;-0.208984;0.026855;0.980957;-2.24;1.61;-0.28;330.0;-0.12545;-0.076714;4.25;3.25;4.25;2.75;2.0;0.5;0.0;0.75;0.0;1.75;2.75;2.75;1.25;6.0;0.25;1.5;-0.240234;0.021484;0.981934;-0.28;-1.61;0.42;339.0;-0.033467;-0.049524
2.96;4.75;5.0;4.5;4.5;0.5;0.75;0.0;0.5;0.25;1.25;2.0;2.5;1.25;2.0;0.5;0.75;-0.208984;0.025879;0.972656;-2.17;1.47;-0.21;317.0;-0.132237;-0.081956;4.5;3.0;4.25;3.0;2.0;0.75;0.0;1.0;0.0;1.5;2.25;2.75;1.25;6.0;0.0;1.25;-0.244629;0.020508;0.989258;-0.28;-1.61;0.35;337.0;-0.047655;-0.053132
2.97;5.25;5.0;4.5;4.75;0.5;0.75;0.0;0.5;0.5;1.5;2.5;2.5;1.0;2.25;0.5;0.75;-0.20166;0.023438;0.977539;-2.24;1.54;-0.21;336.0;-0.123923;-0.072019;4.25;3.0;4.25;3.0;2.0;0.75;0.0;0.75;0.0;1.75;2.25;2.25;1.0;5.75;0.0;1.5;-0.242676;0.026855;0.985352;-0.35;-1.68;0.28;325.0;-0.049844;-0.045458
2.98;5.25;4.75;4.5;4.75;0.5;1.25;0.0;0.5;0.5;1.5;2.5;2.25;1.0;2.0;0.25;0.75;-0.209473;0.025879;0.977051;-2.24;1.47;-0.21;332.0;-0.132658;-0.074405;4.25;3.25;4.25;3.0;1.5;0.75;0.0;0.75;0.0;1.25;2.25;2.25;1.0;5.5;0.0;1.5;-0.242676;0.022949;0.986816;-0.35;-1.61;0.42;314.0;-0.059152;-0.051529
2.99;5.75;4.75;4.5;4.75;0.5;0.75;0.0;0.5;0.75;1.5;2.25;2.25;1.25;2.25;0.25;0.75;-0.208496;0.024414;0.975586;-2.03;1.54;-0.21;336.0;-0.130113;-0.065556;4.25;3.25;4.5;3.0;1.75;0.75;0.0;0.75;0.0;1.5;2.5;3.0;1.25;5.75;0.0;1.5;-0.239258;0.022461;0.98291;-0.35;-1.75;0.35;337.0;-0.046156;-0.055969
3.0;5.25;4.75;4.5;4.5;0.5;0.5;0.0;0.5;0.5;1.25;2.25;2.25;1.25;2.0;0.25;0.75;-0.205566;0.030273;0.985352;-2.17;1.75;-0.21;318.0;-0.134765;-0.071437;4.25;4.0;4.5;3.0;1.75;0.75;0.0;0.75;0.25;1.5;2.75;3.25;1.25;5.75;0.25;1.75;-0.233398;0.023926;0.981445;-0.42;-1.82;0.28;357.0;-0.041787;-0.05846
3.01;5.25;5.0;4.5;4.5;0.5;0.5;0.0;0.5;0.5;1.0;2.25;2.5;1.25;2.5;0.25;1.25;-0.208496;0.026855;0.980957;-1.96;1.68;-0.21;327.0;-0.125721;-0.073758;4.25;4.0;4.25;3.25;1.75;0.25;0.0;0.75;0.0;1.5;2.5;2.75;1.0;6.0;0.25;1.5;-0.241699;0.021973;0.989258;-0.42;-1.61;0.28;339.0;-0.049109;-0.05157
3.02;5.25;5.0;4.5;4.5;0.75;0.75;0.0;0.5;0.5;1.0;2.5;2.25;1.25;2.5;0.25;0.75;-0.205566;0.024414;0.977539;-2.1;1.75;-0.21;330.0;-0.129827;-0.070859;4.5;3.75;4.25;3.25;1.75;0.5;0.0;0.75;0.0;1.5;2.5;2.75;1.0;6.0;0.5;1.5;-0.242188;0.023926;0.985352;-0.42;-1.54;0.35;344.0;-0.046637;-0.05158
3.03;5.25;4.75;4.75;4.75;0.5;1.0;0.0;0.5;0.5;1.25;2.25;2.5;1.0;2.5;0.25;0.75;-0.208496;0.025879;0.973633;-2.03;1.75;-0.14;333.0;-0.129672;-0.070698;4.25;3.75;4.25;3.0;1.75;0.5;0.0;0.75;0.25;1.5;2.25;2.75;1.25;5.5;0.0;1.25;-0.236328;0.022461;0.993652;-0.42;-1.54;0.35;331.0;-0.0544;-0.051739
3.04;5.25;4.75;4.5;4.75;0.5;0.75;0.0;0.5;0.5;1.0;2.25;2.5;1.0;2.0;0.25;1.0;-0.205566;0.024414;0.975098;-1.96;1.96;-0.21;322.0;-0.136386;-0.075766;4.5;3.0;4.25;3.25;1.75;0.25;0.0;0.75;0.0;1.5;2.25;2.75;1.25;5.5;0.0;1.25;-0.241699;0.02832;0.981934;-0.49;-1.61;0.42;323.0;-0.05375;-0.050916
3.05;5.25;4.75;4.25;4.5;0.5;0.75;0.0;0.5;0.75;1.5;2.5;2.5;1.0;1.75;0.5;1.0;-0.208008;0.027344;0.972656;-1.82;1.75;-0.28;328.0;-0.120464;-0.072238;4.25;3.25;4.5;3.0;2.0;0.5;0.0;0.75;0.0;1.25;2.25;2.75;1.25;5.25;0.0;1.5;-0.236816;0.021973;0.979492;-0.49;-1.68;0.35;325.0;-0.058488;-0.054755
3.06;4.75;4.75;4.25;4.5;0.5;0.75;0.0;0.25;0.75;1.0;2.5;2.0;1.0;1.75;0.5;1.0;-0.208496;0.030273;0.976562;-1.82;1.68;-0.21;309.0;-0.12875;-0.069815;4.25;3.5;4.25;3.25;2.0;0.5;0.0;0.75;0.0;1.25;2.25;2.25;1.25;5.5;0.0;1.5;-0.239258;0.022461;0.983398;-0.63;-1.68;0.28;324.0;-0.062432;-0.05278
3.07;5.25;4.75;4.5;4.75;0.5;0.75;0.0;0.25;0.5;1.25;2.5;2.25;1.0;2.0;0.0;1.0;-0.209473;0.022949;0.97168;-1.96;1.68;-0.28;319.0;-0.139164;-0.069308;4.5;3.75;4.25;3.25;2.0;0.5;0.0;0.75;0.0;1.5;2.25;2.25;1.0;5.5;0.25;1.25;-0.240234;0.021484;0.980469;-0.56;-1.82;0.35;331.0;-0.064701;-0.047874
3.08;5.0;5.25;4.5;4.75;0.5;0.75;0.0;0.5;0.5;1.25;2.5;2.5;0.75;2.25;0.25;0.75;-0.209473;0.029297;0.977051;-1.82;1.68;-0.21;328.0;-0.132857;-0.072529;4.75;3.5;4.5;3.25;1.75;0.5;0.0;0.75;0.25;1.75;2.25;2.25;1.0;5.25;0.25;1.25;-0.240723;0.025391;0.987305;-0.7;-1.75;0.28;335.0;-0.063603;-0.04302
3.09;5.25;5.25;4.0;4.75;0.5;1.0;0.0;0.5;0.5;1.25;2.5;2.5;1.25;2.0;0.25;0.75;-0.206055;0.030762;0.979492;-1.82;1.68;-0.21;330.0;-0.132443;-0.082213;4.5;3.5;4.5;3.25;1.75;0.25;0.0;0.75;0.0;1.5;2.25;2.75;1.25;5.25;0.0;1.25;-0.242676;0.021484;0.987305;-0.63;-1.68;0.28;329.0;-0.063657;-0.052822
3.1;5.25;5.25;4.0;4.75;0.5;0.75;0.0;0.5;0.5;1.0;2.5;2.5;1.25;2.0;0.25;1.0;-0.210938;0.025391;0.977539;-1.89;1.68;-0.21;326.0;-0.133197;-0.082751;4.5;3.75;4.5;3.25;1.5;0.25;0.0;1.0;0.0;1.5;2.5;2.25;1.25;5.25;0.25;1.5;-0.23877;0.023438;0.983887;-0.63;-1.75;0.21;333.0;-0.061584;-0.056363
3.11;5.25;5.0;4.75;4.75;0.5;0.75;0.0;0.5;0.5;1.0;2.25;2.25;1.25;2.0;0.5;0.75;-0.209961;0.03125;0.978027;-1.89;1.75;-0.14;328.0;-0.137902;-0.074845;4.25;4.0;4.5;3.25;1.5;0.5;0.0;0.75;0.0;1.5;2.5;2.75;1.0;5.5;0.25;1.25;-0.237305;0.023438;0.978516;-0.7;-1.75;0.28;336.0;-0.058633;-0.054961
3.12;5.25;5.0;5.5;4.75;0.5;1.0;0.0;0.25;0.5;1.0;2.5;2.25;1.0;2.0;0.25;0.75;-0.208008;0.029297;0.976562;-1.89;1.75;-0.28;333.0;-0.146102;-0.066473;4.5;4.0;4.5;3.25;1.75;0.5;0.0;0.75;0.25;1.5;2.25;2.75;1.0;5.5;0.0;1.25;-0.238281;0.021973;0.980957;-0.56;-1.75;0.35;339.0;-0.064574;-0.048912
3.13;5.25;5.0;4.75;4.75;0.5;0.75;0.0;0.25;0.5;1.25;2.25;2.5;1.0;2.25;0.25;0.75;-0.213379;0.02832;0.977051;-1.89;1.68;-0.21;327.0;-0.136401;-0.067569;4.75;4.0;4.5;3.25;1.5;0.5;0.0;0.5;0.0;1.5;2.25;2.25;1.25;5.5;0.25;1.25;-0.242676;0.019531;0.980469;-0.63;-1.68;0.35;331.0;-0.069549;-0.046882
3.14;5.25;5.0;4.5;4.75;0.5;1.0;0.0;0.5;0.5;1.25;2.5;2.25;1.0;2.0;0.25;0.75;-0.212891;0.025391;0.972168;-1.96;1.54;-0.28;329.0;-0.137438;-0.074499;4.75;4.0;4.5;3.5;1.75;0.5;0.0;0.5;0.0;1.5;2.25;2.25;1.0;5.25;0.25;1.0;-0.236816;0.014648;0.979492;-0.56;-1.75;0.28;331.0;-0.078241;-0.045095
3.15;5.25;5.0;4.5;4.75;0.5;1.0;0.0;0.5;0.5;1.0;2.0;2.5;1.0;2.25;0.0;0.75;-0.208984;0.026367;0.975586;-1.89;1.68;-0.28;323.0;-0.144357;-0.075022;4.5;4.0;4.75;3.25;1.5;0.75;0.0;0.75;0.0;1.5;2.25;2.75;1.0;5.25;0.0;1.25;-0.244141;0.022949;0.98291;-0.56;-1.68;0.28;337.0;-0.072594;-0.055052
3.16;5.25;5.0;4.5;4.75;0.5;0.75;0.0;0.5;0.5;1.0;2.0;2.25;1.25;2.25;0.0;0.75;-0.212402;0.029297;0.977051;-1.89;1.68;-0.28;320.0;-0.145075;-0.074139;4.75;4.0;4.75;3.25;2.0;1.0;0.0;0.75;0.0;1.5;2.25;2.25;1.0;5.25;0.0;1.25;-0.246094;0.022949;0.98584;-0.56;-1.68;0.28;342.0;-0.080905;-0.049966
3.17;5.25;5.0;4.5;4.75;0.5;1.0;0.0;0.5;0.5;1.25;2.25;2.0;1.0;2.5;0.0;0.75;-0.209961;0.027344;0.97168;-1.89;1.75;-0.21;325.0;-0.140377;-0.069005;4.5;4.0;4.75;3.25;1.75;0.5;0.0;0.5;0.0;1.5;2.25;2.25;0.75;5.25;0.0;1.5;-0.240723;0.021484;0.982422;-0.56;-1.61;0.28;327.0;-0.077416;-0.042832
3.18;5.25;5.25;4.5;4.75;0.5;1.0;0.0;0.5;0.5;1.25;2.25;2.0;0.75;1.75;0.0;0.75;-0.209961;0.030273;0.976074;-1.82;1.61;-0.21;319.0;-0.15556;-0.071981;4.5;4.0;4.75;3.25;1.75;0.5;0.0;0.75;0.0;1.5;2.0;2.25;1.0;5.25;0.25;1.25;-0.239746;0.024414;0.980957;-0.42;-1.54;0.28;331.0;-0.075394;-0.048203
3.19;5.25;5.25;4.5;4.75;0.5;1.25;0.0;0.5;0.5;1.0;2.25;2.0;0.75;1.75;0.25;1.0;-0.208008;0.021484;0.977051;-1.82;1.54;-0.21;323.0;-0.151961;-0.075869;4.75;4.0;4.75;4.0;1.75;0.5;0.0;1.0;0.0;1.25;2.25;2.25;1.25;5.25;0.25;1.25;-0.245605;0.021973;0.980469;-0.35;-1.68;0.35;348.0;-0.080725;-0.058887
3.2;5.25;5.25;4.5;4.75;0.5;1.0;0.0;0.5;0.5;1.0;2.25;2.25;0.75;1.75;0.25;0.75;-0.212402;0.020508;0.977539;-1.96;1.61;-0.28;321.0;-0.151167;-0.074999;5.0;4.0;4.5;3.75;2.0;0.5;0.0;0.75;0.0;1.5;2.25;2.25;1.0;5.25;0.0;1.25;-0.243164;0.023926;0.978516;-0.35;-1.54;0.35;342.0;-0.084018;-0.049159
3.21;5.25;5.25;4.5;4.75;0.75;0.75;0.0;0.5;0.5;1.25;2.25;2.5;0.75;2.0;0.25;0.75;-0.209473;0.031738;0.974121;-1.82;1.61;-0.35;329.0;-0.141309;-0.071258;4.75;4.0;4.75;3.25;2.0;0.75;0.0;0.5;0.0;1.5;2.25;2.25;1.25;5.0;0.0;1.25;-0.241211;0.02832;0.98291;-0.42;-1.68;0.35;336.0;-0.08262;-0.048384
3.22;5.5;5.0;4.5;4.75;0.75;0.75;0.0;0.25;0.5;1.5;2.25;2.25;1.25;2.0;0.25;0.75;-0.205566;0.029297;0.974121;-1.89;1.47;-0.28;330.0;-0.138633;-0.067751;4.75;4.0;4.5;3.5;2.0;0.75;0.0;0.5;0.0;1.5;2.5;2.25;1.25;5.25;0.0;1.0;-0.245605;0.020996;0.983398;-0.35;-1.61;0.21;339.0;-0.079054;-0.048983
3.23;5.5;5.0;4.5;4.75;0.5;1.0;0.0;0.5;0.5;1.5;2.25;2.25;1.0;1.75;0.5;0.75;-0.211426;0.023926;0.979492;-2.03;1.68;-0.21;332.0;-0.138625;-0.073336;4.75;4.0;4.5;3.25;1.75;0.75;0.0;0.75;0.0;1.5;2.25;2.25;1.25;5.25;0.25;1.5;-0.239746;0.021973;0.984375;-0.49;-1.61;0.35;340.0;-0.071321;-0.054151
3.24;5.5;5.0;4.5;4.75;0.5;1.0;0.0;0.5;0.5;1.25;2.5;2.25;1.0;2.0;0.5;0.75;-0.208496;0.029785;0.975586;-1.96;1.54;-0.21;334.0;-0.135205;-0.073138;4.75;4.0;4.5;3.25;1.75;0.5;0.0;0.75;0.0;1.0;2.25;2.25;1.25;5.25;0.0;1.5;-0.23291;0.021973;0.98291;-0.49;-1.68;0.28;329.0;-0.0794;-0.053984
3.25;5.25;5.25;4.5;4.75;0.75;1.0;0.0;0.5;0.25;1.0;2.5;2.5;1.0;1.5;0.25;0.75;-0.209473;0.024902;0.972168;-2.03;1.61;-0.28;326.0;-0.150652;-0.083683;4.75;4.0;4.5;3.5;2.0;0.5;0.0;0.5;0.25;1.5;2.0;2.25;1.25;5.25;0.0;1.25;-0.242676;0.021484;0.977539;-0.42;-1.68;0.35;336.0;-0.078168;-0.044044
3.26;5.25;5.25;4.5;4.75;0.75;0.75;0.0;0.5;0.5;1.25;2.25;2.0;1.0;2.0;0.25;0.75;-0.210938;0.027344;0.969727;-1.96;1.61;-0.28;326.0;-0.144908;-0.070222;4.5;4.0;4.5;3.5;2.0;0.75;0.0;0.5;0.0;1.5;2.25;2.25;1.25;5.25;0.0;1.5;-0.241211;0.020996;0.986328;-0.49;-1.75;0.35;336.0;-0.075382;-0.051816
3.27;5.25;5.25;4.5;4.75;0.75;1.25;0.0;0.5;0.5;1.25;2.25;1.75;1.0;2.0;0.5;1.0;-0.211426;0.024414;0.974609;-1.96;1.4;-0.14;332.0;-0.141395;-0.072841;4.5;4.0;4.5;3.25;1.75;0.75;0.0;0.75;0.0;1.25;2.0;2.25;1.0;5.25;0.25;1.25;-0.243164;0.018066;0.98291;-0.35;-1.75;0.35;329.0;-0.076915;-0.052117
3.28;5.5;5.5;4.5;4.75;0.75;1.0;0.0;0.5;0.5;1.25;2.25;2.0;1.0;2.0;0.5;0.75;-0.209473;0.027832;0.972168;-1.89;1.4;-0.21;336.0;-0.144495;-0.071235;4.5;4.0;4.5;3.5;1.75;0.75;0.0;0.75;0.0;1.5;2.0;2.25;1.25;5.5;0.25;1.25;-0.244141;0.021973;0.985352;-0.42;-1.68;0.21;338.0;-0.071522;-0.053803
3.29;5.5;5.25;4.5;4.75;0.75;1.0;0.0;0.5;0.5;1.25;2.25;2.0;1.0;2.25;0.5;1.0;-0.208008;0.030762;0.980469;-1.82;1.4;-0.14;337.0;-0.137081;-0.069992;4.75;4.0;4.75;3.25;1.75;1.0;0.0;0.75;0.0;1.5;2.0;2.25;1.0;5.25;0.5;1.25;-0.233887;0.023926;0.983398;-0.35;-1.68;0.35;342.0;-0.075382;-0.05085
3.3;5.5;5.5;5.0;4.75;0.75;1.25;0.0;0.5;0.5;1.0;2.25;2.0;1.0;2.25;0.5;0.75;-0.208008;0.022949;0.974121;-1.82;1.61;-0.28;344.0;-0.145983;-0.069706;4.5;4.0;4.75;3.25;1.75;1.0;0.0;0.75;0.0;1.5;2.25;2.25;1.0;5.25;0.25;1.25;-0.243164;0.018066;0.983398;-0.35;-1.61;0.21;339.0;-0.074302;-0.052327
3.31;5.25;5.0;4.75;4.75;0.75;1.0;0.0;0.5;0.5;1.5;2.75;2.25;1.0;1.75;0.5;0.75;-0.210449;0.027344;0.97168;-1.82;1.54;-0.28;340.0;-0.13193;-0.072956;4.5;3.75;4.75;3.5;1.5;0.75;0.0;0.75;0.0;1.5;2.25;2.25;1.25;5.25;0.25;1.25;-0.241211;0.024414;0.985352;-0.35;-1.68;0.28;336.0;-0.071081;-0.054734
3.32;5.25;5.0;4.5;4.75;0.75;1.0;0.0;0.5;0.5;1.25;2.5;2.0;1.0;2.0;0.75;0.75;-0.210938;0.026367;0.980957;-1.89;1.54;-0.28;334.0;-0.131486;-0.071757;4.75;3.75;4.75;3.25;2.0;0.75;0.0;0.5;0.0;1.5;2.25;2.25;1.0;5.25;0.25;1.0;-0.244141;0.026367;0.985352;-0.35;-1.54;0.21;334.0;-0.076745;-0.042645
3.33;5.25;5.25;4.5;4.75;0.5;1.0;0.0;0.5;0.5;1.0;2.25;2.0;1.0;2.0;0.5;0.75;-0.211426;0.023926;0.974609;-1.89;1.54;-0.28;326.0;-0.14375;-0.074191;4.5;4.0;4.5;3.25;2.0;0.5;0.0;0.5;0.0;1.25;2.25;2.25;1.0;6.0;0.0;1.25;-0.249023;0.01709;0.984375;-0.35;-1.68;0.21;331.0;-0.069452;-0.041295
3.34;5.25;5.25;4.5;4.75;0.75;1.25;0.0;0.25;0.5;1.25;2.5;2.25;1.0;2.25;0.5;0.75;-0.215332;0.026855;0.978027;-1.82;1.47;-0.35;337.0;-0.133055;-0.070509;4.75;3.75;4.75;3.0;2.0;0.5;0.0;0.75;0.0;1.5;2.25;2.25;1.25;5.5;0.0;1.5;-0.241211;0.020996;0.983398;-0.42;-1.68;0.28;337.0;-0.069277;-0.046423
3.35;5.5;5.25;4.75;5.0;0.75;1.0;0.0;0.5;0.5;1.5;2.25;2.25;1.0;2.5;0.5;0.75;-0.210938;0.025391;0.971191;-1.96;1.47;-0.14;349.0;-0.132446;-0.068182;4.75;4.0;4.75;3.25;1.75;0.75;0.0;0.75;0.0;1.5;2.25;3.0;1.0;5.25;0.0;1.75;-0.240234;0.021484;0.984863;-0.35;-1.61;0.28;347.0;-0.069952;-0.056762
3.36;5.5;5.25;4.25;4.75;0.5;1.25;0.0;0.5;0.5;1.25;2.25;2.25;1.25;2.25;0.5;0.75;-0.206055;0.030273;0.974121;-2.03;1.4;-0.28;338.0;-0.133575;-0.077303;4.5;4.0;4.5;3.25;1.75;0.5;0.0;0.75;0.0;1.5;2.25;2.75;1.25;5.5;0.0;1.5;-0.244141;0.022461;0.97998;-0.35;-1.75;0.28;339.0;-0.064472;-0.055722
3.37;5.75;5.25;4.75;4.75;0.75;0.75;0.0;0.5;0.5;1.25;2.25;2.25;1.25;2.5;0.5;0.75;-0.20459;0.027832;0.97998;-1.96;1.54;-0.21;345.0;-0.134001;-0.067461;4.75;4.0;4.5;3.25;1.25;0.5;0.0;0.5;0.0;1.5;2.25;2.75;1.25;5.5;0.25;1.5;-0.243652;0.022949;0.979492;-0.35;-1.68;0.35;335.0;-0.062981;-0.052763
3.38;5.5;5.5;5.0;4.75;0.75;1.25;0.0;0.5;0.5;1.5;2.25;2.0;1.0;2.25;0.5;0.75;-0.208984;0.032715;0.975098;-1.89;1.54;-0.28;349.0;-0.140224;-0.067715;4.25;4.0;4.75;3.25;1.75;0.5;0.0;0.5;0.0;1.25;2.25;2.75;1.25;5.75;0.25;1.25;-0.24707;0.024414;0.986328;-0.42;-1.68;0.21;337.0;-0.061489;-0.0506
3.39;5.25;5.5;5.0;4.75;0.75;1.25;0.0;0.5;0.5;1.5;2.25;2.0;1.25;2.5;0.5;0.75;-0.205566;0.023438;0.972656;-1.89;1.47;-0.21;351.0;-0.133013;-0.069962;4.25;4.0;4.5;3.25;2.0;0.5;0.0;0.75;0.0;1.5;2.25;2.25;1.5;6.0;0.25;1.0;-0.243652;0.022461;0.986328;-0.35;-1.68;0.21;341.0;-0.058902;-0.050124
3.4;5.25;5.25;4.75;4.75;0.5;1.25;0.0;0.5;0.5;1.5;2.25;2.5;1.25;2.5;0.5;0.75;-0.209473;0.02832;0.975586;-1.89;1.4;-0.28;348.0;-0.124959;-0.075056;4.75;4.0;4.5;3.25;1.75;0.5;0.0;0.5;0.0;1.5;2.5;2.25;1.25;5.75;0.25;1.25;-0.238281;0.023926;0.981934;-0.49;-1.61;0.28;339.0;-0.064689;-0.045128
3.41;5.25;5.5;4.5;5.25;0.5;1.25;0.0;0.5;0.5;1.75;2.25;2.25;1.25;2.5;0.5;0.75;-0.211426;0.029297;0.979492;-1.82;1.54;-0.35;353.0;-0.128077;-0.076606;4.5;4.0;4.5;3.25;1.5;0.5;0.0;0.5;0.0;1.75;2.25;2.75;1.25;5.75;0.5;1.25;-0.240723;0.025879;0.988281;-0.35;-1.68;0.35;341.0;-0.053687;-0.049934
3.42;5.25;5.0;4.75;5.0;0.75;1.25;0.0;0.5;0.5;1.5;2.25;2.75;1.25;2.0;0.0;0.75;-0.20459;0.025391;0.979492;-1.82;1.61;-0.28;344.0;-0.136531;-0.079256;4.5;3.75;4.5;3.25;1.5;0.5;0.0;0.5;0.0;1.75;2.5;2.75;1.25;5.75;0.25;1.5;-0.240723;0.023438;0.980957;-0.35;-1.61;0.28;341.0;-0.050994;-0.050458
3.43;5.25;5.25;4.75;4.75;1.0;1.0;0.0;0.5;0.25;1.75;2.25;2.5;1.25;2.25;0.0;0.75;-0.208496;0.026367;0.980957;-1.75;1.54;-0.28;343.0;-0.137125;-0.075042;4.5;3.75;4.5;3.5;1.75;0.5;0.0;0.75;0.25;1.5;2.25;2.25;1.25;5.75;0.25;1.5;-0.249023;0.025879;0.978027;-0.42;-1.68;0.28;343.0;-0.058436;-0.048241
3.44;5.75;5.25;4.75;4.75;0.5;1.25;0.0;0.5;0.25;1.25;2.25;2.5;1.5;2.25;0.0;0.75;-0.210938;0.029785;0.968262;-1.82;1.61;-0.21;342.0;-0.145258;-0.080581;4.5;3.75;4.75;3.0;1.75;0.5;0.0;0.75;0.25;1.5;2.5;2.25;1.25;5.75;0.25;1.75;-0.240723;0.023926;0.987793;-0.28;-1.54;0.21;344.0;-0.052643;-0.045871
3.45;5.5;5.0;5.0;4.75;0.5;1.0;0.0;0.5;0.25;1.25;2.25;2.5;1.25;2.25;0.25;0.75;-0.208008;0.027832;0.977051;-1.82;1.75;-0.21;338.0;-0.140083;-0.076066;4.5;3.25;4.25;3.25;1.5;0.5;0.0;0.75;0.0;1.5;2.25;2.75;1.25;5.75;0.25;1.5;-0.24707;0.022949;0.987305;-0.42;-1.61;0.35;332.0;-0.048137;-0.054323
3.46;5.25;5.0;4.5;5.0;0.5;1.25;0.0;0.5;0.5;1.0;2.25;2.5;1.0;2.0;0.25;0.75;-0.20752;0.023438;0.974609;-1.96;1.61;-0.28;331.0;-0.141881;-0.079888;4.5;3.5;4.25;3.0;1.5;0.75;0.0;0.5;0.0;1.5;2.25;2.25;1.25;5.75;0.25;1.25;-0.244141;0.020996;0.98291;-0.35;-1.68;0.14;324.0;-0.055923;-0.046518
3.47;5.25;5.0;4.5;4.75;0.5;1.25;0.0;0.5;0.5;1.25;2.25;2.5;1.0;2.0;0.25;1.0;-0.211426;0.027344;0.972168;-1.82;1.61;-0.21;333.0;-0.13564;-0.078524;4.25;3.5;4.5;3.0;1.5;0.5;0.0;0.75;0.0;1.25;2.5;3.0;1.0;5.75;0.25;1.75;-0.237793;0.020996;0.982422;-0.35;-1.61;0.35;333.0;-0.0456;-0.055482
3.48;5.25;5.25;4.75;4.75;1.0;1.25;0.0;0.5;0.5;1.5;2.25;2.5;1.5;2.0;0.5;0.75;-0.213379;0.025391;0.987793;-1.89;1.68;-0.28;351.0;-0.129661;-0.078369;4.5;4.0;4.5;3.25;1.75;0.5;0.0;0.75;0.0;1.5;2.25;3.0;1.25;5.5;0.25;1.5;-0.237305;0.023926;0.984863;-0.35;-1.61;0.21;345.0;-0.058783;-0.05776
3.49;5.25;5.25;4.75;4.75;0.75;1.25;0.0;0.5;0.5;1.25;2.5;2.5;1.5;2.5;0.25;0.75;-0.208984;0.030273;0.979004;-1.96;1.75;-0.28;350.0;-0.12723;-0.07766;4.75;3.75;4.5;2.75;1.25;0.5;0.0;0.75;0.0;1.5;2.25;3.0;1.25;5.75;0.25;1.25;-0.23877;0.022949;0.98877;-0.35;-1.61;0.42;335.0;-0.052849;-0.052405
3.5;5.5;5.25;4.5;4.75;0.75;1.25;0.0;0.5;0.5;1.0;2.5;2.5;1.25;1.75;0.25;0.75;-0.209473;0.026855;0.975098;-1.96;1.61;-0.21;339.0;-0.143083;-0.081051;4.25;3.25;4.25;3.0;1.75;0.5;0.0;0.75;0.0;1.25;2.25;2.75;1.25;6.0;0.0;1.25;-0.245117;0.020996;0.986816;-0.42;-1.68;0.28;325.0;-0.048629;-0.051319
3.51;5.25;5.0;4.75;4.75;0.75;1.25;0.0;0.5;0.5;1.75;2.5;2.5;1.25;2.0;0.5;0.75;-0.208984;0.026855;0.973145;-1.82;1.68;-0.28;349.0;-0.124243;-0.075735;4.5;3.25;4.5;3.0;2.0;0.5;0.0;0.75;0.0;1.5;2.25;2.75;1.25;6.0;0.5;1.0;-0.238281;0.021973;0.984375;-0.42;-1.75;0.21;339.0;-0.046085;-0.046574
3.52;5.5;5.25;4.5;5.0;1.0;1.25;0.0;0.5;0.5;1.5;2.5;2.5;1.25;2.25;0.25;0.75;-0.209961;0.027832;0.981934;-1.75;1.54;-0.21;354.0;-0.131746;-0.075821;4.5;3.25;4.5;3.25;2.0;0.5;0.0;0.75;0.0;1.5;2.25;2.75;1.25;6.0;0.5;1.25;-0.240723;0.023438;0.986816;-0.42;-1.61;0.35;343.0;-0.046405;-0.049055
3.53;5.5;5.25;4.5;5.0;0.5;1.25;0.0;0.5;0.5;1.75;2.5;2.5;1.25;1.75;0.25;0.75;-0.208984;0.025391;0.974609;-1.82;1.68;-0.28;347.0;-0.135741;-0.080056;4.5;3.25;4.25;3.25;1.75;0.75;0.0;0.75;0.0;1.5;2.5;3.0;1.5;6.0;0.25;1.25;-0.244141;0.025391;0.986816;-0.35;-1.61;0.28;345.0;-0.042937;-0.057538
3.54;5.5;5.25;4.75;4.75;0.75;1.25;0.0;0.5;0.5;1.25;2.5;2.5;1.0;2.0;0.25;1.0;-0.207031;0.023438;0.976074;-1.82;1.68;-0.28;346.0;-0.137744;-0.075524;4.25;3.25;4.25;3.25;1.75;0.75;0.0;0.75;0.0;1.5;2.75;3.0;1.25;6.0;0.0;1.5;-0.244629;0.016602;0.982422;-0.42;-1.54;0.21;342.0;-0.041363;-0.057513
3.55;5.25;5.25;4.5;5.0;0.75;1.0;0.0;0.5;0.5;1.25;2.5;2.5;1.0;2.25;0.25;0.75;-0.212891;0.024902;0.974121;-1.82;1.75;-0.21;341.0;-0.134325;-0.075369;4.5;3.25;4.25;2.75;1.75;0.75;0.0;0.75;0.0;1.5;2.75;2.75;1.25;6.0;0.0;1.5;-0.244141;0.019531;0.983398;-0.42;-1.68;0.35;336.0;-0.042089;-0.051638
3.56;5.25;5.25;4.5;5.0;0.75;1.0;0.0;0.5;0.75;1.5;2.25;2.5;1.25;2.25;0.25;0.75;-0.209473;0.03125;0.979492;-1.75;1.68;-0.28;347.0;-0.128646;-0.073131;4.75;3.25;4.25;2.75;1.75;0.75;0.0;0.5;0.0;1.5;2.5;2.25;1.25;6.0;0.25;1.5;-0.239746;0.022461;0.984863;-0.42;-1.68;0.28;330.0;-0.047806;-0.042288
3.57;5.25;5.25;4.5;4.75;1.0;1.25;0.0;0.5;0.5;1.25;2.25;2.5;1.25;2.25;0.5;0.75;-0.208496;0.024414;0.973633;-1.89;1.68;-0.21;346.0;-0.129883;-0.076816;4.25;3.25;4.25;2.75;2.0;0.75;0.0;0.5;0.0;1.5;2.25;3.0;1.0;6.0;0.5;1.5;-0.237793;0.022949;0.987793;-0.49;-1.68;0.42;333.0;-0.036816;-0.046809
3.58;5.25;5.25;4.5;4.75;1.0;1.25;0.0;0.5;0.5;1.25;2.25;2.5;1.25;2.25;0.5;0.75;-0.208496;0.033203;0.977539;-2.03;1.75;-0.28;346.0;-0.129883;-0.076816;4.25;3.0;4.5;3.0;2.0;1.0;0.0;0.75;0.0;1.5;2.25;2.75;1.5;6.0;0.25;1.5;-0.244629;0.018066;0.987305;-0.42;-1.68;0.21;342.0;-0.041471;-0.055021
3.59;5.25;5.0;4.5;4.75;0.75;1.0;0.0;0.5;0.5;1.25;2.5;2.5;1.25;2.25;0.5;0.75;-0.208008;0.028809;0.975586;-1.96;1.75;-0.35;341.0;-0.125074;-0.07606;4.25;3.25;4.25;3.0;2.0;1.0;0.0;0.75;0.0;1.5;2.25;2.75;1.5;6.25;0.25;1.25;-0.240234;0.025391;0.981934;-0.42;-1.68;0.28;342.0;-0.040939;-0.054471
3.6;5.25;5.25;4.5;4.75;0.75;1.25;0.0;0.5;0.5;1.5;2.5;2.5;1.25;2.25;0.5;1.0;-0.208008;0.026855;0.977051;-1.89;1.68;-0.14;350.0;-0.122602;-0.078066;4.5;3.25;4.25;2.75;2.0;1.25;0.0;0.75;0.0;1.25;2.5;2.75;1.25;6.0;0.25;1.5;-0.242676;0.02002;0.983398;-0.42;-1.68;0.28;342.0;-0.045248;-0.054872
3.61;5.25;5.0;4.5;4.75;0.75;1.25;0.0;0.5;0.5;1.5;2.5;2.25;1.25;2.0;0.5;1.25;-0.208496;0.030273;0.975098;-1.96;1.61;-0.35;344.0;-0.124574;-0.078322;4.25;3.25;4.5;2.75;2.0;0.5;0.0;0.5;0.25;1.5;2.75;2.75;1.25;6.0;0.25;1.5;-0.245605;0.027832;0.986816;-0.42;-1.61;0.28;339.0;-0.034921;-0.042279
3.62;5.25;5.25;4.5;4.75;0.75;1.25;0.0;0.5;0.5;1.25;2.5;2.5;1.25;2.5;0.5;0.75;-0.213379;0.025879;0.976562;-1.96;1.61;-0.28;348.0;-0.123927;-0.076643;4.25;3.25;4.25;3.0;1.75;0.5;0.0;0.5;0.0;1.25;2.25;3.0;1.5;6.0;0.0;1.25;-0.242188;0.022461;0.984375;-0.49;-1.61;0.21;326.0;-0.045522;-0.052049
3.63;5.5;4.75;4.75;4.75;1.0;1.25;0.0;0.5;0.5;1.25;2.25;2.5;1.25;2.0;0.5;1.0;-0.205566;0.024902;0.976074;-1.89;1.4;-0.28;346.0;-0.130616;-0.075394;4.25;3.0;4.25;3.0;2.0;0.5;0.0;0.75;0.0;1.25;2.25;2.75;1.25;6.25;0.0;1.5;-0.245117;0.021973;0.97998;-0.49;-1.82;0.21;329.0;-0.042009;-0.049175
3.64;5.25;5.0;4.75;4.75;1.0;1.25;0.0;0.5;0.5;1.75;2.5;2.5;1.25;2.5;0.5;1.0;-0.208984;0.025391;0.976562;-1.89;1.61;-0.28;358.0;-0.116022;-0.072572;4.25;3.25;4.5;3.0;2.0;0.75;0.0;0.75;0.25;1.5;2.25;3.0;1.25;6.25;0.0;1.25;-0.239746;0.02832;0.990234;-0.49;-1.75;0.35;344.0;-0.041901;-0.047515
3.65;5.5;5.25;4.5;4.75;0.75;1.0;0.0;0.5;0.5;1.75;2.5;2.5;1.25;2.25;0.5;0.75;-0.212891;0.027344;0.970215;-1.96;1.47;-0.28;351.0;-0.123622;-0.073215;4.25;3.25;4.5;3.25;2.0;0.5;0.0;0.75;0.25;1.5;2.5;3.0;1.5;6.25;0.25;1.75;-0.236328;0.018555;0.985352;-0.49;-1.75;0.28;354.0;-0.033247;-0.052502
3.66;5.5;5.5;4.5;4.75;1.0;1.25;0.0;0.5;0.5;1.5;2.5;2.5;1.25;2.5;0.5;1.0;-0.208984;0.030762;0.977539;-1.89;1.47;-0.28;360.0;-0.123356;-0.074708;4.25;3.25;4.5;2.75;2.0;0.5;0.0;0.75;0.0;1.5;2.25;2.75;1.25;6.0;0.5;1.25;-0.239746;0.020508;0.983398;-0.42;-1.68;0.35;335.0;-0.039707;-0.047398
3.67;5.5;5.5;4.75;4.75;1.0;1.0;0.0;0.5;0.25;1.25;2.25;2.5;1.5;2.25;0.5;0.75;-0.207031;0.02832;0.976562;-2.03;1.54;-0.21;350.0;-0.136458;-0.078847;4.25;3.25;4.25;2.0;1.75;0.5;0.0;0.75;0.0;1.5;2.25;2.75;1.25;6.25;0.0;1.0;-0.236328;0.024414;0.984863;-0.42;-1.68;0.35;317.0;-0.036648;-0.041708
3.68;5.25;5.25;4.5;4.75;1.0;1.0;0.0;0.5;0.25;1.25;2.5;2.5;1.25;2.25;0.5;0.75;-0.209473;0.028809;0.979004;-1.96;1.61;-0.28;343.0;-0.130676;-0.07891;4.25;3.25;4.25;2.75;2.0;0.75;0.0;0.75;0.25;1.5;2.25;2.75;1.5;6.25;0.0;1.25;-0.24707;0.020508;0.982422;-0.42;-1.68;0.35;338.0;-0.038653;-0.047924
3.69;5.25;5.0;4.5;5.0;0.75;1.25;0.0;0.5;0.25;1.25;2.5;2.75;1.25;2.25;0.5;1.0;-0.202637;0.035156;0.970703;-2.1;1.75;-0.35;347.0;-0.125729;-0.084679;4.25;3.25;4.25;3.0;1.75;0.75;0.0;0.75;0.0;1.75;2.25;3.0;1.25;6.25;0.0;1.25;-0.236816;0.02002;0.979492;-0.49;-1.75;0.28;337.0;-0.040089;-0.051795
3.7;5.5;5.0;4.5;5.0;0.75;1.0;0.0;0.5;0.25;1.0;2.25;2.5;1.25;2.0;0.5;1.0;-0.20752;0.024902;0.979492;-2.03;1.82;-0.35;337.0;-0.13922;-0.082584;4.25;3.25;4.5;2.25;1.75;0.75;0.0;0.75;0.0;1.75;2.5;2.75;1.25;7.0;0.25;1.5;-0.246582;0.023438;0.98584;-0.35;-1.54;0.35;342.0;-0.022379;-0.042087
3.71;5.5;5.0;4.5;4.75;0.75;1.0;0.0;0.5;0.25;1.5;2.5;2.5;1.25;2.25;0.5;1.0;-0.210449;0.032227;0.977051;-2.03;1.75;-0.21;344.0;-0.126112;-0.077881;4.0;3.25;4.5;2.75;1.75;0.75;0.0;1.0;0.0;1.5;2.5;2.75;1.25;7.0;0.25;1.25;-0.242676;0.020996;0.981445;-0.35;-1.68;0.28;345.0;-0.027114;-0.049711
3.72;5.25;4.5;4.5;4.75;1.0;1.25;0.0;0.5;0.5;1.0;2.5;2.5;1.25;2.5;0.5;0.75;-0.20752;0.026367;0.976074;-1.89;1.68;-0.28;341.0;-0.120787;-0.074792;4.25;3.25;4.25;3.0;1.75;0.5;0.0;0.75;0.25;1.5;2.25;2.75;1.5;6.5;0.25;1.25;-0.241211;0.023438;0.982422;-0.42;-1.68;0.28;340.0;-0.032767;-0.047285
3.73;5.5;5.0;4.5;4.75;0.75;1.25;0.0;0.5;0.5;1.0;2.75;2.75;1.5;2.25;0.5;0.75;-0.208984;0.028809;0.975586;-2.03;1.68;-0.28;351.0;-0.123102;-0.081584;4.25;3.25;4.25;2.75;1.75;0.5;0.0;0.75;0.25;1.5;2.25;2.75;1.5;6.25;0.5;1.5;-0.241211;0.024902;0.985352;-0.42;-1.61;0.28;339.0;-0.028507;-0.048601
3.74;5.25;5.0;4.5;4.75;0.5;1.0;0.0;0.5;0.5;1.5;2.5;2.75;1.25;2.0;0.5;1.0;-0.204102;0.025391;0.974121;-1.89;1.68;-0.28;343.0;-0.121146;-0.080306;4.25;3.25;4.0;2.75;1.75;0.5;0.0;0.75;0.25;1.5;2.5;2.75;1.5;6.5;0.5;1.5;-0.240723;0.02832;0.986328;-0.42;-1.54;0.21;341.0;-0.021854;-0.048833
3.75;5.25;5.5;4.5;4.75;0.5;1.0;0.0;0.5;0.5;1.5;2.75;2.75;1.25;2.0;0.5;1.0;-0.208496;0.029297;0.977051;-1.89;1.61;-0.28;350.0;-0.12244;-0.081703;4.25;3.0;4.25;2.75;1.5;0.5;0.0;0.75;0.0;1.5;2.5;3.0;1.25;6.5;0.5;1.5;-0.245117;0.024414;0.979004;-0.42;-1.68;0.28;336.0;-0.022467;-0.050206
3.76;5.5;5.25;4.5;4.75;0.5;1.25;0.0;0.5;0.5;1.5;2.5;2.5;1.5;2.25;0.5;0.75;-0.212891;0.023926;0.973633;-1.96;1.61;-0.28;351.0;-0.124721;-0.079235;4.5;3.25;4.25;3.0;1.75;0.75;0.0;0.5;0.0;1.5;2.5;3.0;1.5;7.0;0.5;1.5;-0.249512;0.02002;0.983887;-0.49;-1.68;0.28;351.0;-0.025383;-0.048087
3.77;5.25;5.25;4.5;4.75;0.5;1.25;0.0;0.5;0.5;1.5;2.25;2.5;1.25;2.25;0.75;1.0;-0.210449;0.030273;0.971191;-1.82;1.75;-0.21;347.0;-0.121191;-0.078914;4.25;3.0;4.25;3.0;1.75;0.5;0.0;0.75;0.0;1.25;2.5;3.0;1.5;7.0;0.5;1.5;-0.237305;0.023438;0.983398;-0.42;-1.68;0.35;345.0;-0.020795;-0.051339
3.78;5.25;5.0;4.5;4.75;0.5;1.0;0.0;0.5;0.5;1.5;2.25;2.5;1.0;2.5;0.5;1.0;-0.211426;0.027344;0.975586;-1.96;1.68;-0.35;339.0;-0.121542;-0.072692;4.25;3.0;4.25;2.5;1.75;0.5;0.0;0.75;0.25;1.5;2.25;3.0;1.5;7.0;0.5;1.25;-0.244629;0.024414;0.987793;-0.42;-1.68;0.28;341.0;-0.015271;-0.043011
3.79;5.25;5.0;4.5;4.75;0.5;0.75;0.0;0.5;0.5;1.25;2.25;2.5;1.0;2.5;0.5;1.0;-0.208984;0.027832;0.973145;-2.03;1.82;-0.28;334.0;-0.124109;-0.072124;4.25;3.0;4.25;2.75;2.0;0.5;0.0;0.75;0.0;1.5;2.25;3.0;1.25;7.0;0.0;1.25;-0.246094;0.024414;0.987305;-0.49;-1.75;0.28;336.0;-0.028844;-0.043421
3.8;5.25;5.25;4.75;4.75;0.75;1.0;0.0;0.5;0.5;1.0;2.5;2.5;1.0;2.25;0.5;1.0;-0.209961;0.029785;0.978027;-2.1;1.75;-0.28;343.0;-0.130888;-0.074885;4.5;2.25;4.5;3.0;2.25;0.5;0.0;0.75;0.0;1.5;2.5;3.0;1.25;6.5;0.0;1.25;-0.236328;0.022949;0.982422;-0.49;-1.68;0.28;338.0;-0.032204;-0.04262
3.81;5.25;5.5;4.5;4.75;1.0;1.0;0.0;0.5;0.5;1.0;2.75;2.5;1.25;2.0;0.0;1.0;-0.206543;0.02832;0.972656;-2.03;1.68;-0.35;342.0;-0.138695;-0.079965;4.25;3.25;4.25;2.75;2.0;0.75;0.0;0.75;0.0;1.5;2.25;3.0;1.25;7.0;0.0;1.5;-0.238281;0.019531;0.982422;-0.35;-1.54;0.28;343.0;-0.030888;-0.047141
3.82;5.25;5.25;4.5;4.75;1.0;1.0;0.0;0.5;0.5;1.25;2.75;2.5;0.75;1.5;0.0;1.0;-0.211914;0.029785;0.978516;-1.89;1.61;-0.14;334.0;-0.144853;-0.076584;4.25;3.25;4.25;2.5;1.75;0.5;0.0;0.75;0.0;1.5;2.75;3.0;1.5;7.0;0.25;1.5;-0.241699;0.022949;0.983398;-0.42;-1.68;0.28;344.0;-0.018619;-0.048727
3.83;5.25;5.0;4.5;4.75;0.75;0.75;0.0;0.5;0.5;1.25;2.5;2.5;1.0;2.0;0.25;1.0;-0.210449;0.025391;0.973633;-2.1;1.82;-0.28;333.0;-0.132439;-0.074485;4.25;3.0;4.25;2.75;1.75;0.5;0.0;0.75;0.0;1.5;2.5;2.75;1.5;6.25;0.25;1.5;-0.243652;0.027832;0.986816;-0.35;-1.68;0.42;333.0;-0.030066;-0.051223
3.84;5.25;5.0;4.5;4.75;0.75;1.0;0.0;0.5;0.5;1.25;2.5;2.5;1.0;2.25;0.25;0.75;-0.208008;0.026855;0.976074;-1.96;1.75;-0.21;336.0;-0.13114;-0.073527;4.5;3.0;4.25;2.75;1.5;0.75;0.0;0.75;0.0;1.5;2.5;2.75;1.5;7.0;0.25;1.5;-0.240723;0.025879;0.985352;-0.49;-1.61;0.14;342.0;-0.02483;-0.048405
3.85;5.25;5.0;4.5;4.75;0.75;1.25;0.0;0.5;0.5;1.25;2.5;2.25;1.25;2.25;0.25;0.75;-0.209473;0.031738;0.974121;-1.96;1.82;-0.21;338.0;-0.132033;-0.075884;4.25;2.75;4.25;2.75;1.75;0.5;0.0;0.75;0.0;1.5;2.5;2.75;1.5;7.0;0.25;1.5;-0.243652;0.020508;0.98291;-0.42;-1.54;0.28;337.0;-0.01904;-0.046103
3.86;5.25;5.0;4.5;4.75;0.75;1.25;0.0;0.5;0.5;1.0;2.5;2.5;1.5;2.5;0.5;1.0;-0.208496;0.030273;0.973145;-1.96;1.68;-0.35;347.0;-0.120983;-0.080436;4.25;2.75;4.0;2.75;1.75;0.5;0.0;0.5;0.0;1.5;2.5;3.0;1.5;7.25;0.25;1.25;-0.240723;0.023438;0.981934;-0.42;-1.61;0.42;334.0;-0.014055;-0.042752
3.87;5.25;5.0;4.5;4.75;0.75;1.25;0.0;0.25;0.5;1.25;2.5;2.5;1.25;2.5;0.5;1.0;-0.211914;0.02832;0.974609;-1.89;1.68;-0.21;343.0;-0.121282;-0.073487;4.25;3.0;4.0;2.75;1.75;0.5;0.0;0.75;0.0;1.5;2.5;3.0;1.0;7.0;0.0;1.5;-0.243652;0.023438;0.981445;-0.42;-1.68;0.35;332.0;-0.023758;-0.044351
3.88;5.25;5.0;4.5;4.75;0.75;0.75;0.0;0.5;0.25;1.25;2.5;2.5;1.25;1.5;0.5;0.75;-0.206543;0.030762;0.973633;-1.96;1.75;-0.28;329.0;-0.1391;-0.082851;4.25;3.25;4.25;2.75;1.75;0.5;0.0;0.5;0.25;1.5;2.25;3.0;1.0;6.25;0.25;1.5;-0.239746;0.020508;0.983887;-0.49;-1.68;0.42;331.0;-0.032873;-0.040942
3.89;5.5;5.0;4.5;4.75;0.75;1.0;0.0;0.5;0.25;1.25;2.5;2.5;1.25;2.25;0.5;1.0;-0.212402;0.026855;0.975098;-1.96;1.54;-0.28;342.0;-0.128902;-0.07896;4.25;3.25;4.5;2.75;1.75;0.75;0.0;0.75;0.0;1.5;2.75;2.75;1.25;6.25;0.0;1.5;-0.244141;0.019043;0.985352;-0.35;-1.75;0.35;339.0;-0.038313;-0.050262
3.9;5.5;5.25;4.5;4.75;0.5;1.25;0.0;0.5;0.5;1.5;2.5;1.75;1.0;2.5;0.5;1.0;-0.205566;0.027832;0.976074;-2.03;1.61;-0.28;342.0;-0.130888;-0.068711;4.25;3.25;4.5;3.25;2.0;0.5;0.0;0.75;0.0;1.5;2.5;2.75;1.25;6.5;0.0;1.5;-0.245117;0.01709;0.98291;-0.49;-1.68;0.28;344.0;-0.0413;-0.048484
3.91;5.25;5.25;4.5;4.75;0.5;1.25;0.0;0.5;0.25;1.5;2.5;2.0;1.0;1.75;0.5;0.75;-0.211914;0.02832;0.972656;-2.03;1.68;-0.21;331.0;-0.142393;-0.079052;4.25;3.25;4.75;2.75;1.25;0.5;0.0;0.75;0.0;1.5;2.5;2.75;1.5;7.0;0.25;1.5;-0.245117;0.017578;0.98291;-0.42;-1.75;0.35;342.0;-0.026716;-0.047236
3.92;5.5;5.25;4.5;4.75;0.75;1.25;0.0;0.5;0.25;1.25;2.5;2.5;1.0;1.75;0.5;0.75;-0.210449;0.030273;0.977051;-2.03;1.68;-0.21;339.0;-0.141721;-0.080946;4.25;2.75;4.5;2.75;1.25;0.5;0.0;0.75;0.0;1.5;2.5;3.0;1.5;7.25;0.5;1.5;-0.237793;0.023926;0.983398;-0.49;-1.68;0.28;342.0;-0.011625;-0.047533
3.93;5.25;5.25;4.5;4.75;0.75;1.0;0.0;0.5;0.5;1.0;2.25;2.5;1.25;2.0;0.5;0.75;-0.210449;0.027344;0.972656;-1.96;1.68;-0.21;336.0;-0.136045;-0.079059;4.25;3.25;4.25;2.75;2.0;0.5;0.0;0.75;0.0;1.5;2.5;3.25;1.5;7.25;0.25;1.5;-0.239746;0.023438;0.987305;-0.35;-1.68;0.28;352.0;-0.019056;-0.049223
3.94;5.25;5.0;4.75;4.75;0.75;1.0;0.0;0.5;0.5;1.5;2.5;2.5;1.5;2.0;0.5;1.0;-0.209473;0.026855;0.97168;-1.89;1.68;-0.21;348.0;-0.123026;-0.07857;4.25;3.25;4.25;2.75;1.75;0.5;0.0;0.75;0.0;1.5;2.5;3.0;1.5;7.0;0.0;1.5;-0.241699;0.020996;0.982422;-0.42;-1.68;0.42;342.0;-0.025928;-0.049369
3.95;5.25;5.0;4.5;4.75;0.75;1.0;0.0;0.5;0.5;1.5;2.5;2.25;1.25;2.25;0.5;0.75;-0.205078;0.026855;0.979004;-2.03;1.68;-0.28;341.0;-0.124866;-0.073294;4.25;3.25;4.25;2.75;1.5;0.25;0.0;0.75;0.25;1.5;2.25;2.75;1.5;7.0;0.0;1.25;-0.237305;0.02832;0.982422;-0.49;-1.75;0.28;333.0;-0.026714;-0.041723
3.96;5.5;5.5;4.5;4.75;0.75;1.25;0.0;0.5;0.5;1.75;2.25;2.5;1.0;2.5;0.5;0.75;-0.210449;0.030273;0.975586;-1.96;1.68;-0.35;353.0;-0.126907;-0.071149;4.5;2.5;4.25;2.75;1.5;0.25;0.0;0.75;0.25;1.5;2.25;2.75;1.25;6.5;0.0;1.25;-0.244629;0.026367;0.985352;-0.42;-1.61;0.35;322.0;-0.028502;-0.037922
3.97;5.5;5.0;4.5;4.75;0.75;1.25;0.0;0.5;0.5;1.75;2.25;2.5;1.25;1.75;0.5;0.75;-0.212402;0.02832;0.972656;-1.82;1.68;-0.21;345.0;-0.131171;-0.076945;4.25;3.0;4.25;2.75;1.75;0.5;0.0;0.75;0.25;1.75;2.5;2.75;1.25;6.5;0.0;1.5;-0.243164;0.024414;0.985352;-0.49;-1.75;0.28;336.0;-0.027095;-0.042832
3.98;5.5;5.0;4.5;4.75;0.75;1.0;0.0;0.5;0.5;1.5;2.25;2.5;1.0;1.75;0.5;0.75;-0.210449;0.028809;0.971191;-1.82;1.75;-0.28;337.0;-0.1358;-0.073978;4.0;3.25;4.25;2.75;2.0;0.75;0.0;0.75;0.0;1.5;2.5;2.75;1.25;6.5;0.25;1.5;-0.239746;0.02002;0.989258;-0.49;-1.75;0.35;338.0;-0.03009;-0.050031
3.99;5.5;5.0;4.5;4.75;1.0;1.25;0.0;0.5;0.5;1.25;2.5;2.5;1.0;2.0;0.5;0.75;-0.20752;0.027832;0.976562;-1.89;1.75;-0.28;345.0;-0.13255;-0.074275;4.25;3.25;4.5;2.75;1.5;0.5;0.0;0.75;0.0;1.5;2.75;2.25;1.5;7.0;0.25;1.25;-0.239258;0.023438;0.986816;-0.49;-1.61;0.28;338.0;-0.028808;-0.043062
4.0;5.5;5.25;4.75;4.75;1.0;1.25;0.0;0.5;0.5;1.25;2.75;2.5;1.25;2.25;0.5;0.75;-0.211426;0.031738;0.980469;-1.89;1.68;-0.21;357.0;-0.127707;-0.074743;4.5;3.25;4.5;2.75;2.0;0.5;0.0;0.75;0.0;1.5;2.5;2.25;1.5;7.25;0.25;1.25;-0.237305;0.022949;0.979004;-0.56;-1.68;0.28;345.0;-0.032354;-0.038352
4.01;5.5;5.5;4.75;4.75;1.0;1.0;0.0;0.5;0.5;1.5;2.5;2.5;1.25;2.0;0.5;0.75;-0.211426;0.025879;0.977539;-1.89;1.61;-0.21;354.0;-0.132556;-0.07401;4.25;3.25;4.25;2.75;1.75;0.5;0.0;0.75;0.25;1.5;2.5;3.0;1.5;7.25;0.0;1.5;-0.237793;0.025391;0.987793;-0.49;-1.75;0.28;347.0;-0.020579;-0.044927
4.02;5.25;5.25;4.5;5.0;1.0;0.75;0.0;0.5;0.5;1.5;2.5;2.5;1.0;2.0;0.5;1.0;-0.212402;0.02832;0.978027;-1.82;1.75;-0.21;346.0;-0.128592;-0.074228;4.25;3.25;4.25;2.75;1.75;0.75;0.0;0.75;0.0;1.5;2.25;2.75;1.5;6.5;0.0;1.5;-0.240234;0.02002;0.98291;-0.42;-1.61;0.21;335.0;-0.036338;-0.051611
4.03;5.25;5.0;4.5;4.75;0.75;0.75;0.0;0.5;0.75;1.5;2.25;2.5;1.0;2.0;0.25;1.0;-0.212891;0.02832;0.980957;-1.75;1.68;-0.21;336.0;-0.128557;-0.069694;4.25;3.25;4.25;2.75;2.0;0.5;0.0;0.75;0.0;1.5;2.25;2.75;1.25;7.0;0.25;1.5;-0.237793;0.026367;0.976074;-0.42;-1.68;0.35;340.0;-0.028377;-0.043676
4.04;5.25;5.0;4.5;4.75;0.75;1.0;0.0;0.5;0.5;1.25;2.25;2.5;1.25;2.25;0.5;0.75;-0.212402;0.027344;0.972168;-1.96;1.75;-0.21;338.0;-0.127789;-0.075752;4.5;2.75;4.25;2.75;1.75;0.5;0.0;0.75;0.0;1.5;2.5;2.25;1.25;7.0;0.25;1.25;-0.240234;0.022461;0.982422;-0.49;-1.61;0.35;331.0;-0.028454;-0.037095
4.05;5.25;4.75;4.25;4.75;0.5;1.0;0.0;0.5;0.5;1.25;2.5;2.25;1.25;2.25;0.5;0.75;-0.20752;0.026855;0.974121;-1.82;1.54;-0.28;330.0;-0.124517;-0.076218;4.25;3.0;4.25;2.75;2.0;0.5;0.0;0.75;0.0;1.5;2.25;2.75;1.25;6.5;0.25;1.0;-0.243164;0.025879;0.990723;-0.49;-1.68;0.28;330.0;-0.03455;-0.043453
4.06;5.25;4.75;4.5;4.75;0.5;1.25;0.0;0.5;0.5;1.5;2.5;2.25;1.5;2.25;0.5;0.75;-0.213867;0.024414;0.978027;-1.89;1.68;-0.21;341.0;-0.121238;-0.077814;4.25;3.25;4.25;2.75;2.0;0.75;0.0;0.75;0.0;1.5;2.25;2.75;1.25;7.0;0.25;1.5;-0.240723;0.02002;0.984375;-0.56;-1.68;0.35;342.0;-0.029361;-0.045497
4.07;5.25;4.75;4.5;4.75;0.75;1.25;0.0;0.5;0.5;1.5;2.5;2.25;1.25;2.5;0.25;0.75;-0.211914;0.02832;0.974609;-1.89;1.61;-0.28;341.0;-0.123865;-0.072624;4.0;3.25;4.25;2.75;2.0;0.75;0.0;0.75;0.25;1.5;2.25;2.75;1.5;7.25;0.25;1.5;-0.247559;0.021973;0.979004;-0.49;-1.61;0.35;347.0;-0.019938;-0.044862
4.08;4.75;5.0;4.5;4.75;1.0;1.25;0.0;0.5;0.5;1.75;2.5;2.25;1.0;2.0;0.5;0.75;-0.20752;0.024414;0.975586;-1.89;1.61;-0.28;339.0;-0.123295;-0.074627;4.25;3.0;4.25;2.75;2.0;0.75;0.0;0.5;0.0;1.5;2.5;2.75;1.5;7.0;0.25;1.25;-0.238281;0.026367;0.991211;-0.49;-1.68;0.35;340.0;-0.025251;-0.042923
4.09;5.25;5.25;4.5;4.75;0.75;1.0;0.0;0.5;0.5;1.75;2.5;2.5;1.25;1.75;0.5;1.0;-0.208984;0.025879;0.974609;-1.89;1.61;-0.28;346.0;-0.126232;-0.078615;4.0;3.0;4.25;2.75;2.0;0.5;0.0;0.75;0.0;1.25;2.5;3.0;1.5;7.0;0.0;1.75;-0.238281;0.01709;0.981445;-0.35;-1.75;0.35;338.0;-0.021687;-0.050818
4.1;5.5;5.0;4.5;4.75;0.75;1.0;0.0;0.5;0.5;1.75;2.5;2.5;1.25;2.25;0.5;1.0;-0.210449;0.023438;0.974609;-1.96;1.47;-0.21;350.0;-0.119815;-0.073536;4.25;3.25;4.5;2.75;2.0;0.5;0.0;0.75;0.25;1.5;2.25;3.0;1.5;7.0;0.0;1.5;-0.242676;0.023438;0.98877;-0.49;-1.82;0.28;348.0;-0.027873;-0.043841
4.11;5.75;5.0;4.5;4.75;0.75;1.0;0.0;0.5;0.5;1.25;2.5;2.5;1.25;2.25;0.5;1.0;-0.210938;0.026367;0.978516;-2.03;1.68;-0.21;347.0;-0.127318;-0.074235;4.25;3.25;4.5;2.75;2.0;0.5;0.0;0.75;0.0;1.5;2.25;3.0;1.5;7.0;0.0;1.5;-0.239746;0.027832;0.987305;-0.35;-1.68;0.28;345.0;-0.03057;-0.04686
