Time;left pressure 1[N/cm²];left pressure 2[N/cm²];left pressure 3[N/cm²];left pressure 4[N/cm²];left pressure 5[N/cm²];left pressure 6[N/cm²];left pressure 7[N/cm²];left pressure 8[N/cm²];left pressure 9[N/cm²];left pressure 10[N/cm²];left pressure 11[N/cm²];left pressure 12[N/cm²];left pressure 13[N/cm²];left pressure 14[N/cm²];left pressure 15[N/cm²];left pressure 16[N/cm²];left acceleration X[g];left acceleration Y[g];left acceleration Z[g];left angular X[dps];left angular Y[dps];left angular Z[dps];left total force[N];left center of pressure X[-0.5...+0.5];left center of pressure Y[-0.5...+0.5];right pressure 1[N/cm²];right pressure 2[N/cm²];right pressure 3[N/cm²];right pressure 4[N/cm²];right pressure 5[N/cm²];right pressure 6[N/cm²];right pressure 7[N/cm²];right pressure 8[N/cm²];right pressure 9[N/cm²];right pressure 10[N/cm²];right pressure 11[N/cm²];right pressure 12[N/cm²];right pressure 13[N/cm²];right pressure 14[N/cm²];right pressure 15[N/cm²];right pressure 16[N/cm²];right acceleration X[g];right acceleration Y[g];right acceleration Z[g];right angular X[dps];right angular Y[dps];right angular Z[dps];right total force[N];right center of pressure X[-0.5...+0.5];right center of pressure Y[-0.5...+0.5]
0.0;2.0;2.25;2.0;2.75;1.0;1.0;0.0;0.5;2.25;3.0;3.25;3.25;2.25;6.0;0.25;1.25;-0.24707;0.054199;0.968262;-1.82;0.56;-0.49;279.0;0.06991;-0.052896;1.75;1.5;2.25;2.0;0.75;1.0;0.0;0.5;1.75;2.0;2.75;2.25;1.25;2.25;0.75;1.5;-0.23584;0.01123;0.978516;-0.7;-1.33;1.26;208.0;0.038323;-0.064697
0.01;2.0;2.25;2.0;2.75;1.0;1.0;0.0;0.5;2.25;3.0;3.25;3.25;2.25;6.0;0.25;1.25;-0.24707;0.054199;0.968262;-1.82;0.56;-0.49;279.0;0.06991;-0.052896;1.75;1.5;2.25;2.0;0.75;1.0;0.0;0.5;1.75;1.75;2.25;2.5;1.25;4.5;0.25;1.75;-0.234375;0.011719;0.971191;-0.63;-1.33;1.19;216.0;0.056259;-0.050218
0.02;2.0;2.25;2.0;2.75;1.0;1.0;0.0;0.5;2.25;3.0;3.25;3.25;2.25;6.0;0.25;1.25;-0.24707;0.054199;0.968262;-1.82;0.56;-0.49;279.0;0.06991;-0.052896;2.25;1.75;2.75;2.0;0.75;1.0;0.0;0.5;1.75;1.75;2.25;1.25;1.0;4.75;0.0;1.25;-0.230469;0.013672;0.976074;-0.77;-1.33;1.26;212.0;0.022615;-0.023442
0.03;2.0;2.25;2.0;2.75;1.0;1.0;0.0;0.5;2.25;3.0;3.25;3.25;2.25;6.0;0.25;1.25;-0.24707;0.054199;0.968262;-1.82;0.56;-0.49;279.0;0.06991;-0.052896;2.25;1.75;2.5;2.0;0.5;1.0;0.0;0.5;1.75;2.0;2.25;1.0;1.0;4.5;0.0;2.0;-0.236816;0.012695;0.977051;-0.77;-1.4;1.26;209.0;0.029993;-0.028354
0.04;2.0;2.25;2.0;2.75;1.0;1.0;0.0;0.5;2.25;3.0;3.25;3.25;2.25;6.0;0.25;1.25;-0.24707;0.054199;0.968262;-1.82;0.56;-0.49;279.0;0.06991;-0.052896;2.25;1.75;2.75;2.0;0.75;1.0;0.0;0.5;2.0;1.5;2.5;1.75;1.0;3.75;0.0;1.75;-0.237793;0.019531;0.979004;-0.7;-1.47;1.26;214.0;0.019849;-0.036934
0.05;2.0;2.25;2.0;2.75;1.0;1.0;0.0;0.5;2.25;3.0;3.25;3.25;2.25;6.0;0.25;1.25;-0.24707;0.054199;0.968262;-1.82;0.56;-0.49;279.0;0.06991;-0.052896;1.75;1.25;2.75;2.0;0.75;1.0;0.0;0.25;2.0;1.5;2.75;1.75;1.0;4.25;0.25;1.75;-0.237305;0.011719;0.981934;-0.77;-1.4;1.19;211.0;0.049913;-0.029864
0.06;2.0;2.25;2.0;2.75;1.0;1.0;0.0;0.5;2.25;3.0;3.25;3.25;2.25;6.0;0.25;1.25;-0.24707;0.054199;0.968262;-1.82;0.56;-0.49;279.0;0.06991;-0.052896;1.5;1.5;2.25;2.0;0.75;1.0;0.0;0.25;2.0;1.75;2.5;1.75;1.0;4.25;0.25;1.75;-0.240234;0.015625;0.975098;-0.63;-1.33;1.19;206.0;0.057629;-0.033398
0.07;2.0;2.25;2.0;2.75;1.0;1.0;0.0;0.5;2.25;3.0;3.25;3.25;2.25;6.0;0.25;1.25;-0.24707;0.054199;0.968262;-1.82;0.56;-0.49;279.0;0.06991;-0.052896;1.5;1.5;2.75;2.25;0.75;1.0;0.0;0.5;2.0;1.75;3.0;1.75;1.0;3.75;0.25;1.75;-0.233398;0.014648;0.97168;-0.56;-1.26;1.12;217.0;0.043508;-0.043198
0.08;2.0;2.75;2.0;2.75;0.75;1.0;0.0;0.5;2.25;2.75;3.25;3.25;1.75;6.0;0.25;1.25;-0.246094;0.055176;0.962891;-1.82;0.49;-0.49;274.0;0.062033;-0.050901;1.75;1.5;2.75;2.5;0.75;1.0;0.0;0.25;1.75;2.0;2.0;1.75;1.0;3.75;0.25;1.5;-0.237793;0.007812;0.978027;-0.63;-1.4;1.26;207.0;0.025838;-0.036781
0.09;2.0;2.75;2.5;3.0;0.75;1.0;0.0;0.5;2.25;2.75;3.25;3.75;2.25;5.75;0.25;1.25;-0.249023;0.048828;0.960938;-1.82;0.42;-0.42;288.0;0.05535;-0.060434;2.25;1.5;2.5;2.5;0.75;0.75;0.0;0.25;1.5;1.5;2.5;1.75;0.75;3.25;0.25;1.75;-0.238281;0.014648;0.971191;-0.63;-1.4;1.19;200.0;0.012211;-0.042122
0.1;2.5;2.25;2.0;2.75;0.75;0.5;0.0;0.5;2.5;2.5;3.75;4.0;2.25;5.75;0.5;1.25;-0.248535;0.054688;0.965332;-1.75;0.42;-0.35;286.0;0.073087;-0.054769;1.5;1.5;2.5;2.25;0.75;0.75;0.0;0.5;2.0;1.5;2.5;1.75;1.0;3.0;0.25;1.75;-0.234375;0.010742;0.973145;-0.7;-1.4;1.12;200.0;0.033287;-0.047636
0.11;2.5;2.75;2.0;2.75;0.75;0.5;0.0;0.5;2.25;2.5;3.75;4.0;2.25;5.75;0.5;1.5;-0.246582;0.056152;0.962891;-1.89;0.49;-0.56;288.0;0.065951;-0.060411;1.5;1.25;2.5;2.25;0.5;0.5;0.0;0.5;1.75;1.75;2.5;1.75;0.75;3.0;0.0;1.5;-0.244141;0.010742;0.979004;-0.77;-1.47;1.26;188.0;0.03349;-0.042353
0.12;1.75;2.75;1.75;2.75;0.75;0.75;0.0;0.5;2.25;2.75;3.75;4.0;2.25;5.75;0.25;1.0;-0.249512;0.051758;0.961426;-1.89;0.49;-0.49;279.0;0.074094;-0.064111;1.5;1.25;1.75;2.25;0.75;0.5;0.0;0.25;1.5;1.75;2.75;1.75;0.75;3.25;0.0;1.5;-0.237793;0.01416;0.972656;-0.77;-1.4;1.19;181.0;0.046559;-0.0435
0.13;1.75;2.25;1.75;2.75;0.75;0.75;0.0;0.5;2.25;2.75;3.5;4.0;2.25;5.75;0.25;0.75;-0.245605;0.054688;0.960449;-1.82;0.63;-0.42;272.0;0.078604;-0.061201;1.5;1.25;2.25;2.0;0.75;1.0;0.0;0.25;1.5;2.0;2.5;2.25;0.75;3.25;0.0;1.5;-0.236328;0.008301;0.972168;-0.7;-1.47;1.19;193.0;0.042116;-0.047289
0.14;2.25;2.75;2.0;2.75;0.75;0.75;0.0;0.5;2.25;2.75;3.5;3.25;1.75;6.0;0.25;1.0;-0.249512;0.056152;0.964355;-1.89;0.63;-0.35;275.0;0.06021;-0.047232;1.5;1.5;2.5;2.0;0.5;0.5;0.0;0.25;1.5;2.0;2.5;2.25;0.75;3.75;0.0;1.5;-0.241211;0.010254;0.974121;-0.7;-1.4;1.26;194.0;0.04726;-0.038642
0.15;2.25;2.75;2.0;2.75;0.75;0.75;0.0;0.5;2.25;3.25;3.25;3.5;2.25;5.75;0.5;1.0;-0.247559;0.05127;0.961426;-1.96;0.63;-0.49;284.0;0.064747;-0.053983;1.25;1.5;2.25;2.0;0.5;0.5;0.0;0.25;1.5;1.5;2.5;2.25;0.75;3.0;0.0;1.5;-0.238281;0.014648;0.97998;-0.77;-1.47;1.19;179.0;0.04113;-0.051062
0.16;2.25;2.75;1.75;2.75;0.75;0.75;0.0;0.5;1.75;2.75;3.25;3.5;2.25;5.75;0.25;0.75;-0.245605;0.053711;0.962891;-1.82;0.56;-0.42;268.0;0.056767;-0.062503;1.5;1.25;2.25;2.0;0.5;0.75;0.0;0.5;1.75;1.5;2.75;1.75;0.75;3.25;0.0;1.5;-0.23877;0.013672;0.975098;-0.7;-1.4;0.98;187.0;0.042371;-0.04455
0.17;2.0;2.25;1.75;2.75;0.5;0.5;0.0;0.5;2.25;2.75;3.5;2.0;2.25;5.75;0.0;1.0;-0.243164;0.053223;0.95752;-1.89;0.56;-0.49;251.0;0.067701;-0.043396;1.75;1.5;2.25;2.0;0.25;0.75;0.0;0.5;1.5;1.75;2.5;2.5;1.0;3.25;0.0;1.25;-0.236328;0.015625;0.976074;-0.84;-1.33;1.12;194.0;0.036928;-0.058736
0.18;2.0;2.25;1.75;2.75;0.75;0.75;0.0;0.5;2.25;2.75;3.5;3.0;2.25;5.75;0.25;1.0;-0.246094;0.053223;0.961914;-1.75;0.56;-0.35;267.0;0.071625;-0.053136;1.5;1.5;2.25;2.0;0.25;0.75;0.0;0.5;1.5;1.75;2.5;1.75;1.0;3.5;0.25;1.25;-0.234375;0.010742;0.977539;-0.7;-1.47;1.12;189.0;0.043892;-0.050377
0.19;2.25;2.25;2.0;2.75;0.5;0.75;0.0;0.5;2.0;2.75;3.5;3.75;2.25;6.0;0.25;1.0;-0.247559;0.051758;0.960938;-1.89;0.49;-0.35;275.0;0.070325;-0.05922;1.5;1.25;1.75;2.0;0.5;0.75;0.0;0.5;1.5;1.75;2.5;1.25;1.0;3.25;0.5;1.5;-0.235352;0.015137;0.978516;-0.77;-1.47;1.12;182.0;0.053397;-0.04966
0.2;1.75;2.75;2.5;2.75;0.5;0.75;0.0;0.25;2.0;3.0;3.5;3.75;1.75;6.0;0.0;1.25;-0.247559;0.052246;0.962891;-1.89;0.42;-0.42;273.0;0.064685;-0.051472;1.5;1.25;2.5;2.0;0.5;0.75;0.0;0.25;1.5;2.0;2.25;1.75;0.75;3.0;0.5;1.5;-0.240234;0.008301;0.97168;-0.7;-1.33;1.12;186.0;0.041734;-0.040455
0.21;1.75;2.75;2.5;2.75;0.5;0.75;0.0;0.5;2.0;3.0;3.5;3.5;2.25;5.75;0.0;1.25;-0.245605;0.056641;0.957031;-1.89;0.63;-0.49;276.0;0.06179;-0.060382;2.25;1.25;2.5;2.5;0.5;1.0;0.0;0.25;1.75;1.75;2.25;1.75;0.75;3.25;0.5;1.25;-0.234863;0.009766;0.977539;-0.7;-1.47;1.19;201.0;0.019888;-0.035806
0.22;2.25;2.75;2.5;2.75;0.75;0.75;0.0;0.25;2.0;2.75;3.5;3.5;2.25;5.75;0.0;1.25;-0.25;0.052246;0.956543;-1.89;0.63;-0.42;277.0;0.052419;-0.053902;1.75;1.5;2.25;2.25;0.5;0.75;0.0;0.5;1.5;1.75;2.25;1.75;1.0;3.0;0.5;1.5;-0.236816;0.01709;0.978027;-0.84;-1.54;1.19;193.0;0.030075;-0.054748
0.23;2.5;2.75;2.75;2.75;0.75;1.0;0.0;0.25;2.25;2.75;3.5;3.0;2.25;5.75;0.25;1.25;-0.248535;0.047852;0.962402;-1.82;0.7;-0.42;284.0;0.047017;-0.046542;1.25;1.75;2.5;1.75;0.5;0.5;0.0;0.5;1.5;1.5;2.25;1.75;1.0;3.25;0.5;1.25;-0.238281;0.015625;0.972168;-0.77;-1.54;1.26;185.0;0.041163;-0.048546
0.24;1.75;2.75;2.0;3.0;0.5;0.75;0.0;0.25;2.25;2.75;3.25;3.5;2.25;5.75;0.25;1.0;-0.248047;0.056641;0.959961;-1.82;0.63;-0.49;270.0;0.066135;-0.056725;1.75;1.5;2.5;1.75;0.75;0.5;0.0;0.5;1.5;1.5;2.25;1.75;0.75;3.25;0.75;1.75;-0.237305;0.010254;0.97168;-0.84;-1.4;1.12;192.0;0.040543;-0.04211
0.25;1.75;2.25;2.0;2.75;0.5;0.75;0.0;0.25;2.0;2.75;3.25;3.5;2.25;5.75;0.25;1.25;-0.240723;0.049316;0.962891;-1.82;0.77;-0.49;262.0;0.07562;-0.058229;2.25;1.5;2.5;2.0;0.25;0.75;0.0;0.5;2.0;1.25;2.5;1.75;1.0;3.5;0.25;1.5;-0.237305;0.014648;0.974609;-0.77;-1.47;1.19;200.0;0.029099;-0.038673
0.26;2.0;2.75;1.75;2.75;0.5;1.0;0.0;0.25;2.0;2.5;3.75;3.5;2.25;5.75;0.25;0.75;-0.241699;0.050781;0.964844;-1.75;0.63;-0.42;268.0;0.064405;-0.061288;1.75;1.25;2.5;2.0;0.25;0.75;0.0;0.25;2.25;1.5;2.25;1.75;0.75;3.5;0.25;1.5;-0.242188;0.006348;0.972656;-0.7;-1.33;1.12;191.0;0.046102;-0.024284
0.27;2.25;2.75;1.75;2.75;0.75;1.0;0.0;0.25;1.75;2.5;3.75;4.0;2.25;5.75;0.5;0.75;-0.250977;0.054688;0.960938;-1.89;0.7;-0.42;276.0;0.062305;-0.066177;1.25;1.25;2.5;2.25;0.25;0.75;0.0;0.5;2.0;1.25;2.0;1.75;0.75;3.25;0.25;1.25;-0.239258;0.012695;0.977539;-0.84;-1.33;1.12;183.0;0.038351;-0.040964
0.28;2.5;2.75;2.0;2.75;0.75;0.5;0.0;0.25;1.75;2.75;3.25;3.25;2.25;5.75;0.25;1.0;-0.248047;0.050293;0.966309;-1.96;0.49;-0.49;266.0;0.052861;-0.053195;1.5;1.5;2.5;2.0;0.0;1.0;0.0;0.5;1.75;1.5;2.25;2.5;0.25;3.25;0.25;1.25;-0.233398;0.013184;0.975098;-0.91;-1.61;1.26;189.0;0.037047;-0.047323
0.29;2.0;2.75;2.0;3.0;1.0;0.5;0.0;0.25;2.0;2.75;2.0;3.0;2.25;5.75;0.0;1.0;-0.243164;0.057129;0.958008;-1.82;0.63;-0.42;254.0;0.046234;-0.047874;1.5;1.75;2.25;1.75;0.25;0.5;0.0;0.0;1.75;1.5;2.5;1.75;0.0;3.25;0.25;1.5;-0.234863;0.013184;0.974121;-0.84;-1.54;1.19;172.0;0.04163;-0.016721
0.3;2.0;2.75;2.5;3.0;1.0;0.75;0.0;0.25;1.75;3.0;2.75;3.25;2.25;5.75;0.0;1.0;-0.248047;0.057617;0.95752;-1.96;0.77;-0.49;269.0;0.044291;-0.053468;1.25;1.5;2.25;2.25;0.5;0.25;0.0;0.0;2.0;1.5;2.25;1.75;0.5;3.0;0.25;1.25;-0.238281;0.019531;0.973633;-0.63;-1.4;1.12;174.0;0.041724;-0.021334
0.31;2.25;2.75;2.0;2.75;1.0;0.5;0.0;0.25;1.75;2.75;3.75;3.25;2.25;6.0;0.25;1.0;-0.25;0.054688;0.962402;-1.96;0.49;-0.42;273.0;0.060132;-0.053008;1.25;1.25;2.5;2.25;0.75;0.75;0.0;0.5;1.75;1.75;2.5;1.75;0.75;3.25;0.25;1.25;-0.243652;0.012207;0.975586;-0.7;-1.54;1.33;193.0;0.040184;-0.042337
0.32;2.5;2.25;2.0;2.75;0.5;0.75;0.0;0.25;1.5;2.75;3.25;3.0;2.25;6.0;0.25;0.75;-0.251465;0.057129;0.961426;-2.1;0.7;-0.49;258.0;0.057287;-0.053109;1.75;1.5;2.5;2.25;0.25;1.0;0.0;0.25;2.0;1.75;2.25;1.75;1.0;3.5;0.0;1.5;-0.237305;0.007812;0.977051;-0.77;-1.54;1.12;197.0;0.031714;-0.037481
0.33;2.0;2.25;2.5;3.0;0.5;0.75;0.0;0.25;2.25;2.75;3.0;3.5;2.25;5.75;0.25;0.75;-0.248047;0.05127;0.962891;-1.96;0.63;-0.42;269.0;0.060954;-0.049723;2.5;1.5;2.5;2.0;0.0;1.0;0.0;0.0;2.25;1.75;2.5;1.75;0.5;3.5;0.0;1.5;-0.241211;0.019043;0.97998;-0.63;-1.47;1.33;197.0;0.026341;-0.014537
0.34;2.0;2.25;2.75;2.75;0.75;0.75;0.0;0.25;2.25;2.75;3.0;3.5;2.25;6.0;0.5;0.5;-0.247559;0.054688;0.961426;-2.03;0.56;-0.42;275.0;0.063375;-0.043824;1.5;1.75;2.5;2.0;0.25;1.0;0.0;0.0;2.25;1.5;2.25;1.75;0.25;3.0;0.25;1.25;-0.236816;0.015625;0.979492;-0.63;-1.47;1.26;184.0;0.028691;-0.018946
0.35;2.25;2.25;2.0;3.0;0.75;0.75;0.0;0.25;2.0;2.75;3.0;2.75;2.25;6.0;0.25;0.5;-0.244141;0.048828;0.958984;-2.03;0.7;-0.49;260.0;0.056626;-0.04434;1.5;1.5;2.75;2.25;0.5;0.75;0.0;0.25;1.5;1.5;2.25;1.75;0.5;3.25;0.25;1.25;-0.232422;0.01123;0.977539;-0.56;-1.47;1.12;185.0;0.020307;-0.036387
0.36;2.0;2.75;2.0;2.75;0.5;0.5;0.0;0.25;2.25;2.75;3.0;3.75;2.25;5.75;0.0;0.75;-0.245605;0.052734;0.958984;-1.96;0.56;-0.42;264.0;0.062958;-0.05222;1.5;1.25;2.5;2.25;0.5;0.75;0.0;0.25;1.5;1.75;2.5;1.75;1.0;3.25;0.0;1.75;-0.237305;0.010742;0.966797;-0.7;-1.47;1.19;189.0;0.035692;-0.047473
0.37;2.0;3.0;2.0;2.75;0.5;0.5;0.0;0.25;2.25;2.75;3.0;3.75;2.25;6.0;0.25;1.0;-0.245117;0.058105;0.962891;-2.03;0.63;-0.49;271.0;0.065939;-0.05286;1.75;1.0;2.25;2.0;0.5;1.0;0.0;0.5;1.5;1.5;2.0;1.75;0.75;3.25;0.5;1.75;-0.233398;0.011719;0.970703;-0.7;-1.47;1.33;186.0;0.04057;-0.049026
0.38;2.25;3.0;1.75;2.75;0.75;0.5;0.0;0.25;2.0;2.75;3.0;4.0;2.25;6.0;0.0;1.0;-0.248047;0.055664;0.961426;-2.03;0.7;-0.49;270.0;0.059854;-0.056878;1.75;1.25;2.5;2.5;0.75;1.0;0.0;0.0;1.75;1.5;2.0;1.75;0.75;3.25;0.5;1.5;-0.238281;0.012207;0.975586;-0.77;-1.54;1.05;192.0;0.025393;-0.033895
0.39;2.5;2.75;2.5;2.5;0.75;0.5;0.0;0.25;1.5;2.75;3.0;3.5;2.25;6.0;0.0;0.75;-0.247559;0.053223;0.959473;-1.89;0.63;-0.49;264.0;0.046073;-0.05115;1.75;1.5;2.5;2.0;0.25;0.75;0.0;0.25;1.75;1.75;2.25;1.75;0.5;3.25;0.5;1.5;-0.241699;0.011719;0.972168;-0.7;-1.47;1.12;189.0;0.037084;-0.031727
0.4;2.25;2.75;2.75;2.75;0.75;0.75;0.0;0.25;1.5;2.75;3.25;3.5;1.75;5.75;0.0;0.75;-0.245605;0.054688;0.960938;-1.89;0.42;-0.42;266.0;0.039722;-0.051026;1.75;1.25;2.5;2.25;0.0;0.75;0.0;0.5;1.75;1.75;2.25;1.75;0.75;3.0;0.25;1.25;-0.23291;0.01123;0.976074;-0.7;-1.47;1.26;187.0;0.030241;-0.043906
0.41;2.25;3.0;2.5;3.0;0.75;0.75;0.0;0.25;1.75;3.5;3.25;3.5;1.75;5.75;0.25;0.75;-0.25;0.051758;0.966797;-1.96;0.49;-0.42;279.0;0.046182;-0.048791;1.75;1.25;2.5;2.25;0.5;0.5;0.0;0.25;1.75;1.75;2.0;1.75;0.75;3.25;0.25;1.0;-0.237793;0.013184;0.977539;-0.63;-1.47;1.19;184.0;0.02869;-0.027753
0.42;2.0;3.0;2.0;3.0;0.75;0.25;0.0;0.0;1.75;2.75;3.5;3.0;2.25;5.75;0.25;1.0;-0.246582;0.052246;0.963867;-1.75;0.49;-0.49;261.0;0.056704;-0.050659;1.75;1.5;2.75;2.25;0.5;0.75;0.0;0.25;1.5;1.75;2.25;1.75;0.75;2.75;0.25;0.75;-0.23291;0.007812;0.969727;-0.63;-1.54;1.26;185.0;0.007641;-0.038428
0.43;2.25;3.25;2.5;3.0;0.75;0.0;0.0;0.0;1.5;2.5;3.25;3.0;1.75;5.75;0.25;0.75;-0.246094;0.05127;0.95752;-1.96;0.7;-0.49;255.0;0.037048;-0.042445;1.75;1.5;2.75;2.0;0.5;1.0;0.0;0.25;1.25;2.0;2.0;1.75;0.5;2.5;0.0;1.0;-0.239258;0.012207;0.972656;-0.63;-1.47;1.12;178.0;-0.002722;-0.040671
0.44;2.25;3.0;2.5;3.0;0.75;0.25;0.0;0.25;1.5;1.5;2.75;3.25;1.75;5.75;0.25;1.0;-0.245117;0.055664;0.961426;-1.68;0.35;-0.35;249.0;0.030757;-0.053974;1.5;1.5;2.5;2.0;0.5;0.75;0.0;0.5;2.0;1.25;2.0;1.75;0.75;2.5;0.0;1.0;-0.237793;0.010742;0.975586;-0.77;-1.47;1.19;178.0;0.012163;-0.041133
0.45;2.5;2.75;2.5;2.75;0.75;0.5;0.0;0.25;1.75;1.5;2.5;3.5;1.5;5.75;0.25;0.75;-0.249023;0.050781;0.961914;-1.82;0.63;-0.35;249.0;0.031495;-0.045907;2.25;1.75;2.5;2.25;0.25;0.75;0.0;0.5;1.75;1.25;2.0;2.25;0.75;3.0;0.0;1.0;-0.234375;0.008789;0.969727;-0.7;-1.54;1.26;192.0;0.000342;-0.047021
0.46;2.75;3.0;2.0;2.75;0.75;0.5;0.0;0.25;1.75;2.5;3.0;3.25;1.75;5.75;0.0;0.5;-0.249512;0.049805;0.958496;-1.96;0.63;-0.49;258.0;0.035028;-0.044752;2.25;1.75;2.5;2.25;0.25;0.75;0.0;0.25;1.5;1.5;2.5;1.75;0.25;3.0;0.0;1.25;-0.239746;0.009766;0.977539;-0.77;-1.4;1.12;185.0;-0.001147;-0.033687
0.47;2.75;2.75;2.75;2.75;1.0;0.75;0.0;0.5;1.75;2.25;3.25;3.25;2.25;5.75;0.0;0.5;-0.246094;0.052246;0.959473;-1.82;0.63;-0.42;274.0;0.028767;-0.052509;2.25;1.5;2.75;2.25;0.5;0.5;0.0;0.25;1.25;1.5;2.5;1.75;0.5;3.25;0.0;1.5;-0.23877;0.015137;0.974609;-0.7;-1.47;1.19;188.0;0.004202;-0.035106
0.48;2.75;2.75;2.75;3.0;0.75;0.5;0.0;0.25;1.5;2.25;3.25;3.25;2.25;5.75;0.25;0.75;-0.243164;0.05127;0.960938;-1.89;0.56;-0.42;269.0;0.03161;-0.053761;2.25;1.5;2.75;1.75;0.5;0.75;0.0;0.5;1.5;1.75;2.5;1.75;0.5;3.5;0.0;1.5;-0.234863;0.01123;0.973145;-0.77;-1.54;1.12;195.0;0.018884;-0.031828
0.49;2.25;3.0;2.5;3.25;0.5;0.5;0.0;0.25;1.5;2.25;2.75;3.25;2.25;5.75;0.25;0.5;-0.243164;0.055176;0.966309;-1.82;0.56;-0.42;259.0;0.032054;-0.058938;2.25;1.5;2.75;1.75;0.5;0.75;0.0;0.5;1.5;2.0;2.5;1.75;0.5;3.0;0.25;1.5;-0.236328;0.009277;0.976074;-0.84;-1.47;1.19;196.0;0.01854;-0.035161
0.5;1.5;2.75;2.5;3.0;0.75;0.75;0.0;0.25;1.75;2.75;3.0;3.75;1.75;5.75;0.0;0.75;-0.243652;0.051758;0.96582;-1.82;0.56;-0.35;262.0;0.052681;-0.055884;2.25;2.0;2.75;1.75;0.75;0.75;0.0;0.5;1.5;1.75;2.25;1.75;0.75;3.75;0.25;1.5;-0.235352;0.014648;0.979492;-0.63;-1.47;1.19;205.0;0.015875;-0.034965
0.51;2.0;2.25;2.0;3.0;0.75;0.75;0.0;0.25;1.75;2.25;3.25;3.25;1.75;5.75;0.25;0.5;-0.251465;0.055664;0.959473;-1.82;0.63;-0.35;252.0;0.055176;-0.051511;2.25;2.0;3.0;2.0;0.75;1.0;0.0;0.5;1.25;1.5;2.0;1.75;0.75;3.0;0.0;1.0;-0.235352;0.019043;0.972168;-0.56;-1.33;1.26;195.0;-0.020708;-0.045073
0.52;2.25;2.75;2.0;2.75;0.5;0.75;0.0;0.25;1.75;2.0;3.0;3.5;2.25;5.75;0.0;0.25;-0.248047;0.053223;0.958984;-1.89;0.63;-0.42;252.0;0.044229;-0.058423;2.25;1.75;2.75;2.0;0.5;0.75;0.0;0.5;1.5;1.5;2.25;1.75;0.5;2.75;0.0;1.25;-0.239258;0.007324;0.974609;-0.56;-1.33;1.19;189.0;-0.007543;-0.03993
0.53;2.25;2.75;2.0;2.75;0.5;0.5;0.0;0.25;1.5;2.5;3.0;3.0;1.75;5.75;0.0;0.5;-0.247559;0.052734;0.960449;-1.89;0.63;-0.42;244.0;0.043818;-0.048826;2.25;1.5;2.5;2.25;0.75;0.75;0.0;0.75;1.75;1.75;2.25;1.75;0.5;3.0;0.25;1.25;-0.240723;0.016602;0.977051;-0.63;-1.33;1.19;201.0;0.009353;-0.039862
0.54;2.25;2.75;2.5;2.75;0.75;0.5;0.0;0.25;1.5;2.5;3.0;2.5;1.75;5.75;0.25;0.5;-0.244141;0.050781;0.958984;-1.96;0.77;-0.49;249.0;0.036782;-0.041135;1.75;1.5;2.5;2.25;0.25;0.75;0.0;0.25;1.25;1.75;2.0;1.75;0.25;3.0;0.25;1.75;-0.233887;0.010742;0.973145;-0.56;-1.47;1.26;179.0;0.016215;-0.041433
0.55;2.5;3.0;2.5;3.0;0.75;0.5;0.0;0.25;1.5;2.25;3.5;3.0;2.25;5.5;0.25;0.75;-0.249023;0.050293;0.955078;-1.75;0.49;-0.35;265.0;0.032091;-0.057227;1.75;1.5;2.5;2.0;0.25;0.5;0.0;0.25;1.0;1.5;2.25;1.75;0.25;3.0;0.25;1.75;-0.237305;0.013672;0.97168;-0.56;-1.4;1.33;171.0;0.018516;-0.043239
0.56;2.25;3.0;2.5;3.0;0.5;0.5;0.0;0.5;1.5;2.25;2.75;3.5;2.25;5.75;0.0;0.75;-0.247559;0.060547;0.959961;-2.03;0.63;-0.49;261.0;0.034062;-0.064452;1.75;1.75;2.25;2.5;0.25;0.5;0.0;0.25;1.25;1.5;2.25;1.75;0.75;3.25;0.25;1.25;-0.238281;0.012207;0.976074;-0.56;-1.47;1.19;181.0;0.016041;-0.048918
0.57;2.0;3.0;2.5;3.0;0.75;0.5;0.0;0.5;1.75;2.5;3.0;3.25;1.5;5.75;0.0;0.75;-0.244629;0.053711;0.955078;-1.96;0.42;-0.42;261.0;0.037626;-0.050243;2.5;1.75;2.5;2.25;0.25;0.5;0.0;0.25;1.5;1.75;2.25;1.75;1.0;3.5;0.0;1.0;-0.240234;0.012695;0.97168;-0.63;-1.47;1.19;193.0;0.006676;-0.033852
0.58;2.25;2.25;2.5;3.0;0.75;0.75;0.0;0.5;2.25;2.75;3.0;2.5;1.75;5.75;0.25;0.75;-0.244141;0.055664;0.958984;-1.89;0.49;-0.42;264.0;0.048245;-0.037636;1.75;1.5;2.75;2.0;0.5;0.75;0.0;0.25;1.5;2.0;2.5;1.25;1.0;3.5;0.25;1.25;-0.234863;0.008789;0.97998;-0.63;-1.54;1.26;193.0;0.028725;-0.031306
0.59;2.25;2.25;2.5;3.0;0.75;0.75;0.0;0.5;2.5;2.75;3.0;3.0;1.75;6.0;0.25;0.75;-0.243164;0.054688;0.956055;-2.1;0.42;-0.49;273.0;0.055294;-0.037272;1.5;1.5;2.5;2.0;0.25;0.75;0.0;0.5;1.25;1.75;2.0;1.25;1.0;2.75;0.5;1.0;-0.239258;0.010742;0.975098;-0.7;-1.4;1.26;175.0;0.018993;-0.051437
0.6;2.5;3.0;2.5;3.0;0.75;0.5;0.0;0.5;2.0;2.75;2.75;3.25;1.5;5.75;0.5;1.0;-0.248047;0.054199;0.958008;-1.89;0.42;-0.35;273.0;0.040286;-0.044658;1.75;1.5;2.5;2.0;0.5;0.75;0.0;0.5;1.75;1.5;2.5;1.75;0.75;2.5;0.5;1.25;-0.238281;0.014648;0.974121;-0.63;-1.47;1.26;189.0;0.022809;-0.04711
0.61;2.5;3.0;2.5;3.0;0.5;0.5;0.0;0.25;1.5;2.75;2.5;3.25;1.75;5.75;0.25;1.0;-0.247559;0.050293;0.958496;-1.96;0.56;-0.49;260.0;0.034055;-0.050096;2.25;1.25;2.5;2.0;0.25;1.0;0.0;0.25;1.25;1.5;2.75;1.75;1.0;2.75;0.5;1.25;-0.234863;0.015137;0.970703;-0.63;-1.61;1.33;189.0;0.018509;-0.052571
0.62;2.25;2.75;2.0;3.0;0.5;0.75;0.0;0.25;1.5;2.75;2.75;3.25;1.75;5.75;0.0;0.5;-0.242676;0.048828;0.96582;-2.03;0.49;-0.49;251.0;0.040571;-0.053076;1.5;1.5;2.5;2.25;0.0;1.0;0.0;0.0;1.0;1.75;2.25;1.75;1.0;2.75;0.25;1.25;-0.234863;0.015137;0.973633;-0.7;-1.54;1.19;174.0;0.016724;-0.059151
0.63;2.25;3.0;2.0;3.0;0.5;0.75;0.0;0.25;1.75;2.75;3.0;3.25;1.25;5.75;0.25;0.5;-0.24707;0.058594;0.961426;-2.1;0.7;-0.42;256.0;0.042352;-0.04537;1.5;1.5;2.5;2.25;0.25;0.75;0.0;0.0;1.0;1.25;2.25;1.75;1.0;2.75;0.0;1.5;-0.23877;0.015137;0.973145;-0.7;-1.54;1.12;169.0;0.008493;-0.059228
0.64;2.75;3.25;2.5;3.0;0.5;0.75;0.0;0.25;1.75;2.5;3.0;3.5;1.25;5.75;0.5;0.75;-0.246582;0.05127;0.967773;-1.82;0.49;-0.35;271.0;0.030742;-0.045794;1.5;1.5;2.5;2.25;0.5;0.75;0.0;0.25;1.0;1.25;2.0;1.75;1.0;3.0;0.0;1.25;-0.23291;0.012207;0.970703;-0.77;-1.47;1.12;173.0;0.005431;-0.05888
0.65;2.5;2.75;2.75;2.75;0.5;0.25;0.0;0.0;1.5;2.5;2.75;3.75;1.75;5.75;0.25;0.75;-0.240723;0.056641;0.959473;-1.89;0.7;-0.35;256.0;0.041253;-0.04475;1.75;1.75;2.75;2.25;0.5;1.0;0.0;0.5;1.25;1.5;2.0;1.75;0.75;3.0;0.0;1.0;-0.234375;0.010254;0.976074;-0.63;-1.4;1.19;186.0;-0.006662;-0.05261
0.66;2.5;3.0;2.75;3.0;0.5;0.25;0.0;0.0;1.5;3.25;2.75;3.75;2.25;5.5;0.0;1.0;-0.249512;0.050781;0.962402;-1.75;0.7;-0.42;267.0;0.037607;-0.052571;1.75;2.0;2.5;2.5;0.5;1.0;0.0;0.25;1.25;1.25;1.75;1.75;1.0;3.0;0.25;1.25;-0.238281;0.01123;0.976562;-0.7;-1.4;1.12;186.0;-0.007719;-0.058512
0.67;2.5;3.25;3.5;2.75;0.75;0.5;0.0;0.25;1.75;3.0;3.25;3.0;2.25;5.75;0.0;0.75;-0.248047;0.05127;0.959473;-1.89;0.7;-0.42;281.0;0.026707;-0.043521;1.5;1.75;2.75;2.25;0.5;0.75;0.0;0.25;1.25;1.25;1.75;1.75;0.75;2.25;0.25;1.25;-0.239258;0.012695;0.981445;-0.7;-1.47;1.19;172.0;-0.011042;-0.055437
0.68;1.75;3.0;3.0;2.75;0.75;0.5;0.0;0.25;2.0;3.25;3.0;2.5;2.25;5.75;0.0;0.75;-0.249512;0.056641;0.961426;-1.82;0.63;-0.35;266.0;0.045017;-0.039752;2.25;1.75;2.75;2.0;0.75;0.75;0.0;0.25;1.25;1.5;2.0;1.75;0.75;2.0;0.25;1.25;-0.23877;0.010254;0.978027;-0.84;-1.47;1.26;181.0;-0.021335;-0.047532
0.69;1.75;2.25;2.0;2.75;0.75;0.75;0.0;0.25;2.0;2.75;3.0;2.75;1.75;5.75;0.25;1.0;-0.250488;0.055664;0.960449;-1.89;0.7;-0.49;251.0;0.066296;-0.043275;1.75;1.75;3.0;2.0;0.5;0.75;0.0;0.25;0.75;1.75;1.75;1.75;0.75;2.75;0.25;1.25;-0.234375;0.011719;0.972656;-0.91;-1.4;1.19;177.0;-0.009127;-0.051873
0.7;1.75;2.75;2.0;2.75;0.75;0.5;0.0;0.25;1.75;2.5;3.0;3.0;1.75;5.75;0.5;1.0;-0.244141;0.059082;0.960449;-1.89;0.63;-0.42;252.0;0.061562;-0.050017;1.75;1.75;2.5;2.25;0.5;1.0;0.0;0.5;0.75;1.25;1.75;1.75;1.0;3.0;0.25;1.5;-0.230957;0.011719;0.977539;-0.77;-1.47;1.26;181.0;-0.005561;-0.072833
0.71;2.5;3.0;2.0;2.75;0.5;0.5;0.0;0.25;1.5;2.0;2.75;3.0;1.75;5.75;0.25;1.0;-0.248047;0.055664;0.957031;-1.82;0.7;-0.42;246.0;0.037411;-0.052515;1.75;1.5;2.75;2.25;0.5;0.75;0.0;0.5;1.0;1.25;2.0;1.25;0.75;3.25;0.25;1.75;-0.233398;0.011719;0.972656;-0.91;-1.54;1.12;180.0;0.003563;-0.052089
0.72;2.25;2.75;2.5;3.0;0.5;0.5;0.0;0.25;1.5;2.25;3.0;3.5;1.75;5.75;0.0;0.75;-0.245117;0.055664;0.955566;-1.89;0.63;-0.42;255.0;0.037742;-0.054317;1.5;1.5;2.5;2.25;0.75;0.75;0.0;0.5;1.25;1.25;2.0;1.25;0.75;3.0;0.25;1.5;-0.23877;0.01416;0.970215;-0.91;-1.47;1.12;178.0;0.00786;-0.050042
0.73;2.25;2.75;2.75;3.25;0.75;0.5;0.0;0.25;2.75;3.0;2.75;2.5;2.25;5.75;0.25;0.75;-0.249023;0.056152;0.959473;-1.96;0.56;-0.49;277.0;0.044524;-0.031931;1.75;1.5;2.5;2.25;0.75;0.75;0.0;0.25;1.5;1.25;2.25;1.0;0.75;3.0;0.0;1.25;-0.241211;0.008301;0.971191;-0.91;-1.54;1.12;176.0;-8e-05;-0.032506
0.74;2.5;2.75;2.5;2.75;0.75;0.75;0.0;0.25;2.5;3.25;3.0;2.5;1.75;5.75;0.0;1.0;-0.245605;0.061523;0.959961;-1.89;0.63;-0.42;271.0;0.045162;-0.028573;1.5;1.5;3.0;2.5;0.75;1.0;0.0;0.25;1.25;1.5;2.25;1.0;0.75;2.75;0.25;1.25;-0.23584;0.008789;0.975098;-0.84;-1.47;1.12;183.0;-0.007658;-0.042566
0.75;2.5;2.75;1.75;2.75;0.5;0.5;0.0;0.25;2.0;2.25;2.5;3.0;1.5;5.75;0.25;0.5;-0.252441;0.054688;0.961426;-1.82;0.77;-0.35;243.0;0.044917;-0.038469;1.5;1.5;2.5;2.25;0.5;0.75;0.0;0.5;1.0;1.5;2.25;1.25;0.75;2.75;0.25;1.5;-0.237793;0.012695;0.976074;-0.84;-1.47;1.12;175.0;0.0072;-0.058298
0.76;2.25;2.25;1.75;2.75;0.5;0.75;0.0;0.25;2.0;2.0;2.75;2.75;1.75;5.75;0.25;0.5;-0.249512;0.057129;0.960449;-1.89;0.63;-0.49;239.0;0.053849;-0.042488;1.75;1.75;2.75;2.0;0.5;0.75;0.0;0.5;1.25;1.5;2.0;1.25;1.0;2.75;0.25;1.25;-0.239258;0.013184;0.970215;-0.84;-1.54;1.19;181.0;-0.001475;-0.050161
0.77;2.25;2.75;2.0;2.75;0.5;0.75;0.0;0.0;2.0;2.75;3.0;2.5;2.25;5.75;0.0;0.5;-0.247559;0.056641;0.960938;-1.96;0.7;-0.42;250.0;0.04806;-0.04015;1.75;1.75;2.75;1.75;0.5;0.75;0.0;0.25;1.25;1.5;2.25;1.75;0.5;3.25;0.25;1.25;-0.233398;0.013672;0.974121;-0.84;-1.4;1.19;182.0;0.014857;-0.035952
0.78;2.5;2.75;2.0;3.0;0.5;0.5;0.0;0.25;1.75;2.75;2.75;3.0;2.25;5.75;0.5;0.5;-0.246582;0.048828;0.95752;-1.96;0.7;-0.49;260.0;0.047503;-0.050551;1.75;1.75;2.75;2.5;0.75;0.75;0.0;0.25;1.25;1.5;2.25;1.75;0.5;3.5;0.0;1.5;-0.23584;0.010254;0.974121;-0.7;-1.4;1.19;192.0;0.003567;-0.0407
0.79;2.75;2.75;2.5;2.75;0.75;0.5;0.0;0.25;1.75;2.0;2.75;3.5;1.75;5.75;0.0;0.5;-0.243164;0.050781;0.957031;-1.96;0.7;-0.42;256.0;0.029303;-0.044798;1.75;2.0;3.0;2.5;0.5;1.0;0.0;0.5;1.75;1.5;2.0;1.75;0.5;3.25;0.0;1.0;-0.240234;0.012207;0.975586;-0.7;-1.47;1.05;198.0;-0.007519;-0.039145
0.8;2.0;3.0;2.75;2.75;0.5;0.75;0.0;0.25;1.75;2.0;2.75;3.25;1.75;5.75;0.0;0.75;-0.244629;0.051758;0.95752;-2.03;0.84;-0.49;253.0;0.034007;-0.050475;2.25;1.5;2.75;2.25;0.5;1.0;0.0;0.25;1.25;1.75;2.0;1.75;0.5;3.0;0.0;1.0;-0.234863;0.010742;0.973633;-0.7;-1.54;1.05;186.0;-0.010408;-0.036478
0.81;2.75;3.0;2.75;2.75;0.5;0.75;0.0;0.0;1.75;2.25;3.0;2.75;1.75;5.75;0.0;1.0;-0.241211;0.043945;0.962402;-1.89;0.7;-0.35;257.0;0.025388;-0.038786;2.25;1.5;2.75;2.25;0.75;1.25;0.0;0.25;1.25;1.5;2.0;1.75;0.75;2.75;0.0;1.5;-0.237305;0.010742;0.973633;-0.56;-1.47;0.98;191.0;-0.014134;-0.048701
0.82;2.75;2.75;2.5;3.25;0.5;0.5;0.0;0.0;1.5;2.0;2.5;3.0;2.25;5.75;0.25;0.5;-0.245605;0.049805;0.967773;-1.96;0.7;-0.42;252.0;0.023525;-0.049522;2.25;1.75;3.0;2.5;0.75;1.0;0.0;0.5;1.25;1.5;1.75;1.75;0.75;3.0;0.0;1.5;-0.239258;0.01416;0.976562;-0.7;-1.47;1.19;198.0;-0.021367;-0.050398
0.83;2.25;3.0;2.5;3.25;0.5;0.5;0.0;0.25;2.5;3.25;2.75;3.0;2.25;5.75;0.25;0.75;-0.246582;0.052734;0.958984;-2.03;0.49;-0.35;278.0;0.047386;-0.041116;1.75;1.75;3.0;2.5;0.5;1.0;0.0;0.5;1.25;1.25;1.75;1.75;1.0;3.0;0.0;1.5;-0.237305;0.012695;0.974121;-0.49;-1.47;1.19;191.0;-0.012599;-0.060618
0.84;2.25;3.25;2.5;3.0;0.5;0.0;0.0;0.25;2.0;2.5;2.5;2.75;1.75;5.75;0.25;0.75;-0.246582;0.054688;0.963867;-2.1;0.7;-0.42;253.0;0.036249;-0.036795;1.75;1.75;3.0;2.25;0.5;1.0;0.0;0.5;1.25;1.25;2.0;1.75;1.0;3.0;0.25;1.5;-0.239258;0.016602;0.972168;-0.7;-1.54;1.26;193.0;-0.001793;-0.059539
0.85;2.75;2.75;2.5;2.75;0.5;0.25;0.0;0.0;1.5;2.25;2.5;3.0;2.25;5.75;0.0;0.75;-0.246094;0.050781;0.956055;-2.03;0.63;-0.49;246.0;0.03098;-0.044119;2.25;1.5;2.75;2.25;0.25;0.75;0.0;0.5;1.25;1.5;1.75;1.75;0.75;2.75;0.0;1.0;-0.237793;0.012207;0.975098;-0.56;-1.4;1.33;180.0;-0.015461;-0.047708
0.86;2.25;2.75;2.5;3.0;0.5;0.25;0.0;0.0;1.5;2.25;2.75;3.0;1.75;5.75;0.0;0.5;-0.245605;0.052734;0.956055;-1.89;0.56;-0.42;241.0;0.033841;-0.041607;1.75;1.5;2.25;2.25;0.0;0.75;0.0;0.5;1.25;1.5;2.25;1.75;0.75;3.0;0.0;1.0;-0.242188;0.010254;0.974609;-0.63;-1.47;1.26;175.0;0.012662;-0.056068
0.87;2.5;3.0;2.5;3.75;0.75;0.5;0.0;0.25;1.5;2.5;2.75;3.25;1.75;5.75;0.0;0.5;-0.247559;0.053711;0.960449;-1.96;0.63;-0.49;265.0;0.018242;-0.052607;1.75;1.75;2.5;2.25;0.25;1.0;0.0;0.5;1.25;1.5;1.5;1.25;0.75;2.75;0.25;1.5;-0.234375;0.01416;0.97168;-0.7;-1.47;1.12;176.0;-0.007136;-0.054423
0.88;2.5;3.0;2.5;3.25;0.75;0.5;0.0;0.25;1.5;2.25;2.75;3.25;2.25;5.75;0.0;0.75;-0.248047;0.053223;0.961914;-1.96;0.63;-0.42;263.0;0.025352;-0.057417;1.75;2.0;3.0;2.0;0.5;0.75;0.0;0.5;1.5;1.75;1.5;1.75;1.0;3.0;0.0;1.25;-0.23291;0.01416;0.974609;-0.63;-1.61;1.26;190.0;-0.003683;-0.0453
0.89;2.0;3.0;2.5;3.25;0.75;0.25;0.0;0.25;1.5;2.5;2.75;3.25;1.75;5.75;0.25;1.0;-0.249023;0.055176;0.964844;-2.03;0.7;-0.49;258.0;0.038651;-0.052884;2.25;1.75;2.75;2.0;0.75;0.75;0.0;0.5;1.25;1.75;2.0;1.75;1.0;2.75;0.0;1.25;-0.23877;0.008789;0.979492;-0.56;-1.47;1.33;192.0;-0.009182;-0.049225
0.9;1.75;2.75;2.75;3.0;0.75;0.25;0.0;0.25;1.75;1.75;3.0;3.25;1.75;6.0;0.0;1.0;-0.249512;0.052734;0.966309;-1.89;0.56;-0.49;252.0;0.044257;-0.048644;2.25;1.5;2.75;2.25;0.75;1.0;0.0;0.25;1.25;2.0;2.0;1.75;1.0;3.25;0.0;1.25;-0.238281;0.010742;0.975586;-0.63;-1.61;1.19;197.0;0.00038;-0.041813
0.91;2.5;2.0;2.75;3.0;0.5;0.5;0.0;0.25;1.25;1.75;2.75;3.25;1.5;5.75;0.25;1.0;-0.249023;0.054688;0.958496;-1.96;0.63;-0.49;243.0;0.036248;-0.050306;1.75;1.5;2.75;2.5;0.5;1.0;0.0;0.25;1.25;1.25;2.0;2.25;1.0;3.0;0.25;1.25;-0.241211;0.016602;0.976562;-0.77;-1.61;1.19;191.0;0.005032;-0.060679
0.92;2.0;2.25;2.5;2.75;0.75;0.5;0.0;0.25;0.75;2.25;2.75;2.25;1.5;5.75;0.0;0.75;-0.24707;0.05957;0.960449;-1.89;0.42;-0.42;225.0;0.03218;-0.047295;2.25;1.75;3.0;2.5;0.5;1.0;0.0;0.5;1.25;1.25;2.0;1.75;1.0;2.25;0.25;1.25;-0.238281;0.014648;0.976562;-0.7;-1.54;1.26;193.0;-0.027888;-0.062819
0.93;2.0;2.25;2.0;3.0;0.75;0.5;0.0;0.25;1.25;2.25;2.5;2.75;1.5;5.75;0.0;0.75;-0.249512;0.047852;0.959473;-1.89;0.42;-0.49;231.0;0.041876;-0.048298;2.25;1.5;3.0;2.5;0.75;1.0;0.0;0.5;1.5;1.5;1.75;1.75;0.75;2.25;0.5;1.25;-0.237305;0.011719;0.979492;-0.77;-1.54;1.26;197.0;-0.018051;-0.050155
0.94;2.25;2.75;2.75;3.0;0.5;0.5;0.0;0.25;1.5;2.25;2.75;2.75;1.5;5.75;0.25;1.0;-0.247559;0.052246;0.960449;-1.96;0.56;-0.42;250.0;0.03253;-0.044471;2.5;1.75;3.0;2.5;0.75;1.0;0.0;0.5;1.5;1.5;1.75;1.75;0.75;2.75;0.0;1.25;-0.233398;0.013672;0.978027;-0.7;-1.54;1.26;200.0;-0.027782;-0.044752
0.95;2.25;3.0;2.75;3.0;0.5;0.75;0.0;0.25;1.25;2.25;2.75;3.0;1.5;5.75;0.25;1.0;-0.250977;0.051758;0.958984;-1.96;0.56;-0.35;253.0;0.02657;-0.053084;2.5;1.75;2.75;2.25;0.75;1.0;0.0;0.25;1.75;1.25;2.0;1.0;0.75;2.5;0.0;1.0;-0.238281;0.01416;0.975098;-0.63;-1.54;1.19;185.0;-0.032886;-0.027149
0.96;2.25;3.0;2.75;3.25;0.75;0.5;0.0;0.25;1.5;2.25;2.75;3.0;2.25;5.75;0.25;0.75;-0.248047;0.052734;0.958984;-2.03;0.56;-0.49;263.0;0.027986;-0.05569;2.25;1.75;2.75;2.25;0.75;1.0;0.0;0.25;1.75;1.25;1.75;1.0;0.5;3.0;0.0;1.0;-0.232422;0.014648;0.975586;-0.7;-1.4;1.19;182.0;-0.024887;-0.019308
0.97;1.75;3.0;2.75;3.0;0.25;0.25;0.0;0.25;1.5;2.5;2.75;2.5;2.25;5.75;0.25;0.25;-0.238281;0.054688;0.963867;-1.82;0.7;-0.42;245.0;0.038661;-0.049381;2.75;1.75;2.75;2.75;0.75;1.0;0.0;0.25;1.75;1.5;2.25;1.25;0.75;3.0;0.0;1.25;-0.239258;0.014648;0.976074;-0.63;-1.47;1.19;203.0;-0.02417;-0.031075
0.98;2.25;2.75;2.75;3.0;0.5;0.5;0.0;0.25;0.75;2.75;2.75;2.75;1.75;5.75;0.0;0.5;-0.247559;0.055664;0.966309;-1.82;0.56;-0.42;243.0;0.023222;-0.05357;2.25;1.75;2.75;2.5;0.75;1.0;0.0;0.25;1.5;0.5;2.0;1.25;0.75;2.75;0.25;1.5;-0.234375;0.018555;0.970703;-0.63;-1.4;1.26;184.0;-0.028288;-0.044355
0.99;2.75;3.0;2.75;2.75;0.75;0.25;0.0;0.25;0.75;2.25;2.75;2.75;1.75;5.75;0.0;0.75;-0.239746;0.053711;0.958984;-1.82;0.63;-0.42;244.0;0.013048;-0.050151;1.75;1.75;2.75;2.5;0.75;1.25;0.0;0.5;1.0;0.5;1.5;0.75;1.0;3.0;0.0;0.75;-0.234375;0.009766;0.976562;-0.7;-1.54;1.12;169.0;-0.048808;-0.055981
1.0;2.5;2.75;2.0;3.25;0.75;0.25;0.0;0.25;1.0;2.25;2.75;2.75;1.75;5.75;0.0;0.75;-0.24707;0.057617;0.958008;-1.82;0.84;-0.49;240.0;0.025405;-0.054364;1.75;1.75;2.75;2.75;1.0;1.0;0.0;0.5;1.25;1.0;1.5;1.0;1.0;2.25;0.0;0.75;-0.233887;0.016113;0.970703;-0.7;-1.26;1.19;176.0;-0.050547;-0.055884
1.01;1.75;2.75;2.5;3.25;0.5;0.5;0.0;0.25;1.0;2.0;2.75;3.25;1.75;5.75;0.25;0.75;-0.243164;0.053711;0.959961;-1.82;0.63;-0.42;243.0;0.035914;-0.064817;2.5;1.75;2.75;2.75;0.5;1.0;0.0;0.25;1.25;1.0;1.5;1.0;0.75;2.5;0.25;0.75;-0.232422;0.009277;0.973145;-0.7;-1.4;1.19;176.0;-0.054114;-0.040555
1.02;2.0;2.75;2.0;2.75;0.5;0.5;0.0;0.25;1.25;2.0;2.75;3.25;1.75;5.75;0.25;0.75;-0.246582;0.049805;0.963379;-1.82;0.56;-0.42;238.0;0.046592;-0.059282;1.5;1.75;2.75;2.5;0.5;1.0;0.0;0.25;1.0;1.25;2.0;1.0;0.75;2.75;0.25;1.75;-0.23584;0.01416;0.972168;-0.7;-1.33;1.19;176.0;-0.012474;-0.055916
1.03;2.5;2.0;2.0;3.0;0.5;0.25;0.0;0.25;1.5;2.5;2.75;3.25;1.5;5.75;0.0;0.75;-0.24707;0.057617;0.959473;-1.75;0.63;-0.42;240.0;0.049941;-0.04391;2.25;1.75;3.0;2.5;0.75;1.0;0.0;0.5;1.0;1.25;2.0;0.75;0.75;2.75;0.0;1.25;-0.240234;0.009766;0.973633;-0.77;-1.33;1.19;183.0;-0.043366;-0.046144
1.04;2.25;2.25;2.5;2.75;0.5;0.25;0.0;0.25;1.5;2.25;3.0;2.75;1.75;5.75;0.0;0.75;-0.245117;0.051758;0.959473;-1.96;0.7;-0.49;240.0;0.045255;-0.042135;1.75;1.75;3.0;2.0;0.5;1.0;0.0;0.25;1.25;1.25;1.75;0.75;0.5;3.0;0.0;1.0;-0.234863;0.012695;0.978027;-0.77;-1.33;1.05;168.0;-0.02575;-0.025329
1.05;2.0;2.75;2.5;2.75;0.75;0.5;0.0;0.5;1.5;1.75;3.0;2.5;1.75;5.75;0.0;1.0;-0.242676;0.058105;0.960449;-1.96;0.77;-0.35;244.0;0.034261;-0.052051;2.25;2.0;2.75;2.0;0.25;1.0;0.0;0.25;1.25;1.25;2.0;1.25;0.25;3.25;0.0;1.0;-0.238281;0.019043;0.979004;-0.84;-1.47;1.19;176.0;-0.023407;-0.027516
1.06;2.5;3.0;2.5;2.75;0.75;0.5;0.0;0.25;1.5;2.25;2.75;2.75;1.75;5.75;0.0;1.0;-0.243164;0.05127;0.956543;-1.82;0.49;-0.42;251.0;0.027278;-0.045424;1.5;1.75;2.75;2.5;0.5;1.25;0.0;0.5;1.5;1.25;2.25;1.75;0.5;3.0;0.25;1.0;-0.233887;0.01416;0.97998;-0.7;-1.4;1.12;192.0;-0.000571;-0.052913
1.07;3.0;2.25;2.5;2.75;0.5;0.75;0.0;0.25;1.5;0.75;3.0;2.75;1.5;5.75;0.0;0.5;-0.249512;0.057129;0.964355;-1.89;0.49;-0.42;235.0;0.015624;-0.043723;1.25;1.75;2.75;2.25;0.5;0.5;0.0;0.25;1.0;1.25;1.5;1.25;0.75;3.25;0.0;1.25;-0.23584;0.009766;0.977539;-0.7;-1.4;1.26;164.0;-0.004561;-0.042236
1.08;2.0;2.25;2.75;2.75;0.25;0.75;0.0;0.25;1.5;0.75;2.75;2.25;1.5;5.5;0.25;0.5;-0.250977;0.046875;0.960938;-1.96;0.56;-0.49;220.0;0.025367;-0.04583;1.5;1.75;2.75;2.25;0.5;0.5;0.0;0.25;1.0;1.5;1.5;1.25;1.0;3.0;0.0;1.0;-0.237305;0.009766;0.972168;-0.7;-1.4;1.19;167.0;-0.011611;-0.043999
1.09;1.5;2.75;2.75;2.75;0.5;0.75;0.0;0.25;1.5;1.75;3.0;3.0;2.25;5.5;0.25;0.75;-0.239258;0.052246;0.959961;-1.75;0.49;-0.42;246.0;0.043714;-0.063475;2.5;1.75;2.75;2.25;0.75;0.75;0.0;0.25;1.0;1.5;1.75;1.25;0.5;2.75;0.0;1.25;-0.23291;0.010254;0.976562;-0.77;-1.47;1.19;178.0;-0.036635;-0.034361
1.1;2.5;3.0;2.75;3.25;0.5;0.75;0.0;0.0;2.0;1.0;2.75;3.0;2.25;5.75;0.0;0.75;-0.245117;0.050293;0.959473;-1.89;0.63;-0.49;254.0;0.017096;-0.050863;1.75;2.25;2.25;2.25;0.5;0.75;0.0;0.25;1.0;1.25;1.5;1.25;0.5;2.5;0.25;1.25;-0.234863;0.008301;0.981445;-0.84;-1.47;1.26;164.0;-0.029373;-0.051132
1.11;3.0;3.0;2.0;3.0;0.75;0.5;0.0;0.25;2.0;0.75;2.75;3.0;2.25;5.75;0.0;0.75;-0.24707;0.054199;0.962402;-1.82;0.63;-0.49;250.0;0.018449;-0.052706;1.5;2.0;2.75;2.25;0.5;0.75;0.0;0.25;1.25;1.25;2.0;1.75;0.5;2.25;0.25;1.0;-0.239746;0.01123;0.971191;-0.7;-1.47;1.19;174.0;-0.016908;-0.051427
1.12;2.25;2.75;2.5;3.0;1.0;0.5;0.0;0.25;1.5;1.25;2.75;3.5;1.75;5.75;0.0;0.75;-0.247559;0.053223;0.967285;-1.82;0.56;-0.35;248.0;0.025959;-0.055777;1.5;1.75;2.75;2.5;0.25;0.75;0.0;0.25;1.5;1.75;2.25;1.75;0.75;2.75;0.25;1.25;-0.236816;0.01416;0.971191;-0.63;-1.47;1.19;187.0;0.010357;-0.048313
1.13;2.25;3.0;2.5;3.75;0.5;0.75;0.0;0.25;2.5;1.5;2.75;3.5;1.75;5.5;0.0;0.75;-0.251953;0.054199;0.962402;-1.89;0.7;-0.35;266.0;0.02437;-0.051835;2.25;1.5;2.75;2.25;0.5;0.75;0.0;0.5;1.0;1.75;1.25;1.75;0.75;3.0;0.0;1.5;-0.236328;0.016602;0.975586;-0.7;-1.4;1.19;182.0;-0.014742;-0.049336
1.14;2.25;3.0;2.0;3.0;0.5;0.75;0.0;0.25;1.5;2.0;3.0;3.0;1.75;5.75;0.25;0.5;-0.244629;0.052734;0.964355;-1.82;0.56;-0.42;249.0;0.035201;-0.05568;2.25;1.75;2.75;2.25;0.25;1.0;0.0;0.5;1.25;1.5;1.25;1.75;0.75;3.25;0.0;1.25;-0.234863;0.008301;0.972168;-0.7;-1.33;1.12;185.0;-0.016416;-0.047379
1.15;2.5;3.25;2.0;2.75;0.5;0.75;0.0;0.25;1.0;1.25;2.75;3.0;2.25;5.75;0.0;0.25;-0.247559;0.055664;0.954102;-1.89;0.77;-0.42;237.0;0.015114;-0.068614;2.25;1.75;3.0;2.5;0.25;1.0;0.0;0.25;1.5;1.5;2.0;1.75;0.5;3.0;0.25;1.25;-0.235352;0.01416;0.976074;-0.7;-1.4;1.05;194.0;-0.011513;-0.038534
1.16;2.25;2.75;2.75;3.25;0.5;0.75;0.0;0.5;1.25;1.25;3.0;2.75;2.25;5.75;0.25;0.5;-0.250977;0.049805;0.960449;-1.75;0.63;-0.35;251.0;0.019431;-0.067106;2.25;2.0;2.5;2.5;0.5;1.25;0.0;0.25;1.25;1.75;1.75;1.75;0.5;2.75;0.0;1.5;-0.239258;0.013184;0.978027;-0.56;-1.4;1.19;190.0;-0.022762;-0.050179
1.17;2.0;3.0;2.75;3.75;0.75;0.75;0.0;0.25;1.0;1.5;2.75;3.25;2.25;5.75;0.25;0.75;-0.242188;0.056152;0.95752;-1.89;0.63;-0.49;258.0;0.015702;-0.074106;2.5;2.0;2.5;2.5;0.25;1.0;0.0;0.25;1.0;1.5;2.0;1.75;1.0;2.5;0.0;1.5;-0.235352;0.013672;0.973145;-0.63;-1.4;1.12;187.0;-0.028963;-0.064095
1.18;2.25;2.75;1.75;3.0;0.75;0.75;0.0;0.0;1.0;1.75;2.75;3.5;1.75;5.75;0.0;1.0;-0.245605;0.058105;0.964844;-1.75;0.7;-0.42;238.0;0.035035;-0.065411;1.75;1.75;2.75;2.25;0.25;0.75;0.0;0.5;1.0;1.5;1.75;1.75;0.75;3.0;0.25;1.75;-0.240723;0.010742;0.97168;-0.7;-1.26;1.19;183.0;0.001843;-0.060719
1.19;3.0;2.25;2.0;2.75;0.75;0.75;0.0;0.25;1.25;2.0;2.75;3.25;1.5;5.75;0.0;0.75;-0.245605;0.052734;0.955566;-1.89;0.56;-0.42;244.0;0.030237;-0.049239;1.5;2.0;2.25;2.0;0.5;0.75;0.0;0.25;1.0;1.5;2.25;1.75;0.75;2.5;0.0;1.75;-0.235352;0.012207;0.979004;-0.63;-1.47;1.19;173.0;0.003864;-0.064242
1.2;2.5;2.25;2.0;2.75;0.5;0.75;0.0;0.0;0.75;2.25;2.5;3.25;1.75;5.75;0.0;0.75;-0.248047;0.055664;0.95459;-1.82;0.42;-0.49;230.0;0.036385;-0.057867;1.5;1.5;2.75;2.25;0.5;1.0;0.0;0.0;1.0;1.5;1.25;1.75;0.75;2.5;0.0;1.5;-0.236328;0.009766;0.973145;-0.7;-1.47;1.26;165.0;-0.014086;-0.051872
1.21;3.0;2.75;2.0;3.0;0.5;0.75;0.0;0.25;1.0;2.25;2.75;2.75;2.25;5.75;0.25;0.75;-0.246094;0.054688;0.959961;-1.96;0.42;-0.56;250.0;0.024508;-0.061229;2.5;1.0;2.75;2.0;0.0;1.0;0.0;0.25;1.25;1.0;1.0;1.75;0.75;3.0;0.25;1.25;-0.237305;0.010742;0.976074;-0.84;-1.54;1.12;167.0;-0.011322;-0.038642
1.22;2.0;2.75;2.75;3.0;0.75;0.5;0.0;0.25;2.25;2.25;2.5;2.5;2.25;5.75;0.25;0.75;-0.244629;0.054199;0.962891;-1.89;0.42;-0.35;258.0;0.040237;-0.039611;2.5;1.5;2.5;2.5;0.25;1.25;0.0;0.5;1.25;1.0;1.5;1.75;0.75;3.25;0.25;1.25;-0.22998;0.015137;0.976074;-0.84;-1.47;1.26;187.0;-0.016763;-0.054769
1.23;2.25;2.75;2.0;3.25;0.75;0.5;0.0;0.25;1.0;2.5;2.75;3.0;1.5;5.75;0.25;1.0;-0.243652;0.051758;0.960449;-1.82;0.42;-0.35;246.0;0.034995;-0.057362;1.75;1.75;3.0;2.5;0.5;1.0;0.0;0.5;1.5;1.25;1.5;1.75;1.0;3.25;0.0;1.25;-0.236816;0.017578;0.978027;-0.7;-1.47;1.26;192.0;-0.009742;-0.051476
1.24;2.5;2.75;2.0;3.0;0.75;0.75;0.0;0.0;0.75;2.25;2.75;3.25;2.25;5.75;0.25;1.0;-0.246582;0.052246;0.954102;-1.82;0.49;-0.35;248.0;0.033321;-0.067877;1.5;1.5;2.75;2.5;0.5;1.0;0.0;0.25;1.5;1.25;1.5;1.75;0.75;2.75;0.25;1.25;-0.236816;0.012695;0.970703;-0.7;-1.47;1.26;179.0;-0.002361;-0.048741
1.25;1.75;2.75;2.5;3.0;0.75;0.5;0.0;0.25;1.0;2.0;2.75;2.75;1.5;5.75;0.0;1.0;-0.249023;0.050293;0.959473;-1.89;0.7;-0.42;235.0;0.031307;-0.05565;2.25;1.75;2.25;2.5;0.5;1.0;0.0;0.5;1.5;1.25;1.5;1.75;0.75;3.0;0.25;1.25;-0.237793;0.020996;0.975098;-0.7;-1.47;1.19;188.0;-0.010129;-0.051569
1.26;1.75;2.75;2.5;3.0;0.75;0.5;0.0;0.25;1.25;2.25;2.75;2.75;1.5;5.75;0.0;1.0;-0.249023;0.058105;0.95752;-1.89;0.77;-0.49;240.0;0.035765;-0.050808;2.25;1.75;2.75;2.75;0.25;1.0;0.0;0.5;1.5;1.0;1.5;1.75;0.75;3.0;0.0;1.0;-0.234863;0.012207;0.974121;-0.7;-1.4;1.19;187.0;-0.028634;-0.050939
1.27;1.75;2.75;2.5;3.0;0.5;0.5;0.0;0.0;1.25;2.25;2.75;2.25;1.5;5.75;0.25;1.25;-0.241699;0.052734;0.959961;-1.82;0.56;-0.49;234.0;0.039861;-0.044234;1.5;1.5;2.75;2.5;0.25;1.25;0.0;0.5;1.25;1.25;2.0;1.25;0.5;3.0;0.0;1.25;-0.23877;0.013184;0.978516;-0.63;-1.33;1.19;177.0;-0.009174;-0.052713
1.28;2.0;2.75;2.0;2.75;0.5;0.5;0.0;0.25;1.5;2.0;2.75;3.0;1.75;5.75;0.25;1.0;-0.24707;0.057617;0.963867;-1.96;0.77;-0.56;240.0;0.048997;-0.054517;1.5;2.0;3.0;3.0;0.5;0.75;0.0;0.25;1.25;1.0;2.25;1.75;0.75;3.0;0.25;1.5;-0.239746;0.015137;0.975586;-0.77;-1.33;1.12;192.0;-0.011483;-0.058607
1.29;2.25;3.0;2.0;2.75;0.25;0.5;0.0;0.0;1.5;2.25;2.75;3.5;1.5;5.5;0.25;1.25;-0.245117;0.05127;0.95752;-1.75;0.7;-0.42;243.0;0.046203;-0.053811;2.25;1.75;3.0;2.5;0.0;0.75;0.0;0.0;1.5;1.0;2.5;1.75;0.75;2.5;0.0;1.25;-0.236328;0.012695;0.970703;-0.7;-1.33;1.19;182.0;-0.020218;-0.042986
1.3;2.25;3.0;2.5;2.75;0.5;0.5;0.0;0.0;1.25;2.5;2.5;3.75;1.75;5.75;0.0;1.0;-0.245117;0.054688;0.959961;-1.89;0.7;-0.49;250.0;0.036917;-0.054135;2.5;1.5;3.0;2.25;0.0;0.75;0.0;0.25;1.25;1.25;2.25;1.25;0.75;2.75;0.0;1.25;-0.239746;0.008789;0.973145;-0.7;-1.4;1.19;178.0;-0.02241;-0.03788
1.31;2.5;3.0;2.5;2.75;0.25;0.75;0.0;0.25;1.5;1.75;2.75;3.25;1.75;5.75;0.0;0.75;-0.247559;0.051758;0.960449;-1.89;0.7;-0.49;248.0;0.026391;-0.05464;2.25;1.75;2.75;2.25;0.25;0.75;0.0;0.5;1.25;0.75;1.5;1.25;0.75;3.0;0.25;1.5;-0.236816;0.013184;0.975098;-0.63;-1.33;1.19;175.0;-0.023414;-0.047673
1.32;2.0;3.25;2.5;2.75;0.25;0.75;0.0;0.25;1.5;2.0;2.75;2.5;1.75;5.75;0.25;0.75;-0.25;0.050293;0.965332;-1.75;0.63;-0.42;243.0;0.030985;-0.051053;2.25;1.5;3.0;1.75;0.25;1.0;0.0;0.5;1.25;1.0;1.5;1.25;0.75;3.0;0.5;1.5;-0.23584;0.009766;0.975098;-0.7;-1.47;1.19;178.0;-0.008573;-0.041964
1.33;2.0;3.25;2.5;3.0;0.25;0.75;0.0;0.0;0.75;2.0;2.75;3.0;1.75;5.75;0.25;0.75;-0.246094;0.056641;0.968262;-1.75;0.56;-0.49;238.0;0.024007;-0.063934;2.25;1.75;3.0;2.0;0.25;1.0;0.0;0.25;1.25;1.25;1.5;1.25;0.75;3.0;0.25;1.25;-0.236816;0.013184;0.979004;-0.7;-1.4;1.05;178.0;-0.021045;-0.035863
1.34;2.5;3.0;2.0;3.0;0.5;0.75;0.0;0.0;2.0;2.0;2.75;3.25;1.5;5.75;0.25;0.75;-0.241211;0.052246;0.960938;-1.68;0.56;-0.42;252.0;0.037187;-0.042675;2.25;1.5;3.0;2.25;0.0;1.0;0.0;0.5;1.25;1.0;1.75;1.75;0.75;3.0;0.0;1.0;-0.236328;0.013672;0.975098;-0.63;-1.33;1.12;180.0;-0.020965;-0.050626
1.35;3.0;3.0;2.5;3.0;0.25;0.75;0.0;0.25;1.75;2.25;2.75;3.25;2.25;5.75;0.0;0.75;-0.24707;0.053711;0.959473;-1.61;0.49;-0.49;265.0;0.024529;-0.053731;1.75;1.5;3.0;2.25;0.0;1.0;0.0;0.5;1.25;1.0;1.75;1.75;1.0;2.5;0.25;1.0;-0.239746;0.012695;0.973145;-0.63;-1.33;1.19;176.0;-0.01301;-0.063868
1.36;2.25;3.0;2.5;3.25;0.25;0.75;0.0;0.25;1.75;2.5;2.75;3.5;1.75;5.75;0.0;0.75;-0.242676;0.054688;0.964844;-1.47;0.21;-0.35;262.0;0.033724;-0.054614;1.5;1.5;3.0;2.25;0.25;0.75;0.0;0.25;1.5;1.25;1.75;1.25;1.0;2.75;0.25;1.0;-0.232422;0.01123;0.979004;-0.63;-1.4;1.19;173.0;-0.001588;-0.040226
1.37;1.75;3.0;2.75;3.75;0.5;0.75;0.0;0.25;1.25;2.75;2.75;3.25;1.75;5.75;0.0;0.75;-0.244141;0.053223;0.966309;-1.61;0.35;-0.42;261.0;0.026827;-0.061888;2.5;2.0;2.25;2.25;0.25;0.5;0.0;0.25;1.25;1.0;1.25;0.75;1.0;3.0;0.25;1.25;-0.23584;0.013184;0.972656;-0.63;-1.33;1.26;166.0;-0.031088;-0.034919
1.38;2.25;2.75;2.75;3.25;0.5;0.75;0.0;0.25;1.0;2.75;3.0;3.0;2.25;5.75;0.0;0.75;-0.246094;0.056152;0.958984;-1.47;0.21;-0.28;260.0;0.028234;-0.063049;1.5;1.5;2.25;2.25;0.5;0.5;0.0;0.5;1.25;1.0;1.25;1.0;1.0;2.75;0.0;1.0;-0.239746;0.012695;0.976562;-0.49;-1.19;1.12;156.0;-0.012676;-0.048977
1.39;2.5;3.0;2.0;3.75;0.5;0.75;0.0;0.25;1.25;2.75;3.0;3.25;2.25;5.75;0.0;1.0;-0.246582;0.052734;0.963379;-1.61;0.35;-0.35;267.0;0.029063;-0.068708;1.5;1.5;2.25;2.0;0.25;0.75;0.0;0.25;1.0;1.25;1.75;1.75;1.0;2.0;0.0;1.5;-0.23291;0.012695;0.978516;-0.49;-1.19;1.05;157.0;-0.003392;-0.072236
1.4;2.25;3.0;3.0;3.75;0.5;0.75;0.0;0.25;1.25;2.25;3.5;4.0;2.5;5.75;0.25;1.25;-0.247559;0.052734;0.963379;-1.47;0.35;-0.21;287.0;0.031805;-0.076482;1.5;2.0;2.25;2.25;0.25;1.0;0.0;0.25;1.0;1.25;2.0;1.25;1.0;2.25;0.25;1.25;-0.236328;0.012695;0.972656;-0.49;-1.26;1.12;166.0;-0.014042;-0.069683
1.41;2.25;3.0;2.5;3.75;0.5;0.75;0.0;0.25;2.0;2.25;3.75;3.75;2.25;5.75;0.25;1.0;-0.246582;0.056152;0.961426;-1.4;0.28;-0.28;287.0;0.041007;-0.064345;2.25;1.75;2.25;1.75;0.25;0.5;0.0;0.0;1.0;1.25;2.0;1.25;0.75;2.5;0.0;1.0;-0.235352;0.01123;0.971191;-0.35;-1.12;1.19;155.0;-0.019262;-0.034428
1.42;2.5;3.0;2.75;3.75;0.5;1.0;0.0;0.25;1.5;3.0;3.0;3.5;2.25;5.75;0.25;1.0;-0.247559;0.055664;0.956543;-1.4;0.21;-0.28;286.0;0.028498;-0.064026;1.75;1.5;2.25;1.75;0.0;0.5;0.0;0.0;1.0;1.5;2.25;1.75;1.0;2.25;0.0;1.0;-0.239746;0.016602;0.977051;-0.42;-1.19;1.12;156.0;0.008693;-0.052871
1.43;2.5;3.0;2.5;3.75;0.5;1.0;0.0;0.5;2.75;4.5;2.75;3.75;2.25;5.75;0.25;1.0;-0.244629;0.05127;0.962891;-1.54;0.35;-0.42;314.0;0.048929;-0.049663;1.0;1.75;1.75;2.0;0.0;0.5;0.0;0.0;1.25;1.0;1.25;1.25;0.75;2.25;0.25;1.0;-0.23584;0.014648;0.972656;-0.42;-1.26;1.12;134.0;0.008191;-0.050112
1.44;2.25;3.25;2.5;3.75;0.5;1.0;0.0;0.5;2.25;2.75;3.75;3.75;2.5;5.75;0.25;1.0;-0.25;0.057129;0.962402;-1.54;0.49;-0.35;303.0;0.041682;-0.067492;1.0;1.5;1.75;1.75;0.25;0.5;0.0;0.25;1.25;1.0;1.25;1.25;0.75;2.5;0.25;1.0;-0.239258;0.016113;0.972656;-0.49;-1.12;1.19;137.0;0.021658;-0.048638
1.45;2.25;3.0;2.75;3.25;0.75;1.0;0.0;0.25;1.75;2.75;3.5;3.75;2.5;5.75;0.25;0.75;-0.244629;0.055664;0.961426;-1.61;0.49;-0.42;289.0;0.04002;-0.063619;1.25;1.25;1.75;1.25;0.0;0.5;0.0;0.25;1.25;1.25;1.5;1.75;0.75;2.5;0.0;1.0;-0.239258;0.018066;0.976562;-0.49;-1.26;1.19;137.0;0.040392;-0.047154
1.46;2.75;3.25;3.0;3.75;0.5;1.0;0.0;0.5;1.75;2.75;3.25;3.75;2.25;5.75;0.0;1.0;-0.248047;0.055664;0.961426;-1.68;0.42;-0.28;298.0;0.020267;-0.065508;1.25;1.0;1.25;1.5;0.0;0.25;0.0;0.25;1.0;1.0;1.5;1.75;0.75;2.75;0.0;1.0;-0.236816;0.011719;0.974609;-0.35;-1.19;1.12;128.0;0.053211;-0.055168
1.47;2.75;3.25;2.75;4.0;0.5;1.0;0.0;0.5;2.25;2.75;3.25;3.5;2.5;5.75;0.0;1.25;-0.242676;0.055176;0.961426;-1.75;0.49;-0.35;305.0;0.025202;-0.063437;1.25;1.0;1.5;1.5;0.25;0.25;0.0;0.25;1.0;0.75;1.5;1.75;0.75;3.0;0.0;1.0;-0.235352;0.014648;0.98291;-0.49;-1.12;0.98;132.0;0.046243;-0.049378
1.48;2.5;3.25;2.75;3.75;0.75;1.0;0.0;0.5;1.75;2.75;3.25;4.0;2.5;5.75;0.0;1.25;-0.242188;0.057129;0.954102;-1.89;0.56;-0.42;301.0;0.027992;-0.072035;1.25;1.0;1.75;1.5;0.25;0.5;0.0;0.25;1.25;1.0;1.75;1.25;0.75;2.25;0.25;1.25;-0.237793;0.011719;0.968262;-0.42;-1.26;1.19;137.0;0.036676;-0.047223
1.49;2.25;3.25;2.75;3.75;0.75;0.75;0.0;0.5;1.5;3.0;3.75;3.75;3.0;5.75;0.25;1.25;-0.252441;0.055664;0.963867;-2.03;0.49;-0.49;304.0;0.037886;-0.077744;1.25;1.0;1.75;1.75;0.0;0.0;0.0;0.5;1.25;1.0;1.75;1.25;0.75;2.25;0.0;1.0;-0.237793;0.007324;0.973145;-0.42;-1.12;1.05;132.0;0.030175;-0.049811
1.5;2.25;3.0;2.75;3.75;0.75;0.75;0.0;0.5;2.0;3.0;3.5;3.5;2.75;5.75;0.25;1.25;-0.243652;0.051758;0.961426;-2.03;0.49;-0.49;302.0;0.041337;-0.066585;1.5;1.0;1.75;1.5;0.0;0.0;0.0;0.25;1.25;1.25;1.75;1.75;0.75;2.25;0.0;1.0;-0.23584;0.018555;0.980469;-0.42;-1.12;1.12;136.0;0.038788;-0.042486
1.51;2.75;2.75;2.75;3.25;0.75;1.25;0.0;0.5;2.25;3.0;3.25;3.5;2.5;6.0;0.25;1.5;-0.246094;0.049805;0.961914;-2.1;0.35;-0.49;306.0;0.043178;-0.057887;1.5;1.5;2.25;1.75;0.0;0.25;0.0;0.25;1.25;0.75;2.0;1.75;0.75;2.25;0.0;1.0;-0.241699;0.019531;0.972168;-0.35;-1.33;1.26;147.0;0.00586;-0.052223
1.52;2.5;3.25;3.25;3.75;0.75;1.25;0.0;0.5;2.25;2.75;3.5;4.0;2.5;6.5;0.25;1.25;-0.245605;0.054199;0.960938;-2.1;0.7;-0.63;324.0;0.036678;-0.061478;1.25;1.5;2.5;1.75;0.25;0.25;0.0;0.25;0.75;0.5;1.25;1.25;0.5;2.75;0.0;1.25;-0.240234;0.016113;0.974121;-0.49;-1.33;1.12;133.0;-0.014465;-0.04494
1.53;2.5;3.25;3.0;3.75;1.5;1.0;0.0;0.5;2.0;3.5;3.75;4.25;2.5;6.0;0.5;1.25;-0.243652;0.047852;0.958008;-2.1;0.7;-0.49;333.0;0.039735;-0.063475;1.25;0.5;1.75;1.75;0.25;0.25;0.0;0.0;0.75;0.75;1.25;1.0;0.75;3.25;0.25;1.0;-0.236816;0.014648;0.972656;-0.56;-1.33;1.12;122.0;0.045342;-0.027339
1.54;2.5;3.0;2.5;4.0;1.0;0.75;0.0;0.5;2.0;3.0;3.0;4.25;2.25;6.5;0.25;1.25;-0.240723;0.050781;0.959961;-2.03;0.84;-0.56;310.0;0.042743;-0.062049;1.0;0.5;1.5;1.5;0.0;0.25;0.0;0.25;0.75;1.0;1.25;1.0;0.75;3.0;0.25;1.0;-0.231445;0.01416;0.978027;-0.49;-1.33;1.19;116.0;0.066299;-0.041485
1.55;2.5;2.75;2.75;3.75;0.75;0.75;0.0;0.5;2.0;3.0;3.75;4.25;2.5;6.75;0.25;1.25;-0.247559;0.058105;0.964355;-1.96;0.7;-0.56;316.0;0.053518;-0.062093;1.25;0.25;1.5;1.5;0.0;0.25;0.0;0.25;0.5;1.0;1.5;1.25;0.75;2.25;0.0;1.0;-0.234375;0.01123;0.97168;-0.49;-1.33;1.12;111.0;0.043118;-0.060575
1.56;2.5;3.0;2.5;3.25;1.0;1.0;0.0;0.5;2.0;3.0;3.25;4.25;2.25;6.0;0.25;1.0;-0.242676;0.050781;0.962891;-1.96;0.84;-0.49;303.0;0.044532;-0.062204;1.25;0.25;1.5;1.75;0.25;0.5;0.0;0.25;0.75;1.25;1.75;1.75;0.75;2.0;0.0;1.25;-0.237305;0.015625;0.976562;-0.49;-1.54;1.19;128.0;0.045086;-0.070457
1.57;2.0;3.0;2.75;3.25;1.0;1.0;0.0;0.5;2.25;3.25;3.5;3.5;2.5;6.5;0.0;1.25;-0.241699;0.054688;0.965332;-1.89;0.84;-0.49;306.0;0.053173;-0.055271;1.25;0.75;1.5;1.75;0.25;0.25;0.0;0.5;0.75;1.0;1.75;1.75;1.0;2.5;0.0;1.25;-0.237305;0.013672;0.975586;-0.49;-1.54;1.19;136.0;0.042232;-0.07816
1.58;2.25;3.0;2.5;3.25;0.5;1.0;0.0;0.5;2.25;3.5;3.5;3.75;2.5;6.5;0.25;1.25;-0.249512;0.053223;0.963867;-1.96;0.98;-0.56;308.0;0.060032;-0.058031;1.25;1.5;1.5;1.75;0.25;0.25;0.0;0.5;1.0;1.25;1.25;1.75;1.0;2.75;0.0;1.25;-0.233398;0.012695;0.98291;-0.56;-1.54;1.12;144.0;0.029966;-0.068537
1.59;2.25;3.25;2.5;3.25;0.5;0.75;0.0;0.5;2.0;2.5;3.5;4.0;2.5;6.5;0.25;1.25;-0.239258;0.055176;0.960938;-1.89;0.84;-0.49;298.0;0.052596;-0.065463;1.5;1.0;1.75;1.75;0.25;0.5;0.0;0.5;1.0;1.25;1.25;1.25;0.75;2.5;0.0;1.25;-0.239258;0.013672;0.972656;-0.56;-1.54;1.19;139.0;0.015234;-0.054562
1.6;2.25;2.75;2.5;3.75;0.75;0.75;0.0;0.25;2.25;2.75;3.5;4.0;2.5;6.5;0.0;1.0;-0.250488;0.046875;0.955566;-1.96;0.84;-0.42;300.0;0.052163;-0.057057;1.0;1.0;1.75;1.5;0.25;0.5;0.0;0.25;1.0;1.25;1.75;1.25;0.75;2.5;0.0;1.25;-0.239258;0.01416;0.981445;-0.49;-1.47;1.33;134.0;0.041505;-0.050932
1.61;2.0;2.75;2.5;3.0;1.0;1.0;0.0;0.75;2.5;3.25;3.75;3.5;2.5;6.75;0.25;1.0;-0.249512;0.056152;0.963379;-1.89;0.91;-0.42;310.0;0.066823;-0.053276;1.0;1.25;1.75;1.75;0.0;0.75;0.0;0.25;1.0;1.0;1.25;1.25;0.75;2.25;0.0;1.25;-0.240234;0.015137;0.977539;-0.63;-1.54;1.26;130.0;0.013755;-0.064485
1.62;2.0;2.75;2.75;3.0;0.5;1.0;0.0;0.5;1.75;3.25;3.75;3.75;2.5;6.75;0.25;1.25;-0.244629;0.051758;0.959473;-1.96;0.77;-0.49;300.0;0.064981;-0.062088;1.0;1.25;1.75;2.0;0.0;0.75;0.0;0.25;1.25;1.25;1.0;1.75;0.75;2.25;0.25;1.5;-0.235352;0.012695;0.969238;-0.63;-1.61;1.12;143.0;0.028685;-0.06725
1.63;2.5;3.0;2.0;2.75;0.5;0.75;0.0;0.25;1.75;3.0;3.75;3.75;2.5;6.5;0.25;0.75;-0.244629;0.05957;0.955078;-2.17;0.91;-0.56;285.0;0.062282;-0.057691;1.0;1.25;1.75;1.75;0.25;0.75;0.0;0.5;1.25;1.25;1.0;1.25;0.75;2.0;0.25;1.5;-0.241699;0.017578;0.973633;-0.7;-1.54;1.26;140.0;0.019816;-0.065845
1.64;1.5;2.25;2.5;3.0;0.5;0.75;0.0;0.5;2.25;3.0;3.25;4.0;2.5;6.5;0.5;1.0;-0.251953;0.055176;0.959473;-2.03;0.77;-0.56;288.0;0.083135;-0.058997;1.25;0.75;1.75;1.75;0.25;0.75;0.0;0.25;0.75;1.25;1.5;1.25;0.75;2.75;0.25;1.25;-0.238281;0.018555;0.973145;-0.77;-1.61;1.33;138.0;0.035743;-0.056337
1.65;1.5;2.25;2.5;3.0;0.75;0.75;0.0;0.25;2.5;3.0;3.25;4.0;2.25;6.5;0.25;0.5;-0.242676;0.048828;0.961914;-1.96;0.91;-0.49;283.0;0.078849;-0.046207;1.5;0.75;1.75;1.75;0.5;0.75;0.0;0.25;0.75;0.75;1.25;1.25;0.25;2.25;0.0;1.0;-0.241211;0.015137;0.976562;-0.7;-1.68;1.26;125.0;-0.009548;-0.046451
1.66;1.5;2.25;2.5;3.0;0.5;0.75;0.0;0.25;2.0;3.25;3.0;3.75;2.25;6.0;0.25;0.5;-0.246582;0.05957;0.960449;-1.96;0.77;-0.49;270.0;0.071598;-0.053112;1.25;1.0;1.75;1.75;0.5;0.5;0.0;0.5;1.0;0.75;1.5;1.75;0.25;2.25;0.0;1.0;-0.23291;0.014648;0.973145;-0.84;-1.68;1.19;135.0;0.009624;-0.057728
1.67;2.5;2.75;2.5;3.0;0.5;0.75;0.0;0.25;1.75;2.5;3.5;3.75;2.25;6.75;0.25;1.0;-0.241699;0.055664;0.964355;-2.03;0.7;-0.56;285.0;0.056046;-0.054252;1.5;1.5;2.25;1.5;0.25;0.5;0.0;0.5;0.75;1.25;1.5;1.25;0.5;2.25;0.0;1.0;-0.23877;0.018555;0.976074;-0.77;-1.68;1.26;140.0;-0.012349;-0.052946
1.68;2.5;2.75;2.5;2.75;0.75;0.75;0.0;0.25;2.0;2.5;3.75;4.0;2.25;6.5;0.25;1.25;-0.246582;0.057129;0.959961;-2.03;0.77;-0.63;291.0;0.060636;-0.053649;1.5;1.5;2.5;1.75;0.0;0.5;0.0;0.25;0.75;1.0;1.0;1.25;0.5;1.75;0.0;1.0;-0.238281;0.013184;0.974609;-0.84;-1.68;1.26;129.0;-0.043925;-0.053352
1.69;1.75;2.25;2.0;2.75;0.75;0.75;0.0;0.25;2.5;2.75;3.75;2.75;2.25;6.75;0.0;1.0;-0.243164;0.056152;0.960449;-2.03;0.91;-0.56;271.0;0.081764;-0.03813;1.75;1.5;2.5;2.0;0.0;0.75;0.0;0.25;1.0;1.0;1.0;1.75;0.75;1.75;0.0;1.0;-0.237793;0.016113;0.973633;-0.84;-1.61;1.26;145.0;-0.038792;-0.063451
1.7;1.75;2.25;2.75;2.75;0.75;0.75;0.0;0.25;2.75;3.0;3.25;3.5;2.25;6.75;0.0;1.0;-0.24707;0.051758;0.961914;-2.03;0.77;-0.49;286.0;0.076828;-0.036014;1.5;1.25;2.5;2.0;0.25;0.5;0.0;0.25;0.5;1.25;1.5;1.75;1.0;2.0;0.0;1.0;-0.23877;0.010254;0.976074;-0.84;-1.61;1.12;146.0;-0.018753;-0.073846
1.71;2.0;2.25;2.5;2.75;0.75;0.75;0.0;0.25;2.5;3.25;3.5;3.75;2.25;6.5;0.0;0.75;-0.249023;0.050293;0.958984;-2.1;0.98;-0.56;286.0;0.074435;-0.040991;1.25;1.25;2.25;2.25;0.5;0.5;0.0;0.5;0.5;1.0;1.25;1.75;1.0;2.5;0.0;0.75;-0.232422;0.012207;0.973145;-0.84;-1.68;1.19;147.0;-0.014811;-0.079666
1.72;1.5;2.25;1.75;2.75;1.0;0.5;0.0;0.25;2.5;3.0;3.0;3.5;2.25;6.5;0.0;0.75;-0.245605;0.061035;0.960449;-2.1;1.05;-0.56;266.0;0.086418;-0.041504;1.5;1.25;2.5;2.25;0.5;0.5;0.0;0.5;0.75;0.75;1.25;1.75;1.0;2.0;0.0;1.0;-0.239746;0.010742;0.969238;-0.77;-1.61;1.26;150.0;-0.030465;-0.07786
1.73;1.5;2.25;2.0;2.75;1.0;0.5;0.0;0.5;2.5;2.0;2.75;3.25;2.25;6.5;0.0;1.0;-0.243652;0.050781;0.958496;-2.03;0.7;-0.56;260.0;0.075875;-0.046559;2.25;1.25;2.5;2.25;0.5;0.75;0.0;0.5;1.0;1.0;1.0;1.25;1.0;2.0;0.25;1.0;-0.236328;0.01123;0.972168;-0.84;-1.68;1.19;159.0;-0.04286;-0.058486
1.74;1.25;2.0;2.0;2.75;0.75;0.75;0.0;0.25;2.5;2.0;3.0;3.25;2.25;6.0;0.25;1.0;-0.248535;0.049805;0.959961;-2.1;0.91;-0.56;253.0;0.084028;-0.049743;1.75;1.5;2.25;2.5;0.5;1.0;0.0;0.5;0.75;1.25;1.0;1.25;0.75;2.5;0.25;1.0;-0.240723;0.010742;0.979004;-0.84;-1.68;1.19;160.0;-0.032908;-0.066032
1.75;1.75;2.75;1.5;2.75;0.75;0.75;0.0;0.0;2.5;2.75;3.5;3.25;2.25;6.0;0.25;1.0;-0.246582;0.055664;0.962402;-1.96;0.91;-0.42;266.0;0.078713;-0.046346;1.5;1.5;2.25;2.5;0.75;0.75;0.0;0.5;1.0;1.5;1.25;1.75;0.5;2.25;0.0;1.25;-0.232422;0.010742;0.972656;-0.77;-1.75;1.12;165.0;-0.019629;-0.062889
1.76;2.0;2.25;1.5;2.75;0.75;0.75;0.0;0.0;2.5;3.25;3.5;3.25;2.25;6.0;0.25;1.0;-0.245605;0.053223;0.956543;-2.1;0.91;-0.56;269.0;0.084536;-0.0416;2.25;1.75;2.75;2.75;0.25;0.75;0.0;0.25;0.5;0.75;1.5;1.25;0.75;2.0;0.25;1.5;-0.230469;0.012695;0.974609;-0.84;-1.75;1.12;161.0;-0.064753;-0.072335
1.77;2.25;2.0;1.75;2.75;0.5;0.75;0.0;0.0;2.0;2.75;3.25;3.5;2.25;6.0;0.5;0.75;-0.247559;0.049316;0.958984;-2.03;1.05;-0.56;261.0;0.078067;-0.048244;2.5;2.0;2.75;2.5;0.25;0.75;0.0;0.25;0.75;0.75;1.75;1.75;1.0;2.5;0.25;1.25;-0.233887;0.014648;0.977539;-1.05;-1.82;1.19;177.0;-0.045086;-0.067316
1.78;2.0;2.0;1.75;2.5;0.5;0.75;0.0;0.25;2.0;2.75;2.75;3.25;2.25;6.0;0.5;0.75;-0.242188;0.048828;0.960938;-2.1;1.05;-0.56;253.0;0.080677;-0.048971;2.25;2.0;2.75;2.75;0.25;1.0;0.0;0.0;1.0;1.0;1.75;1.0;1.0;2.5;0.0;1.0;-0.234375;0.012695;0.974609;-0.91;-1.75;1.19;171.0;-0.05578;-0.050525
1.79;2.0;2.0;1.75;2.75;0.5;0.75;0.0;0.25;2.25;2.75;3.0;3.5;2.25;5.75;0.25;0.5;-0.246094;0.050781;0.962402;-1.96;0.84;-0.49;257.0;0.075212;-0.049901;2.5;1.75;3.0;3.0;0.5;1.0;0.0;0.25;1.0;0.75;1.75;1.0;1.0;2.25;0.0;1.0;-0.235352;0.01416;0.974121;-0.91;-1.68;1.19;177.0;-0.070363;-0.056116
1.8;2.0;2.0;2.0;2.75;0.75;0.75;0.0;0.25;2.25;2.5;3.25;2.75;1.75;5.75;0.25;0.5;-0.247559;0.052734;0.962402;-2.03;0.84;-0.49;251.0;0.065223;-0.036657;2.75;2.0;3.0;2.75;0.5;1.0;0.0;0.25;1.25;1.0;1.75;1.25;1.25;3.0;0.25;1.0;-0.236328;0.014648;0.980957;-0.91;-1.61;1.26;196.0;-0.042798;-0.047814
1.81;2.0;2.0;1.75;2.75;0.75;0.75;0.0;0.25;2.0;2.25;3.0;2.75;1.75;5.75;0.25;0.75;-0.245605;0.050781;0.959961;-2.1;1.05;-0.49;243.0;0.064621;-0.042865;3.0;2.5;3.0;3.0;0.5;1.0;0.0;0.25;1.25;1.25;1.75;1.25;0.75;2.5;0.0;1.25;-0.23291;0.014648;0.970215;-0.98;-1.75;1.12;198.0;-0.068636;-0.046787
1.82;1.5;2.25;1.75;2.75;0.5;0.75;0.0;0.0;1.75;2.5;2.75;3.25;1.5;6.0;0.0;0.75;-0.244629;0.050781;0.961426;-1.89;0.84;-0.42;235.0;0.07139;-0.044433;3.0;2.0;3.0;3.25;0.75;0.75;0.0;0.25;0.75;0.5;2.5;1.75;0.5;2.25;0.0;1.25;-0.234375;0.009766;0.970703;-0.98;-1.68;1.19;192.0;-0.074067;-0.061724
1.83;1.75;2.75;2.0;2.5;0.5;0.25;0.0;0.0;2.25;2.5;2.75;2.75;1.75;5.75;0.0;0.75;-0.251465;0.052246;0.957031;-2.03;0.84;-0.42;237.0;0.063499;-0.030423;3.0;2.0;3.0;3.5;0.5;0.75;0.0;0.5;1.0;0.75;2.0;1.0;0.25;2.75;0.0;1.5;-0.237793;0.010742;0.979492;-0.98;-1.68;1.19;192.0;-0.073952;-0.048271
1.84;2.0;2.25;1.75;2.75;0.5;0.25;0.0;0.0;2.5;2.5;2.75;3.5;1.5;5.75;0.0;0.75;-0.242676;0.054199;0.956543;-1.89;0.84;-0.42;243.0;0.072094;-0.030566;2.75;2.25;3.0;3.0;0.5;1.0;0.0;0.25;0.5;0.75;1.75;1.25;0.25;2.0;0.0;1.0;-0.23877;0.015137;0.969727;-0.84;-1.82;1.12;173.0;-0.101697;-0.05954
1.85;1.75;2.0;2.0;2.75;0.5;0.5;0.0;0.25;1.75;2.75;2.75;3.25;1.5;6.0;0.0;0.75;-0.252441;0.050293;0.959473;-2.1;0.84;-0.49;240.0;0.070288;-0.042226;3.5;2.5;3.25;3.25;0.5;1.0;0.0;0.25;0.5;0.25;1.75;1.75;0.75;2.0;0.25;1.0;-0.234375;0.01123;0.976074;-0.84;-1.68;1.26;192.0;-0.108841;-0.071267
1.86;1.5;2.25;1.75;2.5;0.75;0.5;0.0;0.25;1.5;3.0;2.75;3.0;1.25;5.75;0.0;0.75;-0.249023;0.052734;0.962402;-2.1;0.77;-0.42;231.0;0.070318;-0.041863;3.0;2.5;3.25;3.5;0.5;1.25;0.0;0.5;0.75;0.5;1.75;0.75;0.75;2.0;0.0;1.0;-0.235352;0.011719;0.974121;-0.84;-1.82;1.26;189.0;-0.114736;-0.067899
1.87;1.5;2.25;1.75;2.5;0.75;0.5;0.0;0.0;1.75;2.5;2.75;2.75;1.25;5.75;0.0;0.75;-0.24707;0.053711;0.955566;-2.1;0.84;-0.56;224.0;0.069103;-0.032594;2.75;2.75;3.25;4.0;0.75;1.0;0.0;0.25;0.5;1.0;1.75;0.75;0.5;2.5;0.0;1.0;-0.233887;0.01416;0.976074;-0.77;-1.82;1.26;194.0;-0.110169;-0.058915
1.88;1.75;2.75;1.75;2.5;0.75;0.75;0.0;0.0;1.25;2.25;2.75;3.0;1.5;5.75;0.0;1.0;-0.240723;0.057129;0.960449;-2.17;0.7;-0.42;230.0;0.051849;-0.05144;3.0;2.5;4.0;3.75;0.75;1.0;0.0;0.25;0.5;1.25;1.75;1.25;0.75;2.25;0.0;1.0;-0.240234;0.014648;0.974121;-0.77;-1.68;1.26;205.0;-0.105194;-0.058682
1.89;1.5;2.0;1.25;2.5;0.75;0.25;0.0;0.25;1.5;2.5;2.5;3.25;1.5;5.75;0.25;1.0;-0.244629;0.052734;0.961426;-2.03;0.84;-0.42;223.0;0.085976;-0.050274;3.25;2.5;4.0;3.75;0.75;1.25;0.0;0.25;0.75;0.75;2.25;1.75;0.75;2.0;0.0;1.25;-0.239258;0.011719;0.974121;-0.84;-1.75;1.26;216.0;-0.099754;-0.06682
1.9;1.75;2.0;1.75;2.5;0.75;0.25;0.0;0.25;1.5;2.5;2.5;3.0;1.5;5.75;0.25;0.75;-0.249023;0.053711;0.958496;-2.03;0.77;-0.49;227.0;0.071489;-0.042155;3.0;3.25;4.25;4.0;0.75;1.75;0.0;0.25;1.0;0.75;1.75;1.75;0.75;2.5;0.25;1.0;-0.231934;0.014648;0.974609;-0.77;-1.68;1.26;232.0;-0.100827;-0.065165
1.91;2.0;1.75;1.75;2.25;0.5;0.25;0.0;0.0;1.25;2.5;2.5;3.0;1.25;5.75;0.0;0.75;-0.24707;0.051758;0.958984;-2.24;0.91;-0.42;212.0;0.071592;-0.033445;3.5;3.25;4.25;4.0;0.5;2.0;0.0;0.25;0.75;1.0;1.5;1.75;0.75;2.0;0.0;1.0;-0.236816;0.01709;0.971191;-0.7;-1.75;1.26;228.0;-0.124045;-0.071222
1.92;2.25;1.75;2.5;2.5;0.5;0.25;0.0;0.0;1.25;2.5;2.25;2.75;1.25;5.75;0.0;0.75;-0.25293;0.053223;0.960449;-2.24;0.91;-0.42;219.0;0.049474;-0.02666;3.0;3.5;4.25;4.5;0.75;2.0;0.0;0.5;0.75;1.0;1.5;1.75;1.25;1.75;0.0;1.0;-0.242188;0.013184;0.976074;-0.84;-1.68;1.12;237.0;-0.122508;-0.08918
1.93;1.5;1.75;1.75;2.25;0.5;0.25;0.0;0.25;1.25;2.5;2.5;3.0;1.25;5.75;0.0;0.5;-0.243164;0.052246;0.963867;-2.17;0.91;-0.49;210.0;0.078538;-0.040271;3.75;3.5;4.25;5.0;0.5;1.75;0.0;0.5;0.5;1.25;1.5;2.25;0.5;2.0;0.25;1.0;-0.23291;0.013672;0.975586;-0.84;-1.75;1.33;246.0;-0.125627;-0.08225
1.94;1.5;2.0;1.75;2.5;0.5;0.5;0.0;0.25;1.5;2.5;2.0;2.5;1.25;5.75;0.25;0.5;-0.249512;0.055176;0.95459;-2.38;0.91;-0.42;213.0;0.067641;-0.035413;4.0;3.25;4.5;5.25;0.5;2.25;0.0;0.5;0.75;0.75;1.5;1.0;0.5;2.0;0.25;1.25;-0.236328;0.01123;0.97998;-0.7;-1.68;1.26;244.0;-0.144241;-0.073184
1.95;1.75;2.0;1.5;1.5;0.0;0.5;0.0;0.25;1.25;2.5;2.0;2.5;1.25;5.75;0.0;0.5;-0.251465;0.054688;0.963867;-2.24;0.91;-0.49;194.0;0.081235;-0.032466;3.25;3.25;4.5;5.25;0.75;2.0;0.0;0.25;0.75;0.75;1.75;0.75;0.75;1.75;0.25;1.25;-0.233887;0.011719;0.973633;-0.84;-1.75;1.33;234.0;-0.14025;-0.073913
1.96;1.5;2.0;1.5;2.25;0.25;0.25;0.0;0.0;1.25;2.5;2.0;2.5;1.25;5.5;0.25;0.75;-0.249023;0.056641;0.962402;-2.38;0.84;-0.49;197.0;0.077748;-0.035182;3.5;4.25;4.5;5.25;0.75;2.0;0.0;0.5;0.75;1.0;1.5;1.0;1.0;1.75;0.25;1.25;-0.23584;0.010254;0.973145;-0.7;-1.82;1.33;251.0;-0.143927;-0.082398
1.97;1.5;2.25;1.75;2.25;0.5;0.5;0.0;0.0;1.0;2.75;2.0;2.0;1.25;5.75;0.0;0.5;-0.252441;0.057129;0.959961;-2.45;0.91;-0.56;199.0;0.058147;-0.029944;4.0;4.25;5.0;5.25;0.5;2.0;0.0;0.5;1.0;1.25;1.75;1.75;1.0;2.0;0.0;1.25;-0.232422;0.020996;0.980469;-0.7;-1.82;1.4;272.0;-0.132434;-0.076598
1.98;1.75;2.25;1.5;2.25;0.5;0.25;0.0;0.0;1.25;2.25;2.25;2.0;0.75;5.75;0.0;0.25;-0.255859;0.053711;0.963379;-2.45;1.05;-0.42;193.0;0.056055;-0.015812;4.0;4.25;5.0;5.5;0.5;2.25;0.0;0.5;0.75;0.75;1.75;0.75;0.75;1.0;0.0;1.25;-0.230469;0.013184;0.971191;-0.56;-1.82;1.33;251.0;-0.174491;-0.082728
1.99;1.75;2.0;2.0;2.25;0.25;0.25;0.0;0.0;1.5;2.5;2.5;2.25;0.75;5.75;0.0;0.75;-0.246094;0.054199;0.956055;-2.38;0.98;-0.42;205.0;0.066693;-0.015569;4.25;4.5;5.0;5.5;0.75;2.25;0.0;0.5;0.75;1.0;1.75;0.75;0.75;2.0;0.25;1.25;-0.232422;0.016113;0.97168;-0.49;-1.68;1.4;269.0;-0.153863;-0.072429
2.0;1.75;2.25;1.75;2.25;0.25;0.25;0.0;0.0;1.25;2.5;2.5;1.75;1.0;5.75;0.0;0.25;-0.250488;0.046387;0.953613;-2.52;1.05;-0.42;197.0;0.057644;-0.016713;4.5;4.5;5.25;5.5;1.0;2.25;0.0;0.75;0.75;1.25;1.75;1.25;0.75;2.25;0.25;1.25;-0.230957;0.010742;0.970215;-0.42;-1.89;1.4;287.0;-0.142767;-0.073051
2.01;1.75;1.75;1.75;2.5;0.25;0.25;0.0;0.0;1.0;1.75;1.75;1.75;1.0;5.75;0.0;0.0;-0.247559;0.057617;0.958008;-2.45;0.98;-0.42;178.0;0.04552;-0.018026;4.75;4.5;5.5;5.5;1.0;2.5;0.0;0.75;0.75;1.0;1.75;1.25;0.75;2.25;0.25;1.0;-0.23291;0.012695;0.975586;-0.42;-1.82;1.4;291.0;-0.150618;-0.072032
2.02;2.25;1.75;2.0;2.25;0.5;0.5;0.0;0.0;1.0;1.75;1.75;2.0;1.25;5.5;0.0;0.25;-0.255371;0.054199;0.959961;-2.52;1.19;-0.49;190.0;0.032602;-0.024537;4.25;5.0;5.25;5.75;0.75;2.5;0.0;0.75;0.75;0.75;1.5;1.0;0.75;2.0;0.25;1.0;-0.23291;0.012695;0.97998;-0.49;-1.89;1.4;280.0;-0.163174;-0.080373
2.03;2.5;1.75;1.25;1.75;0.25;0.5;0.0;0.0;0.75;2.0;1.5;1.5;0.75;5.75;0.0;0.25;-0.24707;0.054688;0.953125;-2.52;1.12;-0.42;170.0;0.043203;-0.007127;4.5;5.0;5.5;5.75;0.75;2.5;0.0;0.75;1.0;1.0;1.75;1.0;1.0;2.0;0.25;1.25;-0.238281;0.01416;0.974121;-0.42;-1.82;1.4;294.0;-0.151853;-0.076816
2.04;2.0;2.0;1.25;1.75;0.25;0.5;0.0;0.0;0.75;1.5;1.75;1.5;0.75;5.25;0.0;0.25;-0.242676;0.056152;0.955566;-2.73;1.05;-0.42;161.0;0.038659;-0.019628;4.5;5.25;5.5;6.5;1.0;3.25;0.0;0.75;1.0;1.0;1.25;1.25;1.0;2.0;0.25;1.0;-0.237305;0.011719;0.971191;-0.42;-1.96;1.26;309.0;-0.161019;-0.084111
2.05;1.25;1.75;1.25;1.75;0.25;0.0;0.0;0.0;0.75;1.5;0.5;1.25;0.75;4.25;0.0;0.25;-0.250977;0.056641;0.960449;-2.87;1.33;-0.49;128.0;0.034829;-0.012991;4.75;5.25;5.75;6.5;1.25;3.25;0.0;0.75;0.75;1.0;1.25;1.75;1.0;2.0;0.0;1.0;-0.229492;0.040527;0.972656;-0.28;-1.82;1.47;315.0;-0.165637;-0.086531
2.06;1.75;2.25;1.25;1.75;0.0;0.25;0.0;0.0;1.0;1.75;0.5;1.25;0.5;4.5;0.0;0.0;-0.250488;0.057129;0.962891;-3.01;1.26;-0.42;140.0;0.016395;-0.001277;5.0;5.25;6.0;6.5;0.5;3.25;0.0;1.0;0.75;1.0;1.5;1.75;1.25;2.0;0.0;1.5;-0.237305;0.01709;0.967285;-0.28;-1.96;1.4;322.0;-0.158996;-0.094067
2.07;2.0;2.0;1.0;1.5;0.0;0.25;0.0;0.0;0.5;1.75;0.5;1.5;0.5;5.0;0.0;0.25;-0.25;0.055664;0.950195;-3.29;1.19;-0.49;137.0;0.032466;-0.008717;4.75;5.5;6.25;6.5;0.5;3.25;0.0;1.0;0.75;1.0;0.75;1.75;0.25;2.25;0.0;1.0;-0.23291;0.010254;0.976074;-0.21;-1.89;1.54;310.0;-0.176172;-0.082189
2.08;1.25;1.5;0.75;1.5;0.25;0.0;0.0;0.0;0.5;1.5;0.5;1.25;0.5;4.75;0.0;0.0;-0.251953;0.049316;0.959961;-3.43;1.26;-0.42;117.0;0.061635;-0.001314;5.25;5.5;6.25;6.75;0.75;3.5;0.0;1.0;0.5;1.25;0.75;1.25;0.5;2.0;0.25;1.5;-0.23291;0.018555;0.968262;-0.21;-1.82;1.47;321.0;-0.179113;-0.085345
2.09;1.25;1.5;1.0;1.5;0.0;0.0;0.0;0.0;0.75;1.0;0.5;1.25;0.25;4.5;0.25;0.0;-0.251953;0.043945;0.955566;-3.78;1.26;-0.42;114.0;0.056013;0.006427;4.75;5.5;6.25;6.75;0.5;3.5;0.0;1.0;0.5;1.0;1.0;1.25;1.0;1.5;0.0;1.25;-0.236328;0.018555;0.972656;-0.21;-1.89;1.47;311.0;-0.185343;-0.09705
2.1;1.25;1.5;0.75;1.25;0.0;0.0;0.0;0.0;0.5;0.75;0.25;1.25;0.25;4.25;0.25;0.25;-0.242188;0.053711;0.961426;-3.99;1.19;-0.49;102.0;0.05529;-0.002688;5.25;5.5;6.5;7.25;0.5;3.75;0.0;1.0;0.75;1.25;1.25;1.75;1.75;1.5;0.0;1.0;-0.23291;0.020508;0.969727;-0.14;-1.96;1.4;340.0;-0.17188;-0.0999
2.11;1.0;1.25;0.75;1.25;0.0;0.0;0.0;0.0;0.75;0.75;0.5;1.25;0.5;4.25;0.0;0.0;-0.246582;0.052734;0.963867;-4.41;1.12;-0.56;101.0;0.074143;2.3e-05;5.5;5.75;6.75;7.5;0.75;3.75;0.0;1.0;0.5;1.5;1.0;1.25;0.75;1.5;0.0;1.25;-0.23584;0.013184;0.976074;-0.14;-1.89;1.47;338.0;-0.189853;-0.089567
2.12;1.0;1.25;0.75;0.75;0.0;0.25;0.0;0.0;0.5;1.25;0.5;1.25;0.25;2.75;0.0;0.0;-0.251953;0.053223;0.963379;-4.41;0.98;-0.56;88.0;0.046294;-0.012786;5.5;6.0;6.75;7.75;0.75;4.25;0.0;1.0;0.5;1.25;1.0;1.25;0.75;1.5;0.0;1.5;-0.239258;0.017578;0.975098;0.07;-1.89;1.61;346.0;-0.192152;-0.095015
2.13;0.75;1.25;0.75;0.75;0.0;0.0;0.0;0.0;0.5;0.75;0.25;0.75;0.0;3.0;0.25;0.0;-0.242676;0.050781;0.956543;-4.76;0.91;-0.63;75.0;0.055728;0.020515;5.5;6.0;6.75;7.75;0.75;4.75;0.0;1.0;0.5;1.0;1.5;1.25;0.25;1.25;0.0;1.25;-0.232422;0.019531;0.973145;-0.0;-1.96;1.68;346.0;-0.197854;-0.095417
2.14;0.75;1.0;0.75;1.0;0.0;0.0;0.0;0.0;0.5;0.5;0.25;0.5;0.25;2.75;0.0;0.0;-0.247559;0.055664;0.955078;-5.11;0.98;-0.7;68.0;0.028997;0.012641;5.5;6.25;7.0;8.25;0.75;4.75;0.0;1.75;0.75;1.0;1.75;1.25;0.25;1.25;0.0;1.25;-0.231445;0.018066;0.978516;0.14;-1.96;1.47;369.0;-0.189859;-0.101262
2.15;1.0;1.0;0.75;0.5;0.0;0.0;0.0;0.0;0.5;0.75;0.25;0.5;0.25;2.25;0.0;0.0;-0.241699;0.043945;0.964844;-5.74;0.7;-0.77;65.0;0.022833;0.025333;5.5;6.5;7.0;8.5;0.75;4.75;0.0;2.0;0.5;1.25;1.5;1.75;0.75;1.25;0.0;1.25;-0.23584;0.006836;0.973145;0.14;-2.1;1.68;382.0;-0.185178;-0.11213
2.16;0.25;0.75;0.25;0.25;0.0;0.0;0.0;0.0;0.5;0.75;0.5;0.25;0.0;2.75;0.0;0.0;-0.249512;0.046387;0.958984;-6.02;0.35;-0.84;51.0;0.157277;0.063497;6.25;6.5;7.25;8.5;1.0;5.0;0.0;1.75;0.5;1.5;1.5;1.75;1.0;1.5;0.0;1.5;-0.236816;0.013184;0.976562;0.28;-1.96;1.61;399.0;-0.181841;-0.104968
2.17;0.25;1.0;0.25;0.25;0.0;0.0;0.0;0.0;0.75;0.75;0.5;0.5;0.25;1.25;0.0;0.0;-0.249512;0.051758;0.95459;-6.3;0.07;-1.05;49.0;0.0;0.0;6.25;6.5;7.75;8.5;1.75;5.0;0.0;1.75;0.75;1.0;1.75;1.25;1.0;1.75;0.25;1.25;-0.23584;0.015137;0.981445;0.28;-2.03;1.68;410.0;-0.181166;-0.095273
2.18;0.25;0.5;0.0;0.0;0.0;0.0;0.0;0.0;0.25;0.75;0.5;0.5;0.0;1.25;0.0;0.0;-0.251953;0.044922;0.96582;-6.58;0.07;-1.19;33.0;0.0;0.0;6.25;7.25;7.75;8.75;1.75;5.25;0.0;2.25;0.75;0.75;1.75;1.75;1.25;1.25;0.0;1.75;-0.238281;0.013672;0.972656;0.28;-2.03;1.68;427.0;-0.183986;-0.110279
2.19;0.25;0.25;0.0;0.25;0.0;0.0;0.0;0.0;0.25;0.5;0.25;0.0;0.0;1.5;0.0;0.0;-0.251953;0.04248;0.962402;-6.79;-0.91;-1.4;26.0;0.0;0.0;6.5;7.5;7.75;9.0;1.25;5.25;0.0;2.25;0.75;1.0;1.75;2.25;2.0;1.25;0.0;1.0;-0.229004;0.011719;0.969238;0.35;-1.89;1.68;437.0;-0.181009;-0.115674
2.2;0.25;0.5;0.0;0.0;0.0;0.0;0.0;0.0;0.25;0.25;0.0;0.5;0.0;0.75;0.0;0.0;-0.243164;0.053711;0.961426;-7.07;-1.05;-1.54;21.0;0.0;0.0;6.5;7.25;7.75;9.0;1.25;5.75;0.0;2.25;0.25;0.5;1.5;1.75;2.0;1.5;0.0;1.0;-0.233398;0.022461;0.974609;0.21;-1.96;1.61;425.0;-0.193228;-0.120885
2.21;0.25;0.25;0.0;0.0;0.0;0.0;0.0;0.0;0.0;0.25;0.0;0.25;0.0;0.25;0.0;0.0;-0.249512;0.053223;0.961914;-8.05;-0.77;-2.66;10.0;0.0;0.0;6.5;7.25;8.0;9.25;1.75;5.75;0.0;2.25;0.25;0.5;1.5;1.75;2.0;1.25;0.0;1.5;-0.236816;0.003418;0.971191;0.42;-1.96;1.68;435.0;-0.19297;-0.120624
2.22;0.0;0.0;0.0;0.0;0.0;0.0;0.0;0.0;0.0;0.25;0.25;0.0;0.0;0.5;0.0;0.0;-0.234375;0.043945;0.956055;-9.66;-1.68;-3.64;8.0;0.0;0.0;6.5;7.75;8.25;9.25;1.75;6.0;0.0;2.5;0.25;0.5;1.75;1.75;3.0;0.5;0.0;1.5;-0.231934;0.019043;0.973633;0.28;-2.03;1.68;451.0;-0.193057;-0.13169
2.23;0.25;0.25;0.0;0.0;0.0;0.0;0.0;0.0;0.0;0.5;0.25;0.25;0.0;0.5;0.0;0.0;-0.252441;0.057617;0.967285;-10.71;-1.61;-4.48;16.0;0.0;0.0;7.0;7.75;8.25;9.25;2.0;6.0;0.0;2.25;0.5;0.5;1.75;2.25;2.5;0.5;0.0;1.5;-0.237793;0.016602;0.974121;0.42;-1.96;1.82;458.0;-0.192299;-0.123144
2.24;0.5;0.25;0.0;0.0;0.0;0.0;0.0;0.0;0.0;0.5;0.25;0.25;0.0;0.25;0.0;0.0;-0.240234;0.068359;1.004395;-13.79;-1.33;-6.23;17.0;0.0;0.0;7.0;7.75;8.25;9.75;1.75;6.0;0.0;2.5;0.5;0.75;1.75;1.75;2.5;0.75;0.0;1.5;-0.22998;0.019043;0.975586;0.35;-1.96;1.75;463.0;-0.191795;-0.123227
2.25;0.0;0.0;0.0;0.25;0.0;0.0;0.0;0.0;0.0;0.25;0.0;0.0;0.0;0.25;0.0;0.0;-0.255859;0.140137;0.981934;-18.41;-0.63;-9.66;6.0;0.0;0.0;7.25;7.75;8.5;9.75;1.75;6.25;0.0;2.25;0.5;1.0;1.5;1.75;2.5;1.0;0.0;1.75;-0.233398;0.019531;0.972168;0.35;-1.82;1.82;469.0;-0.190451;-0.118488
2.26;0.0;0.0;0.0;0.0;0.0;0.0;0.0;0.0;0.0;0.25;0.25;0.0;0.0;0.5;0.0;0.0;-0.300293;0.134766;0.920898;-16.379999;-4.06;-23.030001;8.0;0.0;0.0;7.25;7.75;8.5;10.0;1.75;6.5;0.0;2.5;0.75;1.0;1.75;1.75;2.5;1.25;0.25;1.5;-0.229004;0.020996;0.972656;0.35;-1.82;1.75;485.0;-0.181502;-0.117557
2.27;0.0;0.0;0.0;0.0;0.0;0.0;0.0;0.0;0.0;0.0;0.0;0.0;0.0;0.25;0.0;0.0;-0.318848;0.087402;1.015137;-11.41;-8.68;-47.110001;2.0;0.0;0.0;7.75;8.0;8.5;10.25;1.75;6.5;0.0;2.5;0.75;1.25;1.75;1.75;2.75;1.25;0.0;1.5;-0.229004;0.019043;0.979004;0.35;-1.75;1.82;495.0;-0.184327;-0.116899
2.28;0.0;0.0;0.0;0.0;0.0;0.0;0.0;0.0;0.0;0.0;0.0;0.0;0.0;0.25;0.0;0.0;-0.303711;0.044922;1.092773;-22.82;-13.16;-56.139999;2.0;0.0;0.0;7.25;8.25;8.5;10.25;1.75;6.5;0.0;2.75;0.5;1.25;1.0;2.75;2.5;1.5;0.0;1.75;-0.22998;0.018066;0.973145;0.35;-1.82;1.68;497.0;-0.180977;-0.124282
2.29;0.0;0.0;0.0;0.0;0.0;0.0;0.0;0.0;0.0;0.0;0.0;0.0;0.0;0.25;0.0;0.0;-0.291992;0.070801;1.01709;-32.759998;-15.75;-59.150002;2.0;0.0;0.0;7.75;8.25;8.5;10.25;1.75;6.5;0.0;2.75;0.5;1.0;1.0;2.5;2.75;1.5;0.25;1.75;-0.234863;0.018555;0.975098;0.21;-1.68;1.61;501.0;-0.182564;-0.123379
2.3;0.0;0.0;0.0;0.0;0.0;0.0;0.0;0.0;0.0;0.0;0.0;0.0;0.0;0.0;0.0;0.0;-0.321777;0.178223;0.96875;-39.060001;-15.68;-58.450001;0.0;0.0;0.0;8.25;8.25;8.75;10.25;1.75;6.5;0.0;2.5;0.25;0.75;1.5;2.25;3.0;1.25;0.25;1.75;-0.233398;0.01416;0.96875;0.28;-1.61;1.54;501.0;-0.189163;-0.123155
2.31;0.0;0.0;0.0;0.0;0.0;0.0;0.0;0.0;0.0;0.0;0.0;0.0;0.0;0.0;0.0;0.0;-0.29541;0.3125;1.051758;-31.57;-14.63;-51.170002;0.0;0.0;0.0;7.75;8.25;9.0;10.25;2.0;6.75;0.0;2.5;0.25;1.0;1.5;2.75;2.75;1.5;0.25;1.75;-0.233398;0.02002;0.976074;0.14;-1.68;1.47;511.0;-0.181145;-0.12241
2.32;0.0;0.0;0.0;0.0;0.0;0.0;0.0;0.0;0.0;0.0;0.0;0.0;0.0;0.0;0.0;0.0;-0.302734;0.3125;1.104492;-18.620001;-12.88;-45.920002;0.0;0.0;0.0;7.25;8.25;9.0;10.25;2.0;6.75;0.0;2.75;0.5;1.0;1.0;2.25;2.75;1.25;0.0;1.75;-0.233887;0.021484;0.969727;-0.07;-1.61;1.4;499.0;-0.187508;-0.123736
2.33;0.0;0.0;0.0;0.0;0.0;0.0;0.0;0.0;0.0;0.0;0.0;0.0;0.0;0.0;0.0;0.0;-0.223145;0.286133;0.982422;14.14;-11.83;-30.870001;0.0;0.0;0.0;7.25;8.25;8.75;10.0;1.75;7.25;0.0;2.75;0.25;0.75;1.0;2.25;2.75;1.25;0.0;1.5;-0.230469;0.018555;0.973633;-0.14;-1.54;1.33;491.0;-0.192287;-0.129136
2.34;0.0;0.0;0.0;0.0;0.0;0.0;0.0;0.0;0.0;0.0;0.0;0.0;0.0;0.0;0.0;0.0;-0.248535;0.200195;0.90332;15.4;-14.49;-24.780001;0.0;0.0;0.0;7.75;8.25;8.75;10.0;1.75;7.25;0.0;3.25;0.5;0.75;1.25;2.75;3.0;1.0;0.0;1.5;-0.230469;0.023926;0.977539;-0.28;-1.47;1.33;511.0;-0.184992;-0.131874
2.35;0.0;0.0;0.0;0.0;0.0;0.0;0.0;0.0;0.0;0.0;0.0;0.0;0.0;0.0;0.0;0.0;-0.284668;0.17627;0.884277;12.74;-12.6;-20.09;0.0;0.0;0.0;7.25;8.25;8.75;10.25;2.0;6.75;0.0;2.75;0.5;1.0;1.25;2.75;3.0;1.0;0.0;1.5;-0.224609;0.021484;0.971191;-0.35;-1.4;1.26;503.0;-0.183943;-0.128077
2.36;0.0;0.0;0.0;0.0;0.0;0.0;0.0;0.0;0.0;0.0;0.0;0.0;0.0;0.0;0.0;0.0;-0.268555;0.17334;0.87207;12.46;-9.52;-16.799999;0.0;0.0;0.0;7.25;8.25;8.75;10.25;2.0;6.75;0.0;2.75;0.5;0.75;1.5;2.25;2.5;0.75;0.0;1.75;-0.225098;0.018555;0.975586;-0.63;-1.54;1.19;494.0;-0.191036;-0.126431
2.37;0.0;0.0;0.0;0.0;0.0;0.0;0.0;0.0;0.0;0.0;0.0;0.0;0.0;0.0;0.0;0.0;-0.252441;0.165039;0.884277;14.63;-7.98;-14.21;0.0;0.0;0.0;7.75;8.0;8.75;10.25;2.0;6.75;0.0;2.75;0.5;0.75;1.5;2.5;2.75;0.75;0.25;1.5;-0.238281;0.023438;0.973633;-0.56;-1.33;1.05;501.0;-0.187539;-0.125595
2.38;0.0;0.0;0.0;0.0;0.0;0.0;0.0;0.0;0.0;0.0;0.0;0.0;0.0;0.0;0.0;0.0;-0.23877;0.150391;0.902344;17.710001;-7.63;-11.55;0.0;0.0;0.0;7.25;8.0;9.0;10.25;1.75;6.75;0.0;2.75;0.25;1.0;1.5;2.25;2.75;1.0;0.0;1.5;-0.228516;0.019043;0.97168;-0.7;-1.33;1.12;494.0;-0.189147;-0.127223
2.39;0.0;0.0;0.0;0.0;0.0;0.0;0.0;0.0;0.0;0.0;0.0;0.0;0.0;0.0;0.0;0.0;-0.219727;0.134766;0.923828;21.139999;-7.42;-5.6;0.0;0.0;0.0;7.75;8.0;8.5;10.0;1.75;6.5;0.0;2.75;0.25;1.0;1.5;1.75;2.75;1.25;0.0;1.5;-0.230469;0.023438;0.96875;-0.7;-1.12;1.05;486.0;-0.191429;-0.123407
2.4;0.0;0.0;0.0;0.0;0.0;0.0;0.0;0.0;0.0;0.0;0.0;0.0;0.0;0.0;0.0;0.0;-0.212891;0.115723;0.908691;22.049999;-8.12;-0.56;0.0;0.0;0.0;7.0;8.0;8.5;10.0;2.0;6.5;0.0;2.75;0.5;1.25;1.75;3.0;3.0;0.5;0.0;1.75;-0.235352;0.02002;0.977539;-0.7;-1.33;1.12;498.0;-0.177207;-0.131294
2.41;0.0;0.0;0.0;0.0;0.0;0.0;0.0;0.0;0.0;0.0;0.0;0.0;0.0;0.0;0.0;0.0;-0.219727;0.096191;0.881836;22.610001;-8.05;4.55;0.0;0.0;0.0;7.0;8.0;8.75;10.0;1.75;6.5;0.0;2.75;0.75;0.75;2.0;2.5;2.75;0.5;0.25;2.0;-0.234863;0.015625;0.975098;-0.84;-1.26;1.19;496.0;-0.178222;-0.128067
2.42;0.0;0.0;0.0;0.0;0.0;0.0;0.0;0.0;0.0;0.0;0.0;0.0;0.0;0.0;0.0;0.0;-0.222168;0.075684;0.890625;24.639999;-6.65;8.89;0.0;0.0;0.0;7.25;7.75;8.75;10.0;1.75;6.5;0.0;2.75;0.25;1.0;2.0;2.25;3.0;1.0;0.0;1.75;-0.229004;0.021484;0.973633;-0.84;-1.12;0.98;492.0;-0.181296;-0.128549
2.43;0.0;0.0;0.0;0.0;0.0;0.0;0.0;0.0;0.0;0.0;0.0;0.0;0.0;0.0;0.0;0.0;-0.21582;0.053223;0.883789;26.67;-5.25;11.13;0.0;0.0;0.0;7.0;7.75;8.5;10.0;1.75;6.5;0.0;3.25;0.25;0.5;2.0;1.75;3.0;1.0;0.0;1.75;-0.231445;0.020508;0.972656;-0.91;-1.33;1.05;485.0;-0.18502;-0.134312
2.44;0.0;0.0;0.0;0.0;0.0;0.0;0.0;0.0;0.0;0.0;0.0;0.0;0.0;0.0;0.0;0.0;-0.215332;0.01709;0.901855;27.58;-4.62;11.83;0.0;0.0;0.0;7.25;7.75;8.75;9.75;2.0;6.5;0.0;2.5;0.5;0.5;2.0;2.5;3.0;1.25;0.0;1.75;-0.234375;0.01709;0.978027;-0.98;-1.26;1.05;492.0;-0.17901;-0.124602
2.45;0.0;0.0;0.0;0.0;0.0;0.0;0.0;0.0;0.0;0.0;0.0;0.0;0.0;0.0;0.0;0.0;-0.218262;0.00293;0.90918;31.57;-2.87;10.85;0.0;0.0;0.0;7.0;7.75;8.25;10.0;1.75;6.5;0.0;2.5;0.5;0.75;2.0;3.0;2.75;1.25;0.25;1.25;-0.23291;0.021973;0.972168;-0.98;-1.19;1.19;489.0;-0.173766;-0.127384
2.46;0.0;0.0;0.0;0.0;0.0;0.0;0.0;0.0;0.0;0.0;0.0;0.0;0.0;0.0;0.0;0.0;-0.207031;-0.022461;0.901367;32.48;-2.17;9.52;0.0;0.0;0.0;7.0;7.75;8.75;10.0;2.0;6.5;0.0;2.5;0.5;0.75;2.0;2.5;2.75;1.5;0.0;1.75;-0.234375;0.015137;0.972168;-0.84;-1.19;0.98;494.0;-0.175831;-0.122913
2.47;0.0;0.0;0.0;0.0;0.0;0.0;0.0;0.0;0.0;0.0;0.0;0.0;0.0;0.0;0.0;0.0;-0.204102;-0.030273;0.892578;31.5;-1.05;8.4;0.0;0.0;0.0;7.0;7.75;8.5;10.0;2.25;6.5;0.0;2.5;0.5;1.0;2.0;2.25;2.75;1.5;0.0;2.0;-0.233887;0.018555;0.972656;-0.91;-1.26;0.98;495.0;-0.173816;-0.121909
2.48;0.0;0.0;0.0;0.0;0.0;0.0;0.0;0.0;0.0;0.0;0.0;0.0;0.0;0.0;0.0;0.0;-0.205566;-0.041016;0.871582;29.68;1.12;7.56;0.0;0.0;0.0;7.0;7.75;8.5;10.0;1.75;6.75;0.0;2.5;0.75;0.75;1.75;2.25;3.0;1.25;0.25;2.0;-0.231934;0.016113;0.979004;-0.91;-1.26;1.12;493.0;-0.173626;-0.125133
2.49;0.0;0.0;0.0;0.0;0.0;0.0;0.0;0.0;0.0;0.0;0.0;0.0;0.0;0.0;0.0;0.0;-0.191895;-0.049316;0.859375;26.6;3.5;6.93;0.0;0.0;0.0;7.25;7.75;8.75;10.0;1.75;6.5;0.0;2.5;0.5;0.75;1.5;2.75;2.75;1.0;0.0;1.5;-0.236816;0.01709;0.977539;-0.77;-1.26;1.12;487.0;-0.184546;-0.12536
2.5;0.0;0.0;0.0;0.0;0.0;0.0;0.0;0.0;0.0;0.0;0.0;0.0;0.0;0.0;0.0;0.0;-0.19873;-0.048828;0.868164;24.639999;7.21;6.58;0.0;0.0;0.0;7.25;7.75;8.75;10.0;1.75;6.25;0.0;2.5;0.25;1.0;1.5;2.5;2.5;1.0;0.0;2.0;-0.22998;0.01709;0.975098;-0.77;-1.26;1.26;482.0;-0.185842;-0.124915
2.51;0.0;0.0;0.0;0.0;0.0;0.0;0.0;0.0;0.0;0.0;0.0;0.0;0.0;0.0;0.0;0.0;-0.174316;-0.034668;0.878906;21.210001;10.99;6.37;0.0;0.0;0.0;7.25;7.75;8.5;10.0;1.75;6.5;0.0;2.5;0.5;1.0;1.5;2.25;2.5;1.25;0.0;2.25;-0.227539;0.016113;0.975098;-0.77;-1.33;1.19;486.0;-0.181105;-0.122941
2.52;0.0;0.0;0.0;0.0;0.0;0.0;0.0;0.0;0.0;0.0;0.0;0.0;0.0;0.0;0.0;0.0;-0.151855;-0.01123;0.892578;20.16;11.55;6.58;0.0;0.0;0.0;7.0;7.75;8.75;10.0;2.0;6.5;0.0;2.5;0.5;1.25;1.5;1.75;2.75;1.5;0.0;2.25;-0.231445;0.018555;0.973633;-0.7;-1.26;1.12;489.0;-0.178421;-0.119872
2.53;0.0;0.0;0.0;0.0;0.0;0.0;0.0;0.0;0.0;0.0;0.0;0.0;0.0;0.0;0.0;0.0;-0.140137;0.000977;0.887207;21.49;12.88;7.21;0.0;0.0;0.0;7.25;7.5;8.75;10.0;2.0;6.25;0.0;2.5;0.5;1.5;1.75;1.75;3.0;1.25;0.25;2.0;-0.230957;0.020996;0.974609;-0.84;-1.33;1.19;493.0;-0.174426;-0.118885
2.54;0.0;0.0;0.0;0.0;0.0;0.0;0.0;0.0;0.0;0.0;0.0;0.0;0.0;0.0;0.0;0.0;0.096191;-0.693848;0.739746;-68.459999;3.78;-5.81;0.0;0.0;0.0;6.5;7.5;8.75;10.0;2.0;6.25;0.0;2.5;0.75;1.5;1.75;1.75;3.25;1.0;0.25;1.75;-0.234863;0.02002;0.977539;-0.91;-1.26;1.19;488.0;-0.171079;-0.12163
2.55;0.0;0.0;0.0;0.0;0.0;0.0;0.0;0.0;0.0;0.0;0.0;0.0;0.0;0.0;0.0;0.0;-0.105957;-0.365234;1.037598;-94.849998;-1.54;3.36;0.0;0.0;0.0;7.0;7.75;8.75;10.0;1.75;6.25;0.0;2.5;1.0;1.25;1.5;1.25;3.0;1.0;0.25;2.0;-0.230469;0.019531;0.974609;-0.84;-1.26;1.19;485.0;-0.17906;-0.116823
2.56;0.0;0.0;0.0;0.0;0.0;0.0;0.0;0.0;0.0;0.0;0.0;0.0;0.0;0.0;0.0;0.0;-0.374023;0.034668;0.878906;-53.34;25.83;-0.84;0.0;0.0;0.0;7.0;7.75;8.75;10.0;1.75;6.5;0.0;2.5;1.0;1.25;1.75;2.25;3.0;1.25;0.25;1.75;-0.237793;0.021973;0.974609;-1.12;-1.33;1.12;499.0;-0.169411;-0.119184
2.57;0.0;0.0;0.0;0.0;0.0;0.0;0.0;0.0;0.0;0.0;0.0;0.0;0.0;0.0;0.0;0.0;-0.303223;-0.009277;1.118652;-13.23;16.870001;-10.57;0.0;0.0;0.0;7.0;7.75;8.75;10.0;2.0;6.5;0.0;2.5;1.0;1.5;1.75;1.75;2.75;1.5;0.25;1.75;-0.234375;0.015625;0.973145;-0.98;-1.26;1.19;499.0;-0.169925;-0.113671
2.58;0.0;0.0;0.0;0.0;0.0;0.0;0.0;0.0;0.0;0.0;0.0;0.0;0.0;0.0;0.0;0.0;-0.226074;0.041504;0.929688;-7.98;11.97;-2.73;0.0;0.0;0.0;7.0;7.75;8.75;10.0;2.25;6.25;0.0;2.5;0.75;1.25;2.0;2.25;2.5;1.25;0.0;2.0;-0.228027;0.018066;0.981934;-1.12;-1.47;1.12;496.0;-0.173542;-0.117045
2.59;0.0;0.0;0.0;0.25;0.0;0.0;0.0;0.0;0.0;0.0;0.0;0.0;0.0;0.0;0.0;0.0;-0.259277;0.041504;0.975098;-4.83;16.940001;1.33;2.0;0.0;0.0;6.5;7.75;8.5;10.0;2.0;6.25;0.0;2.5;0.75;1.25;2.0;1.75;2.75;1.25;0.0;2.0;-0.23291;0.02002;0.970703;-1.12;-1.26;1.19;485.0;-0.173461;-0.120584
2.6;0.25;0.0;0.0;0.0;0.0;0.0;0.0;0.0;0.0;0.0;0.0;0.0;0.0;0.25;0.0;0.0;-0.251465;0.041016;1.002441;-3.01;15.54;2.59;4.0;0.0;0.0;6.5;7.75;8.5;9.75;2.0;6.25;0.0;2.5;1.0;1.5;2.25;2.25;2.75;1.25;0.0;1.25;-0.233887;0.020996;0.973633;-1.19;-1.33;1.12;490.0;-0.167208;-0.117273
2.61;0.25;0.0;0.0;0.0;0.0;0.0;0.0;0.0;0.0;0.25;0.25;0.0;0.0;0.25;0.0;0.0;-0.241699;0.051758;0.992676;-2.38;12.53;1.54;8.0;0.0;0.0;7.0;7.5;8.5;9.75;1.75;6.0;0.0;2.5;1.0;1.5;2.0;2.25;2.75;1.25;0.0;1.75;-0.233398;0.012207;0.978027;-1.26;-1.26;1.05;488.0;-0.167872;-0.116117
2.62;0.25;0.0;0.25;0.25;0.0;0.0;0.0;0.0;0.0;0.0;0.0;0.0;0.0;0.5;0.0;0.0;-0.240723;0.050293;0.975586;-2.17;10.01;0.91;10.0;0.0;0.0;7.0;7.5;8.5;9.75;2.0;6.0;0.0;2.5;0.75;1.25;2.25;2.5;2.5;1.5;0.0;2.0;-0.231934;0.014648;0.974609;-1.12;-1.12;1.05;491.0;-0.166307;-0.117165
2.63;0.25;0.25;0.0;0.25;0.0;0.0;0.0;0.0;0.0;0.0;0.0;0.0;0.0;0.5;0.0;0.0;-0.241699;0.042969;0.972168;-2.17;7.07;0.63;10.0;0.0;0.0;7.0;7.5;8.5;9.75;1.75;6.0;0.0;2.5;0.75;1.5;1.5;2.5;2.75;1.5;0.0;1.75;-0.229492;0.013672;0.969727;-1.12;-1.26;1.12;485.0;-0.169965;-0.118055
2.64;0.5;0.5;0.0;0.5;0.0;0.0;0.0;0.0;0.0;0.0;0.0;0.0;0.0;0.5;0.0;0.0;-0.241699;0.044434;0.975586;-2.31;5.25;0.21;16.0;0.0;0.0;6.5;7.5;8.5;9.75;1.75;6.0;0.0;2.25;0.75;1.75;1.5;0.75;2.25;1.25;0.0;2.0;-0.231934;0.010254;0.969238;-1.19;-1.19;1.05;460.0;-0.183298;-0.110376
2.65;0.25;0.5;0.0;0.25;0.0;0.0;0.0;0.0;0.0;0.0;0.0;0.0;0.0;0.75;0.0;0.0;-0.242676;0.037598;0.965332;-2.1;3.43;0.14;14.0;0.0;0.0;7.0;7.5;8.5;9.75;2.0;6.25;0.0;2.25;1.0;1.25;1.75;2.25;2.0;1.25;0.0;2.0;-0.232422;0.018066;0.978027;-1.33;-1.26;0.98;481.0;-0.174864;-0.111521
2.66;0.5;0.5;0.0;0.25;0.0;0.0;0.0;0.0;0.0;0.0;0.0;0.0;0.0;0.75;0.0;0.0;-0.245605;0.038086;0.961426;-1.61;2.38;0.0;16.0;0.0;0.0;7.0;7.5;8.25;9.75;2.0;5.75;0.0;2.25;0.75;1.0;1.5;2.75;2.25;1.5;0.0;1.75;-0.233887;0.016602;0.982422;-1.33;-1.19;0.91;474.0;-0.175052;-0.115464
2.67;0.75;0.75;0.0;0.5;0.0;0.0;0.0;0.0;0.0;0.25;0.25;0.0;0.0;1.0;0.0;0.0;-0.23584;0.045898;0.953613;-1.96;2.03;-0.21;28.0;0.0;0.0;6.5;7.25;8.25;9.75;1.75;5.75;0.0;2.25;0.5;1.25;1.75;2.75;2.25;1.5;0.0;1.75;-0.235352;0.013184;0.979492;-1.33;-1.19;0.91;467.0;-0.170897;-0.119657
2.68;0.5;0.75;0.0;0.75;0.0;0.0;0.0;0.0;0.0;0.25;0.25;0.0;0.0;0.5;0.0;0.0;-0.236328;0.047363;0.964355;-1.82;1.89;-0.28;25.0;0.0;0.0;6.5;7.0;8.25;9.25;1.75;5.5;0.0;2.25;0.75;1.5;1.75;2.5;2.25;1.75;0.0;1.75;-0.229492;0.015625;0.969238;-1.4;-1.12;0.77;463.0;-0.163901;-0.112483
2.69;0.25;0.75;0.5;0.75;0.0;0.0;0.0;0.0;0.0;0.25;0.0;0.0;0.0;0.25;0.0;0.0;-0.242188;0.038574;0.964844;-1.82;1.54;-0.56;23.0;0.0;0.0;6.5;7.25;8.0;9.25;1.75;5.5;0.0;2.25;0.75;1.5;1.75;2.5;2.25;1.75;0.25;1.75;-0.237793;0.016602;0.974609;-1.26;-1.05;0.77;465.0;-0.161713;-0.113575
2.7;0.5;1.5;0.25;0.5;0.0;0.0;0.0;0.0;0.0;0.0;0.5;0.0;0.0;0.75;0.0;0.0;-0.246582;0.044922;0.962402;-1.47;1.61;-0.77;33.0;0.0;0.0;6.25;7.25;8.25;9.25;1.75;5.5;0.0;2.0;0.75;1.5;2.5;2.25;2.25;2.0;0.25;1.5;-0.236328;0.020508;0.97168;-1.33;-1.05;0.98;467.0;-0.1575;-0.109259
2.71;0.75;0.75;0.0;0.5;0.0;0.0;0.0;0.0;0.25;0.25;0.25;0.25;0.0;0.25;0.0;0.0;-0.246094;0.035156;0.953613;-1.26;1.54;-0.84;28.0;0.0;0.0;6.25;7.0;8.25;9.0;1.75;5.5;0.0;2.25;0.75;1.25;2.0;2.25;2.25;1.75;0.25;1.5;-0.229004;0.018555;0.973633;-1.33;-1.12;0.91;457.0;-0.16255;-0.112288
2.72;0.5;0.5;0.25;0.5;0.0;0.0;0.0;0.0;0.5;0.25;0.0;0.25;0.0;0.25;0.0;0.0;-0.239258;0.038574;0.963379;-0.77;1.4;-0.7;27.0;0.0;0.0;6.5;7.0;8.25;9.0;1.75;5.5;0.0;2.0;1.0;1.25;2.0;2.25;1.75;1.75;0.25;1.5;-0.233887;0.017578;0.97168;-1.26;-1.26;1.05;455.0;-0.164901;-0.104142
2.73;0.5;0.75;0.0;0.75;0.0;0.0;0.0;0.0;0.0;0.25;0.25;0.0;0.0;0.75;0.0;0.0;-0.243164;0.043457;0.945801;-0.42;1.47;-0.56;27.0;0.0;0.0;6.25;7.0;8.25;8.75;2.0;5.25;0.0;1.75;1.0;1.0;1.25;1.75;1.75;1.75;0.25;1.5;-0.236328;0.017578;0.974609;-1.26;-1.19;0.91;434.0;-0.175782;-0.09942
2.74;0.5;1.0;0.0;0.5;0.0;0.0;0.0;0.0;0.0;0.5;0.25;0.0;0.0;1.25;0.0;0.0;-0.240723;0.042969;0.945801;0.56;1.75;-0.49;32.0;0.0;0.0;6.25;7.0;8.0;8.75;2.0;5.25;0.0;1.75;1.0;1.0;1.25;1.75;2.0;2.0;0.0;1.5;-0.234375;0.021973;0.978516;-1.26;-1.12;0.77;434.0;-0.174387;-0.100914
2.75;0.75;1.25;0.25;0.5;0.0;0.0;0.0;0.0;0.25;0.5;0.25;0.0;0.0;1.25;0.0;0.0;-0.249512;0.048828;0.961914;1.05;1.12;-0.28;41.0;0.0;0.0;6.25;7.0;8.25;8.75;2.25;5.25;0.0;1.75;1.0;1.25;1.25;1.75;1.75;2.25;0.0;1.5;-0.23584;0.017578;0.973633;-1.26;-1.12;0.77;440.0;-0.171608;-0.095606
2.76;1.0;1.0;0.5;0.75;0.0;0.0;0.0;0.0;0.25;0.5;0.5;0.25;0.0;1.5;0.0;0.0;-0.245605;0.041504;0.968262;1.26;1.05;-0.28;52.0;-0.043663;0.005953;6.25;6.5;8.0;8.75;1.75;5.0;0.0;1.25;1.0;1.25;0.5;1.75;1.25;2.0;0.0;1.5;-0.23291;0.02002;0.97998;-1.26;-1.26;0.91;409.0;-0.183884;-0.089755
2.77;1.0;1.25;0.75;0.75;0.0;0.0;0.0;0.0;0.0;0.75;0.5;0.5;0.0;2.0;0.0;0.0;-0.23877;0.04834;0.954102;1.26;1.12;-0.35;62.0;-0.031498;-0.006936;6.25;6.5;7.75;8.75;1.75;5.0;0.0;1.25;1.0;1.25;0.5;1.25;1.25;1.75;0.0;1.75;-0.23877;0.015137;0.979492;-1.19;-1.12;0.91;401.0;-0.188837;-0.090364
2.78;1.0;1.5;0.75;0.75;0.0;0.0;0.0;0.0;0.25;0.5;0.5;0.5;0.0;2.0;0.0;0.0;-0.239746;0.043945;0.964844;1.12;0.56;-0.35;64.0;-0.039967;-0.00212;6.25;6.5;7.75;8.75;1.75;5.0;0.0;1.25;1.0;1.5;1.0;1.0;1.0;1.75;0.25;1.5;-0.236328;0.014648;0.976074;-1.12;-1.19;0.91;405.0;-0.184129;-0.086334
2.79;1.25;1.5;1.0;1.0;0.0;0.0;0.0;0.0;0.5;0.5;0.75;0.5;0.0;2.0;0.0;0.0;-0.237305;0.05127;0.964355;1.19;0.28;-0.35;76.0;-0.046382;0.003805;6.0;6.25;7.75;8.75;1.75;5.0;0.0;1.25;1.25;1.75;1.25;1.0;1.0;1.75;0.25;1.75;-0.233398;0.016602;0.975098;-1.19;-1.19;0.77;409.0;-0.172946;-0.084573
2.8;1.0;1.5;1.0;1.5;0.0;0.0;0.0;0.0;0.25;0.5;0.75;0.5;0.0;2.25;0.0;0.25;-0.236328;0.057617;0.960449;1.12;0.07;-0.42;79.0;-0.044788;-0.022517;6.0;6.25;7.25;8.25;1.75;4.75;0.0;1.0;1.25;1.25;1.5;1.25;1.0;2.0;0.25;1.5;-0.236328;0.01709;0.978516;-1.12;-1.12;0.91;395.0;-0.171034;-0.082579
2.81;1.0;1.75;1.0;1.75;0.0;0.0;0.0;0.0;0.0;0.25;0.75;0.0;0.0;2.25;0.25;0.0;-0.251465;0.029297;0.948242;0.84;-0.28;-0.63;75.0;-0.088997;-0.026974;6.25;6.25;7.75;8.25;2.0;4.5;0.0;1.0;0.75;1.0;1.75;1.75;1.0;2.0;0.0;1.5;-0.233887;0.018555;0.972656;-0.98;-1.05;0.98;399.0;-0.178187;-0.085857
2.82;1.25;2.0;1.0;1.75;0.0;0.0;0.0;0.0;0.25;0.75;0.75;0.0;0.0;2.25;0.0;0.25;-0.245605;0.04248;0.955566;0.84;-0.42;-0.56;85.0;-0.083283;-0.014688;6.0;6.25;7.25;8.25;1.25;3.75;0.0;1.25;0.5;1.25;1.5;1.75;1.0;2.25;0.0;1.5;-0.240723;0.019531;0.978516;-1.05;-1.05;0.98;380.0;-0.176152;-0.091306
2.83;1.25;1.75;1.25;2.25;0.25;0.0;0.0;0.0;0.25;1.0;0.75;0.0;0.0;3.25;0.0;0.25;-0.244629;0.054199;0.959473;0.84;-0.35;-0.63;101.0;-0.049342;-0.001923;5.5;6.0;7.0;8.25;1.25;3.75;0.0;1.0;0.75;0.75;1.25;1.75;1.0;2.25;0.0;1.75;-0.241211;0.019531;0.972168;-0.84;-0.91;0.91;366.0;-0.175495;-0.091483
2.84;1.25;2.0;1.0;1.75;0.0;0.0;0.0;0.0;0.25;1.0;1.0;0.25;0.0;3.25;0.0;0.0;-0.247559;0.047363;0.979492;1.05;-0.49;-0.42;97.0;-0.031165;-0.003903;6.0;6.0;6.75;7.75;1.75;4.0;0.0;1.0;0.75;0.75;1.25;1.75;0.75;2.25;0.0;1.75;-0.23291;0.018555;0.977539;-0.91;-0.91;0.98;368.0;-0.177155;-0.085983
2.85;1.5;2.75;1.0;2.25;0.0;0.0;0.0;0.0;0.5;1.0;0.5;0.25;0.0;3.25;0.0;0.0;-0.249023;0.048828;0.959473;0.77;-0.21;-0.35;108.0;-0.073191;-0.008097;6.0;5.75;7.0;7.5;1.75;3.75;0.0;0.75;0.75;0.75;1.0;1.0;0.5;1.5;0.0;1.25;-0.235352;0.015137;0.975098;-0.91;-0.84;0.84;343.0;-0.202106;-0.075687
2.86;2.0;3.0;1.25;2.5;0.25;0.0;0.0;0.0;0.75;1.5;0.5;0.0;0.0;4.25;0.0;0.0;-0.237793;0.037598;0.958984;0.84;-0.35;-0.42;133.0;-0.058379;0.015488;5.5;5.5;6.75;7.25;1.25;3.25;0.0;0.5;1.0;1.0;1.0;1.0;0.75;1.5;0.0;1.0;-0.237793;0.01709;0.973633;-0.98;-0.84;0.98;325.0;-0.1938;-0.071285
2.87;2.25;3.25;1.5;2.75;0.0;0.0;0.0;0.0;1.0;0.75;0.75;0.5;0.25;4.5;0.0;0.25;-0.240234;0.067871;0.927734;0.77;0.07;-0.07;147.0;-0.057288;-0.003949;5.5;5.5;6.5;7.25;1.25;2.5;0.0;0.5;1.25;1.0;1.25;1.25;0.25;1.75;0.25;1.0;-0.23584;0.015137;0.977539;-1.12;-0.84;0.84;323.0;-0.181401;-0.061364
2.88;2.5;3.25;1.5;2.75;0.0;0.0;0.0;0.0;0.25;0.25;1.0;0.25;0.25;4.5;0.0;0.25;-0.246094;0.05127;0.967285;0.49;-0.56;0.0;137.0;-0.090778;-0.018091;5.25;5.5;6.5;6.75;1.25;2.5;0.0;0.5;1.0;1.25;2.5;1.0;0.25;1.5;0.0;1.0;-0.235352;0.012695;0.974121;-0.98;-0.77;0.84;321.0;-0.175421;-0.063629
2.89;2.0;3.25;1.5;3.0;0.25;0.0;0.0;0.0;0.25;0.5;1.5;0.25;0.25;5.0;0.0;0.25;-0.244141;0.04541;0.956543;-0.07;-1.05;-0.21;147.0;-0.058653;-0.020742;5.25;5.0;6.25;6.75;1.0;2.0;0.0;0.5;0.75;0.5;1.5;1.0;0.5;1.25;0.0;1.0;-0.236816;0.013672;0.975098;-0.98;-0.77;0.84;290.0;-0.199286;-0.069701
2.9;2.75;3.25;1.75;4.0;0.25;0.25;0.0;0.0;0.5;0.75;1.75;0.5;0.25;4.5;0.0;0.5;-0.243652;0.055664;0.95752;-0.0;-0.7;0.0;175.0;-0.078802;-0.033453;5.25;5.0;5.75;6.5;1.0;1.75;0.0;0.5;0.5;0.5;1.0;1.0;0.5;1.25;0.0;0.75;-0.237793;0.01416;0.969727;-0.91;-0.77;0.84;272.0;-0.211581;-0.071113
2.91;3.0;3.5;2.5;3.75;0.25;0.5;0.0;0.0;0.5;1.0;0.5;0.75;0.5;5.0;0.25;0.5;-0.246094;0.047363;0.943359;-0.07;-0.63;-0.07;187.0;-0.084506;-0.026996;5.0;5.0;5.75;6.0;1.0;1.0;0.0;0.25;0.5;0.5;1.25;0.5;0.0;1.5;0.0;0.75;-0.233398;0.021973;0.97168;-0.84;-0.63;0.91;251.0;-0.217365;-0.049298
2.92;3.25;3.75;2.75;4.0;0.5;0.75;0.0;0.0;0.75;0.75;0.5;0.5;0.5;4.5;0.0;0.5;-0.25293;0.07959;0.979004;-0.0;-0.98;0.0;193.0;-0.114406;-0.026489;4.5;5.0;5.75;6.0;0.75;1.25;0.0;0.25;0.5;0.5;1.0;0.0;0.25;1.75;0.0;0.75;-0.238281;0.020508;0.974609;-0.7;-0.77;0.84;244.0;-0.218491;-0.051608
2.93;3.0;4.0;3.0;5.0;0.5;0.75;0.0;0.0;0.75;1.0;1.5;0.75;0.5;3.75;0.25;0.5;-0.236816;0.084473;0.933594;0.21;-0.98;0.14;214.0;-0.110223;-0.047602;4.5;4.5;5.5;5.75;0.75;1.25;0.0;0.25;0.75;0.75;1.0;0.25;0.25;1.5;0.0;0.75;-0.235352;0.015137;0.977539;-0.49;-0.63;1.05;241.0;-0.205442;-0.048688
2.94;3.75;4.25;3.25;5.5;0.75;0.75;0.0;0.0;0.75;1.25;0.75;1.5;0.75;3.75;0.25;0.25;-0.226562;0.040527;0.960938;-0.0;-1.54;0.14;234.0;-0.123297;-0.05128;4.25;4.5;5.25;5.25;0.75;1.0;0.0;0.25;0.5;0.75;0.5;0.0;0.0;1.5;0.0;0.75;-0.237793;0.012695;0.977539;-0.42;-0.49;0.91;218.0;-0.223451;-0.042422
2.95;5.25;5.25;3.5;6.0;0.75;0.75;0.0;0.25;1.0;1.25;1.0;1.5;1.25;4.75;0.0;0.25;-0.23877;0.05127;0.967773;-0.0;-1.75;0.07;279.0;-0.127192;-0.04913;3.75;3.25;5.0;5.0;0.75;0.25;0.0;0.0;0.25;0.5;0.25;0.25;0.0;1.25;0.0;0.75;-0.233398;0.013672;0.976074;-0.42;-0.63;0.98;183.0;-0.233093;-0.034571
2.96;5.0;5.75;4.25;6.75;0.75;0.75;0.0;0.25;1.0;1.5;1.5;1.75;1.0;4.75;0.0;0.5;-0.236816;0.051758;0.961426;0.07;-1.61;0.07;302.0;-0.125491;-0.052999;3.0;2.75;4.5;4.0;0.5;0.25;0.0;0.25;0.5;0.5;0.5;0.25;0.25;1.25;0.0;0.75;-0.237793;0.012695;0.975586;-0.21;-0.63;0.91;167.0;-0.197067;-0.038947
2.97;5.5;6.25;5.25;7.0;0.75;0.75;0.0;0.25;0.5;1.5;1.75;2.25;1.0;5.5;0.25;0.25;-0.237793;0.04541;0.94873;0.35;-1.4;0.28;330.0;-0.126505;-0.053995;3.25;2.5;3.25;2.75;0.25;0.25;0.0;0.0;0.5;0.5;0.25;0.0;0.25;1.0;0.0;0.75;-0.234863;0.015625;0.977051;-0.14;-0.56;0.98;132.0;-0.211112;-0.020468
2.98;5.75;6.25;5.5;7.25;1.0;1.25;0.0;0.25;0.5;1.5;2.0;1.75;1.75;5.0;0.25;0.25;-0.244141;0.043457;0.955566;0.42;-1.12;0.42;343.0;-0.133551;-0.061507;2.5;1.75;2.75;1.75;0.0;0.25;0.0;0.0;0.5;0.25;0.25;0.0;0.25;0.75;0.0;0.75;-0.234863;0.021973;0.979004;-0.07;-0.63;0.91;100.0;-0.200132;-0.014071
2.99;6.0;6.5;5.75;8.0;0.75;2.0;0.0;0.5;1.0;1.75;1.75;1.75;2.25;3.75;0.5;0.5;-0.240234;0.077148;0.952148;0.56;-0.56;0.56;368.0;-0.139291;-0.07536;1.75;1.0;1.75;0.75;0.0;0.25;0.0;0.0;0.25;0.25;0.25;0.25;0.25;0.75;0.0;0.25;-0.230957;0.019043;0.974121;0.14;-0.98;0.91;66.0;-0.164535;-0.009179
3.0;6.0;6.5;5.75;8.25;0.75;2.0;0.0;0.5;1.0;2.25;2.0;2.25;2.25;4.25;0.25;0.75;-0.23291;0.04541;0.964844;0.35;-0.56;0.56;384.0;-0.126282;-0.075753;1.0;0.5;0.75;0.5;0.0;0.25;0.0;0.0;0.0;0.0;0.25;0.25;0.0;0.5;0.0;0.0;-0.232422;0.01709;0.976074;0.35;-1.33;0.91;34.0;0.0;0.0
3.01;6.25;7.0;6.0;8.5;1.0;2.5;0.0;0.5;1.0;1.75;2.5;2.25;2.25;4.75;0.25;1.0;-0.243652;0.060547;0.958496;0.28;-0.35;0.49;406.0;-0.126511;-0.07732;0.5;0.5;0.5;0.25;0.0;0.25;0.0;0.0;0.0;0.25;0.25;0.5;0.0;0.5;0.0;0.25;-0.23584;0.022949;0.976074;1.12;-2.03;1.19;31.0;0.0;0.0
3.02;6.25;7.25;6.25;8.75;1.0;2.5;0.0;0.75;0.5;1.5;2.25;3.0;2.25;4.75;0.25;1.0;-0.238281;0.047363;0.965332;-0.0;-0.35;0.42;412.0;-0.132179;-0.088756;0.5;0.25;0.25;0.25;0.25;0.0;0.0;0.0;0.25;0.25;0.25;0.5;0.0;0.75;0.0;0.25;-0.243164;0.022461;0.986816;1.75;-2.52;1.19;31.0;0.0;0.0
3.03;6.25;7.75;6.25;9.25;1.25;3.0;0.0;0.75;0.75;1.5;2.75;3.25;2.5;3.75;0.25;1.0;-0.240723;0.059082;0.960938;-0.35;-0.63;0.42;432.0;-0.136457;-0.097074;0.25;0.25;0.25;0.25;0.0;0.0;0.0;0.0;0.0;0.0;0.25;0.25;0.0;0.25;0.0;0.0;-0.237793;0.024414;0.974609;1.96;-3.08;1.33;15.0;0.0;0.0
3.04;6.25;7.75;6.5;9.5;1.25;3.25;0.0;1.0;0.75;2.0;2.75;3.0;2.75;3.75;0.25;0.75;-0.239258;0.059082;0.959473;-0.35;-0.49;0.35;445.0;-0.135151;-0.098147;0.25;0.25;0.25;0.25;0.0;0.25;0.0;0.0;0.0;0.0;0.0;0.0;0.0;0.0;0.0;0.0;-0.236816;0.016113;0.990723;1.68;-3.71;1.54;11.0;0.0;0.0
3.05;6.25;8.0;6.75;9.25;1.75;3.75;0.0;0.75;0.5;1.75;3.0;3.75;2.75;3.75;0.25;0.75;-0.243164;0.057617;0.973145;-0.63;-0.42;0.14;456.0;-0.13458;-0.100888;0.0;0.0;0.25;0.25;0.0;0.0;0.0;0.0;0.0;0.25;0.25;0.0;0.0;0.25;0.0;0.0;-0.231934;0.011719;0.996582;0.49;-5.04;1.4;11.0;0.0;0.0
3.06;6.5;8.0;6.75;9.75;1.5;3.75;0.0;1.25;0.5;1.5;3.0;3.5;2.75;3.75;0.0;0.25;-0.234375;0.060547;0.963379;-0.56;-0.42;0.14;458.0;-0.144266;-0.104859;0.25;0.25;0.25;0.0;0.0;0.0;0.0;0.0;0.0;0.0;0.0;0.0;0.0;0.0;0.0;0.0;-0.239746;0.019043;0.992188;0.07;-5.74;1.4;6.0;0.0;0.0
3.07;6.75;8.0;6.75;10.75;1.5;3.75;0.0;1.25;0.75;1.75;3.0;3.25;2.75;3.5;0.25;0.5;-0.239746;0.058594;0.96582;-0.84;-0.28;0.21;474.0;-0.144092;-0.103819;0.0;0.0;0.0;0.25;0.0;0.0;0.0;0.0;0.0;0.0;0.0;0.0;0.0;0.0;0.0;0.0;-0.23291;0.020996;0.977539;-2.45;-8.33;0.77;2.0;0.0;0.0
3.08;6.75;8.25;6.75;10.75;1.5;4.75;0.0;1.25;0.75;2.0;2.75;4.0;3.0;3.75;0.25;0.75;-0.234375;0.057129;0.960938;-0.84;-0.14;0.21;496.0;-0.136201;-0.109723;0.25;0.25;0.0;0.0;0.0;0.0;0.0;0.0;0.0;0.0;0.0;0.0;0.0;0.0;0.0;0.0;-0.25;0.027344;0.970215;-4.41;-9.8;-0.42;4.0;0.0;0.0
3.09;6.75;8.25;6.75;10.75;2.0;4.75;0.0;1.25;1.0;2.25;2.75;3.75;3.25;3.75;0.0;1.0;-0.236816;0.052734;0.965332;-0.91;-0.14;0.21;504.0;-0.134001;-0.106382;0.0;0.0;0.0;0.0;0.0;0.0;0.0;0.0;0.0;0.0;0.0;0.0;0.0;0.0;0.0;0.0;-0.226074;-0.023926;1.005371;-4.83;-14.0;-0.42;0.0;0.0;0.0
3.1;7.0;8.75;6.75;11.0;2.0;4.75;0.0;1.5;1.25;1.75;3.5;3.5;3.0;3.75;0.25;1.0;-0.245117;0.053711;0.960449;-0.84;-0.07;0.21;519.0;-0.133897;-0.105574;0.25;0.25;0.0;0.25;0.0;0.0;0.0;0.0;0.0;0.0;0.0;0.0;0.0;0.0;0.0;0.0;-0.213867;-0.04834;1.0;-4.13;-16.450001;-0.77;6.0;0.0;0.0
3.11;7.0;8.75;6.75;11.0;1.25;4.75;0.0;1.5;0.5;1.75;3.75;3.5;3.0;3.5;0.0;1.0;-0.234375;0.053711;0.962891;-0.84;0.21;0.07;502.0;-0.14317;-0.115241;0.0;0.0;0.25;0.0;0.0;0.0;0.0;0.0;0.0;0.0;0.0;0.0;0.0;0.0;0.0;0.0;-0.098145;-0.571777;1.011719;-6.09;-15.54;-3.15;2.0;0.0;0.0
3.12;7.0;8.75;7.0;10.75;1.25;4.75;0.0;1.5;0.5;2.0;3.25;3.5;3.25;4.75;0.0;1.0;-0.236816;0.058594;0.963867;-0.91;0.28;0.0;511.0;-0.133743;-0.109153;0.0;0.0;0.0;0.0;0.0;0.0;0.0;0.0;0.0;0.0;0.0;0.0;0.0;0.0;0.0;0.0;-0.119141;-0.374512;0.975098;-9.94;-15.05;-7.14;0.0;0.0;0.0
3.13;6.75;8.75;7.0;11.0;1.75;4.75;0.0;1.5;1.0;2.0;3.0;4.0;3.25;3.5;0.0;1.0;-0.234863;0.058594;0.962891;-0.91;0.42;-0.07;514.0;-0.13717;-0.111545;0.0;0.0;0.0;0.0;0.0;0.0;0.0;0.0;0.0;0.0;0.0;0.0;0.0;0.0;0.0;0.0;-0.18457;-0.314941;1.42041;-11.76;-10.64;-27.790001;0.0;0.0;0.0
3.14;6.75;8.75;7.25;10.0;2.0;5.0;0.0;1.5;0.75;2.25;3.75;4.0;3.25;3.0;0.0;1.0;-0.23877;0.062988;0.958984;-1.12;0.49;-0.21;514.0;-0.134769;-0.111934;0.0;0.0;0.0;0.0;0.0;0.0;0.0;0.0;0.0;0.0;0.0;0.0;0.0;0.0;0.0;0.0;-0.140137;-0.322754;1.329102;-32.27;-11.41;-50.330002;0.0;0.0;0.0
3.15;7.0;8.75;7.0;10.75;2.0;5.0;0.0;1.5;0.75;2.0;3.75;4.0;3.25;3.5;0.25;1.25;-0.236328;0.062012;0.966797;-1.12;0.56;-0.35;526.0;-0.131754;-0.112467;0.0;0.0;0.0;0.0;0.0;0.0;0.0;0.0;0.0;0.0;0.0;0.0;0.0;0.0;0.0;0.0;-0.004395;-0.222656;1.03418;-27.860001;-22.889999;-59.5;0.0;0.0;0.0
3.16;6.75;8.75;6.75;11.0;2.0;4.75;0.0;1.5;1.0;1.75;3.0;4.0;3.0;3.75;0.25;1.25;-0.233887;0.057617;0.964355;-1.33;0.49;-0.35;515.0;-0.133862;-0.110497;0.0;0.0;0.0;0.0;0.0;0.0;0.0;0.0;0.0;0.0;0.0;0.0;0.0;0.0;0.0;0.0;-0.114258;-0.161621;0.936523;-33.810001;-29.33;-65.309998;0.0;0.0;0.0
3.17;6.75;8.75;7.0;11.0;1.75;5.0;0.0;1.5;1.25;2.0;2.75;4.0;3.5;3.75;0.0;1.25;-0.230957;0.06543;0.96582;-1.4;0.63;-0.49;522.0;-0.132636;-0.110888;0.0;0.0;0.0;0.0;0.0;0.0;0.0;0.0;0.0;0.0;0.0;0.0;0.0;0.0;0.0;0.0;-0.166504;-0.062988;0.875488;-34.790001;-25.969999;-64.959999;0.0;0.0;0.0
3.18;7.0;8.75;7.0;10.5;1.75;4.75;0.0;1.5;0.5;1.75;3.25;4.0;3.25;3.5;0.0;1.5;-0.23877;0.055664;0.960938;-1.26;0.56;-0.35;509.0;-0.138992;-0.115419;0.0;0.0;0.0;0.0;0.0;0.0;0.0;0.0;0.0;0.0;0.0;0.0;0.0;0.0;0.0;0.0;-0.152344;0.030273;0.881348;-35.209999;-22.540001;-61.529999;0.0;0.0;0.0
3.19;7.0;8.25;6.75;10.5;1.75;4.75;0.0;1.5;0.5;1.75;3.0;3.75;3.5;4.75;0.0;1.5;-0.233398;0.054688;0.960938;-1.26;0.7;-0.49;509.0;-0.12857;-0.111283;0.0;0.0;0.0;0.0;0.0;0.0;0.0;0.0;0.0;0.0;0.0;0.0;0.0;0.0;0.0;0.0;-0.148926;0.116211;0.908691;-29.4;-21.91;-51.59;0.0;0.0;0.0
3.2;6.75;8.25;6.75;10.5;1.75;5.0;0.0;1.5;0.5;1.75;3.0;4.0;3.5;4.5;0.25;1.0;-0.237305;0.054199;0.959473;-1.26;0.77;-0.49;509.0;-0.127818;-0.11372;0.0;0.0;0.0;0.0;0.0;0.0;0.0;0.0;0.0;0.0;0.0;0.0;0.0;0.0;0.0;0.0;-0.162598;0.139648;0.893066;-25.059999;-21.559999;-42.700001;0.0;0.0;0.0
3.21;7.0;8.75;7.0;10.5;2.0;5.0;0.0;1.5;0.75;2.0;3.0;4.0;3.25;4.25;0.0;1.25;-0.230957;0.058105;0.965332;-1.26;0.7;-0.35;520.0;-0.132259;-0.109059;0.0;0.0;0.0;0.0;0.0;0.0;0.0;0.0;0.0;0.0;0.0;0.0;0.0;0.0;0.0;0.0;-0.172852;0.163086;0.867676;-22.75;-20.299999;-32.970001;0.0;0.0;0.0
3.22;6.5;8.0;6.75;10.5;1.75;5.0;0.0;1.5;0.75;2.25;3.75;4.0;3.0;3.75;0.0;1.25;-0.23291;0.062012;0.963867;-1.26;0.77;-0.42;509.0;-0.124847;-0.112043;0.0;0.0;0.0;0.0;0.0;0.0;0.0;0.0;0.0;0.0;0.0;0.0;0.0;0.0;0.0;0.0;-0.189453;0.154297;0.844238;-21.49;-17.639999;-23.030001;0.0;0.0;0.0
3.23;6.5;8.25;6.75;10.0;1.75;4.75;0.0;1.5;0.75;2.0;3.75;4.0;3.0;3.25;0.25;1.25;-0.235352;0.056641;0.962402;-1.54;0.77;-0.49;500.0;-0.127433;-0.113191;0.0;0.0;0.0;0.0;0.0;0.0;0.0;0.0;0.0;0.0;0.0;0.0;0.0;0.0;0.0;0.0;-0.208496;0.150391;0.817871;-19.389999;-13.3;-13.16;0.0;0.0;0.0
3.24;6.5;8.0;6.75;10.0;1.5;4.75;0.0;1.5;0.75;2.25;3.75;4.25;3.25;4.25;0.25;0.5;-0.23877;0.057129;0.960449;-1.68;0.91;-0.56;506.0;-0.117886;-0.109601;0.0;0.0;0.0;0.0;0.0;0.0;0.0;0.0;0.0;0.0;0.0;0.0;0.0;0.0;0.0;0.0;-0.214844;0.141113;0.829102;-17.639999;-8.33;-4.06;0.0;0.0;0.0
3.25;6.5;8.25;6.75;10.0;1.75;5.0;0.0;1.5;0.75;2.5;3.75;3.75;3.75;4.5;0.0;0.5;-0.236328;0.061523;0.961426;-1.89;0.91;-0.7;513.0;-0.118842;-0.10907;0.0;0.0;0.0;0.0;0.0;0.0;0.0;0.0;0.0;0.0;0.0;0.0;0.0;0.0;0.0;0.0;-0.222656;0.131836;0.84668;-13.93;-2.24;8.33;0.0;0.0;0.0
3.26;6.25;8.0;6.75;9.75;1.75;4.75;0.0;1.5;1.0;1.75;3.75;3.75;3.5;4.25;0.25;1.0;-0.23291;0.061035;0.956543;-1.89;0.77;-0.77;502.0;-0.116615;-0.109226;0.0;0.0;0.0;0.0;0.0;0.0;0.0;0.0;0.0;0.0;0.0;0.0;0.0;0.0;0.0;0.0;-0.347656;0.265625;0.935547;-3.08;3.57;15.96;0.0;0.0;0.0
3.27;6.5;7.75;6.75;9.75;1.75;4.5;0.0;1.5;1.25;1.75;3.75;3.75;3.25;5.25;0.5;1.25;-0.234375;0.058594;0.961426;-1.96;0.63;-0.77;511.0;-0.104814;-0.100361;0.0;0.0;0.0;0.0;0.0;0.0;0.0;0.0;0.0;0.0;0.0;0.0;0.0;0.0;0.0;0.0;-0.26416;0.185059;0.79834;16.73;9.31;22.26;0.0;0.0;0.0
3.28;6.25;7.75;6.5;9.75;1.75;4.5;0.0;1.5;1.25;1.75;3.75;4.0;3.5;4.5;0.5;0.75;-0.23877;0.05957;0.959961;-2.17;0.77;-0.77;503.0;-0.108053;-0.106314;0.0;0.0;0.0;0.0;0.0;0.0;0.0;0.0;0.0;0.0;0.0;0.0;0.0;0.0;0.0;0.0;-0.322266;0.138184;0.838379;25.34;14.56;26.74;0.0;0.0;0.0
3.29;6.25;7.75;6.5;9.5;1.75;4.75;0.0;1.5;1.5;1.75;3.75;3.75;3.75;4.5;0.25;0.75;-0.233887;0.058105;0.961914;-2.24;0.7;-0.84;503.0;-0.108098;-0.105027;0.0;0.0;0.0;0.0;0.0;0.0;0.0;0.0;0.0;0.0;0.0;0.0;0.0;0.0;0.0;0.0;-0.320801;0.101562;0.777832;27.02;25.9;32.27;0.0;0.0;0.0
3.3;6.5;7.75;6.75;9.75;1.75;4.75;0.0;1.5;1.5;2.0;4.0;4.0;3.5;4.25;0.25;1.0;-0.23877;0.057617;0.957031;-2.31;0.77;-0.77;514.0;-0.108359;-0.104104;0.0;0.0;0.0;0.0;0.0;0.0;0.0;0.0;0.0;0.0;0.0;0.0;0.0;0.0;0.0;0.0;-0.277344;0.086426;0.723633;30.52;31.360001;32.689999;0.0;0.0;0.0
3.31;6.5;7.75;6.75;9.75;1.75;4.5;0.0;1.5;1.5;2.5;4.0;4.0;3.75;4.25;0.25;1.25;-0.241211;0.058105;0.963379;-2.38;0.77;-0.77;519.0;-0.103225;-0.103682;0.0;0.0;0.0;0.0;0.0;0.0;0.0;0.0;0.0;0.0;0.0;0.0;0.0;0.0;0.0;0.0;-0.227051;-0.170898;0.759766;48.650002;54.18;29.540001;0.0;0.0;0.0
3.32;6.25;7.75;7.0;9.75;2.0;4.5;0.0;1.5;1.5;2.0;3.75;4.0;3.25;4.75;0.0;1.5;-0.23877;0.059082;0.959473;-2.45;0.91;-0.7;514.0;-0.10663;-0.100374;0.0;0.0;0.0;0.0;0.0;0.0;0.0;0.0;0.0;0.0;0.0;0.0;0.0;0.0;0.0;0.0;-0.324219;-0.302734;1.203613;105.349998;57.82;26.74;0.0;0.0;0.0
3.33;6.25;7.5;6.75;9.75;2.0;4.5;0.0;1.5;1.75;2.0;4.0;4.0;2.75;5.0;0.0;0.75;-0.23291;0.059082;0.966797;-2.59;1.05;-0.63;509.0;-0.104666;-0.094027;0.0;0.0;0.0;0.0;0.0;0.0;0.0;0.0;0.0;0.0;0.0;0.0;0.0;0.0;0.0;0.0;-0.443848;0.54834;2.67041;35.77;49.279999;8.89;0.0;0.0;0.0
3.34;6.25;7.5;6.75;9.75;2.25;4.5;0.0;1.5;1.5;2.75;4.5;4.0;2.75;5.25;0.0;0.75;-0.232422;0.061035;0.958008;-2.59;1.05;-0.56;522.0;-0.097777;-0.092552;0.0;0.0;0.0;0.0;0.0;0.0;0.0;0.0;0.0;0.25;0.0;0.0;0.0;0.25;0.0;0.0;-0.263672;0.037598;0.873047;11.62;7.07;5.04;4.0;0.0;0.0
3.35;6.25;7.5;6.75;9.25;2.0;4.5;0.0;1.5;1.0;2.25;4.5;4.0;3.0;4.75;0.25;0.75;-0.23584;0.058594;0.963379;-2.66;1.19;-0.7;505.0;-0.103113;-0.100583;0.0;0.0;0.0;0.0;0.0;0.0;0.0;0.0;0.0;0.0;0.25;0.0;0.0;0.25;0.0;0.0;-0.280273;0.069336;1.012207;6.65;18.059999;4.69;4.0;0.0;0.0
3.36;6.25;7.25;6.75;9.25;1.75;4.25;0.0;1.25;1.25;2.0;3.75;4.0;3.25;5.25;0.75;1.5;-0.238281;0.054199;0.960449;-2.66;1.19;-0.63;503.0;-0.093659;-0.097552;0.0;0.0;0.0;0.0;0.0;0.0;0.0;0.0;0.25;0.25;0.25;0.0;0.0;0.5;0.0;0.0;-0.222656;0.013672;0.964844;6.58;5.6;2.31;11.0;0.0;0.0
3.37;6.25;7.25;6.25;9.25;1.5;3.75;0.0;1.0;1.5;2.75;3.75;4.25;3.25;5.25;0.25;1.0;-0.23584;0.061035;0.964355;-2.66;1.26;-0.77;493.0;-0.090759;-0.092364;0.0;0.0;0.0;0.0;0.0;0.0;0.0;0.0;0.0;0.5;0.0;0.0;0.0;0.5;0.0;0.0;-0.234863;0.013672;0.986328;6.09;5.74;1.47;8.0;0.0;0.0
3.38;6.25;7.0;6.25;9.25;2.0;3.75;0.0;1.0;1.5;3.0;3.0;4.0;2.5;5.0;0.0;0.75;-0.220703;0.057129;0.969238;-2.66;1.4;-0.63;478.0;-0.102273;-0.084897;0.0;0.0;0.0;0.0;0.0;0.0;0.0;0.0;0.0;0.0;0.0;0.0;0.0;0.5;0.0;0.0;-0.224609;0.015625;0.989746;5.88;3.29;1.19;4.0;0.0;0.0
3.39;6.0;7.0;6.25;8.5;1.75;3.75;0.0;1.25;1.25;3.0;3.5;4.0;2.25;5.0;0.25;1.0;-0.235352;0.052734;0.961914;-2.8;1.68;-0.84;473.0;-0.094071;-0.087964;0.0;0.0;0.0;0.0;0.0;0.0;0.0;0.0;0.0;0.25;0.0;0.0;0.0;0.75;0.0;0.25;-0.242188;0.013672;0.987793;3.85;0.84;0.7;9.0;0.0;0.0
3.4;6.25;7.0;6.0;8.5;1.75;3.5;0.0;1.0;1.5;2.5;3.75;4.25;2.5;5.25;0.25;1.0;-0.23584;0.053711;0.961914;-2.59;1.47;-0.77;474.0;-0.090133;-0.085854;0.25;0.0;0.25;0.0;0.0;0.0;0.0;0.0;0.0;0.25;0.0;0.0;0.0;1.0;0.0;0.0;-0.244141;0.00293;0.97998;2.59;-1.05;0.35;14.0;0.0;0.0
3.41;5.75;6.5;5.75;8.0;1.5;3.25;0.0;1.0;1.25;2.25;3.5;3.75;2.75;5.25;0.0;1.25;-0.237305;0.053223;0.964844;-2.45;1.61;-0.84;444.0;-0.08932;-0.089227;0.25;0.0;0.25;0.25;0.0;0.0;0.0;0.0;0.0;0.25;0.25;0.0;0.0;1.0;0.0;0.0;-0.243164;0.00293;0.973633;1.4;-1.19;0.7;18.0;0.0;0.0
3.42;5.75;6.25;6.0;8.0;1.5;3.0;0.0;0.75;1.25;2.0;3.75;3.75;2.25;5.5;0.0;0.5;-0.23584;0.056641;0.95752;-2.45;1.68;-0.84;433.0;-0.092799;-0.079608;0.0;0.25;0.5;0.0;0.0;0.0;0.0;0.0;0.25;0.5;0.25;0.25;0.0;1.0;0.0;0.25;-0.240723;0.004395;0.985352;0.91;-1.61;0.84;26.0;0.0;0.0
3.43;5.75;6.25;5.75;8.0;1.5;3.0;0.0;0.75;1.25;2.25;3.75;4.0;2.5;5.25;0.0;0.25;-0.237793;0.062988;0.96582;-2.17;1.61;-0.77;434.0;-0.09084;-0.082953;0.0;0.0;0.0;0.25;0.0;0.0;0.0;0.0;0.5;0.25;0.25;0.0;0.0;1.25;0.0;0.0;-0.239746;0.014648;0.985352;0.56;-1.75;0.91;21.0;0.0;0.0
3.44;5.5;6.25;5.75;7.25;1.5;3.0;0.0;0.5;1.5;2.5;3.5;4.0;2.25;5.5;0.25;0.5;-0.239746;0.055664;0.962891;-2.17;1.89;-0.84;428.0;-0.07962;-0.074048;0.0;0.0;0.25;0.25;0.0;0.0;0.0;0.0;0.0;0.25;0.25;0.0;0.0;1.25;0.0;0.0;-0.241211;0.005371;0.97168;0.21;-1.82;1.05;18.0;0.0;0.0
3.45;5.5;5.75;5.25;7.0;1.5;2.75;0.0;0.75;1.75;2.5;3.75;3.75;2.25;5.5;0.25;1.0;-0.236816;0.053711;0.964355;-2.17;1.75;-0.77;423.0;-0.067846;-0.073617;0.25;0.25;0.5;0.0;0.0;0.0;0.0;0.0;0.25;0.0;0.25;0.25;0.0;1.25;0.0;0.0;-0.237305;0.002441;0.975098;0.14;-1.68;1.12;25.0;0.0;0.0
3.46;5.5;5.75;5.0;7.25;1.5;2.0;0.0;0.75;1.25;2.5;3.25;3.75;2.25;5.5;0.25;1.25;-0.232422;0.057617;0.953613;-1.96;1.82;-0.77;408.0;-0.072846;-0.07696;0.25;0.25;0.5;0.25;0.0;0.0;0.0;0.0;0.5;0.25;0.5;0.25;0.0;1.25;0.0;0.25;-0.23291;0.001953;0.972168;0.07;-1.75;1.4;35.0;0.0;0.0
3.47;5.5;5.75;5.0;6.75;1.25;2.0;0.0;0.75;1.25;2.5;3.25;3.5;2.25;5.25;0.0;1.25;-0.233887;0.061035;0.961914;-1.96;1.68;-0.77;395.0;-0.076518;-0.075947;0.5;0.0;0.5;0.5;0.0;0.0;0.0;0.0;0.25;0.25;0.75;0.25;0.0;1.5;0.0;0.25;-0.239258;0.019531;0.975586;0.28;-1.54;1.47;39.0;0.0;0.0
3.48;5.0;5.25;4.75;7.0;1.25;2.0;0.0;0.75;2.0;2.75;3.5;3.75;2.25;5.75;0.25;1.0;-0.241211;0.056152;0.958496;-2.17;1.75;-0.84;406.0;-0.052562;-0.069552;0.5;0.25;0.5;0.5;0.0;0.0;0.0;0.0;0.5;0.25;0.75;0.5;0.0;1.5;0.0;0.25;-0.231934;0.013672;0.980469;0.21;-1.75;1.4;46.0;0.0;0.0
3.49;3.75;5.25;5.0;6.75;1.25;2.0;0.0;0.75;1.5;2.75;3.0;3.75;2.25;5.5;0.25;1.0;-0.236328;0.055664;0.966309;-2.1;1.68;-0.77;383.0;-0.052319;-0.078231;0.5;0.5;0.5;0.25;0.0;0.0;0.0;0.0;0.25;0.0;0.5;0.75;0.0;1.5;0.0;0.5;-0.233887;-0.010254;0.980957;0.28;-1.82;1.54;42.0;0.0;0.0
3.5;4.0;5.75;4.5;6.75;1.25;2.0;0.0;0.5;1.25;2.75;3.25;3.75;2.25;5.25;0.0;1.0;-0.236816;0.052734;0.967285;-1.96;1.54;-0.77;377.0;-0.061285;-0.081459;0.75;0.5;0.75;0.25;0.0;0.0;0.0;0.0;0.25;0.25;0.75;0.5;0.0;1.75;0.0;0.5;-0.234863;0.018066;0.978516;0.28;-1.82;1.54;50.0;0.057272;0.010074
3.51;4.0;5.25;4.5;6.75;1.5;2.0;0.0;0.75;1.5;3.25;3.0;3.75;2.25;5.25;0.5;0.5;-0.238281;0.056152;0.954102;-2.1;1.47;-0.7;386.0;-0.050806;-0.076587;0.25;0.5;0.75;0.25;0.0;0.0;0.0;0.0;0.25;0.5;0.75;0.5;0.0;2.25;0.25;0.5;-0.236816;0.005371;0.98584;0.14;-1.89;1.4;54.0;0.1395;0.011654
3.52;3.75;5.25;4.5;6.5;1.0;2.0;0.0;0.75;1.75;2.75;2.75;3.75;1.75;5.25;0.5;0.5;-0.239258;0.059082;0.960449;-2.17;1.68;-0.77;369.0;-0.051331;-0.073461;0.25;0.25;0.75;0.25;0.0;0.0;0.0;0.0;0.5;0.75;1.0;0.5;0.0;2.25;0.0;0.5;-0.229492;0.039062;0.967285;0.35;-1.75;1.54;57.0;0.160638;0.031011
3.53;3.75;5.25;4.75;6.5;1.0;1.5;0.0;0.75;1.5;2.75;3.5;3.5;1.75;5.5;0.0;1.0;-0.239258;0.057617;0.961914;-2.1;1.4;-0.7;368.0;-0.05104;-0.072143;0.25;0.25;0.75;0.5;0.0;0.0;0.0;0.0;0.75;0.75;1.0;0.5;0.0;1.75;0.0;0.75;-0.224121;0.000488;0.992188;0.07;-2.03;1.33;60.0;0.136443;0.016885
3.54;3.75;5.25;4.5;6.0;1.0;1.5;0.0;0.75;1.5;2.75;3.75;3.25;2.25;5.5;0.25;1.0;-0.245605;0.056641;0.967773;-2.1;1.47;-0.84;367.0;-0.041653;-0.074132;0.25;0.25;1.0;0.75;0.0;0.0;0.0;0.0;0.5;0.25;1.0;0.75;0.0;2.5;0.0;0.75;-0.237793;-0.009766;0.959961;-0.07;-1.89;1.19;65.0;0.1202;-0.000453
3.55;3.5;5.25;4.0;5.75;1.0;1.5;0.0;0.5;1.75;3.0;3.25;3.25;1.75;5.5;0.25;1.25;-0.240723;0.054199;0.963379;-2.1;1.33;-0.63;353.0;-0.035295;-0.066249;0.5;0.5;0.75;0.75;0.0;0.0;0.0;0.0;0.5;0.25;1.25;0.75;0.0;2.75;0.0;0.5;-0.233887;0.021973;0.980957;-0.28;-1.89;1.33;69.0;0.1089;0.00148
3.56;3.5;4.0;3.5;5.75;1.25;2.0;0.0;0.5;1.5;2.5;2.75;3.25;1.75;5.75;0.0;1.25;-0.244629;0.056152;0.961914;-2.1;1.4;-0.77;333.0;-0.033248;-0.069915;0.5;0.5;1.0;0.75;0.25;0.25;0.0;0.0;0.75;0.5;1.25;1.0;0.25;2.0;0.0;0.5;-0.236328;0.004395;0.974609;-0.42;-1.89;1.33;80.0;0.076069;-0.021726
3.57;3.5;4.25;3.5;6.0;1.25;1.5;0.0;0.5;1.5;3.0;3.75;3.5;2.25;5.5;0.25;1.25;-0.245605;0.059082;0.962891;-2.17;1.4;-0.63;353.0;-0.021508;-0.075146;0.5;0.25;1.0;0.75;0.0;0.25;0.0;0.0;1.25;0.5;1.0;1.0;0.25;2.25;0.0;0.5;-0.240723;0.000488;0.978027;-0.42;-1.82;1.26;81.0;0.109188;0.006433
3.58;3.5;4.25;4.0;5.75;1.25;1.25;0.0;0.25;1.75;2.5;3.75;3.5;2.25;5.25;0.25;1.25;-0.241211;0.058594;0.95752;-2.17;1.33;-0.7;346.0;-0.025609;-0.068017;0.75;0.5;1.0;1.0;0.0;0.5;0.0;0.0;1.25;0.75;0.75;1.0;0.0;2.75;0.25;0.75;-0.241211;0.004395;0.952148;-0.28;-1.75;1.26;94.0;0.091492;0.006704
3.59;3.0;4.0;3.0;5.75;1.25;1.25;0.0;0.25;2.0;2.75;3.75;3.75;2.25;5.75;0.0;1.25;-0.23877;0.055664;0.957031;-2.03;1.33;-0.7;339.0;-0.00464;-0.069238;1.0;0.75;1.25;1.0;0.0;0.25;0.0;0.0;1.25;1.0;1.0;1.0;0.0;2.5;0.25;0.75;-0.234863;0.003906;0.974609;-0.28;-1.68;1.26;101.0;0.068906;0.00935
3.6;3.75;4.25;3.5;5.5;1.25;1.25;0.0;0.5;2.0;3.0;3.25;3.75;1.5;5.75;0.25;1.0;-0.236816;0.055664;0.96582;-2.24;1.26;-0.63;346.0;-0.018839;-0.057835;0.75;0.75;1.0;1.0;0.25;0.25;0.0;0.25;1.25;1.25;0.75;0.75;0.25;2.5;0.0;1.0;-0.240234;0.016602;0.979004;-0.42;-1.68;1.19;101.0;0.074774;-0.005771
3.61;3.0;4.0;4.0;5.5;1.0;1.25;0.0;0.5;2.0;2.25;3.25;3.75;1.75;5.75;0.0;1.0;-0.242676;0.056641;0.960938;-2.03;1.26;-0.7;333.0;-0.018653;-0.063663;0.75;0.75;1.0;1.25;0.25;0.25;0.0;0.0;0.75;1.0;1.0;0.75;0.25;2.5;0.0;1.0;-0.23877;0.009766;0.978027;-0.28;-1.54;1.19;94.0;0.058039;-0.018524
3.62;3.0;4.25;4.0;5.25;1.0;1.25;0.0;0.5;2.25;2.25;3.0;3.75;2.25;5.75;0.25;1.0;-0.240723;0.055176;0.962402;-2.17;1.19;-0.63;339.0;-0.013634;-0.064514;0.5;1.0;1.25;1.0;0.25;0.25;0.0;0.0;0.75;1.0;0.75;1.0;0.25;2.75;0.0;1.0;-0.233887;0.013672;0.968262;-0.21;-1.4;1.4;96.0;0.065551;-0.017299
3.63;3.5;4.25;4.0;5.25;1.0;1.25;0.0;0.5;2.25;2.25;3.5;3.75;2.25;5.75;0.5;1.0;-0.240723;0.052246;0.963379;-2.17;1.05;-0.56;350.0;-0.01279;-0.063124;0.5;1.0;1.5;1.25;0.25;0.25;0.0;0.0;0.75;1.0;1.0;1.0;0.25;2.75;0.0;0.75;-0.241211;0.011719;0.97168;-0.21;-1.54;1.26;102.0;0.050103;-0.018318
3.64;3.0;4.0;4.0;5.5;0.75;1.25;0.0;0.5;2.25;2.75;3.5;3.25;1.75;5.75;0.25;1.25;-0.239258;0.054199;0.965332;-2.17;1.05;-0.56;339.0;-0.009697;-0.058427;0.5;1.0;1.25;1.25;0.25;0.25;0.0;0.0;0.75;1.25;1.25;1.0;0.0;2.25;0.25;0.75;-0.240234;0.01709;0.978027;-0.35;-1.54;1.26;100.0;0.058175;-0.021467
3.65;3.0;4.0;3.5;5.5;1.25;1.25;0.0;0.5;1.5;2.5;3.5;3.0;2.25;5.75;0.0;1.25;-0.244629;0.052246;0.95459;-2.03;1.12;-0.63;328.0;-0.018271;-0.070751;0.75;1.0;1.5;1.25;0.0;0.5;0.0;0.25;1.25;1.25;1.0;1.0;0.25;2.5;0.0;0.75;-0.236328;0.012695;0.976562;-0.42;-1.4;1.19;113.0;0.047059;-0.020475
3.66;3.25;4.0;3.5;5.5;1.25;1.25;0.0;0.5;1.5;3.0;3.75;3.25;2.25;6.0;0.25;0.5;-0.241211;0.055176;0.960449;-1.96;1.19;-0.63;340.0;-0.013141;-0.065938;0.75;1.0;1.75;1.5;0.25;0.25;0.0;0.25;1.5;1.5;1.0;1.25;0.5;2.5;0.0;1.0;-0.233887;0.013672;0.968262;-0.35;-1.4;1.19;128.0;0.050918;-0.022146
3.67;3.25;4.0;3.5;4.25;0.75;1.25;0.0;0.5;2.25;3.75;3.5;3.5;2.25;5.75;0.25;0.5;-0.24707;0.059082;0.964355;-1.89;1.19;-0.56;336.0;0.006878;-0.053907;0.75;1.0;1.75;1.25;0.25;0.25;0.0;0.25;0.75;1.5;1.25;1.25;0.5;2.75;0.0;1.0;-0.231934;0.015137;0.981934;-0.28;-1.4;1.4;121.0;0.051918;-0.037166
3.68;3.0;4.0;3.25;4.75;0.75;1.25;0.0;0.5;2.5;3.5;3.25;3.25;2.25;5.75;0.5;1.0;-0.237305;0.055176;0.960449;-2.03;1.33;-0.49;337.0;0.010203;-0.056331;0.75;0.75;1.75;1.25;0.25;0.5;0.0;0.25;0.75;1.25;1.5;1.25;0.25;2.75;0.25;1.0;-0.234863;0.007812;0.974121;-0.28;-1.4;1.26;122.0;0.059962;-0.037178
3.69;3.0;3.75;3.0;4.75;0.75;1.0;0.0;0.5;2.5;2.75;3.25;3.25;1.75;5.75;0.25;0.75;-0.244629;0.057617;0.955566;-1.89;1.26;-0.56;317.0;0.005362;-0.051857;1.0;1.0;1.75;1.25;0.5;0.5;0.0;0.0;0.75;1.25;2.0;1.75;0.5;2.75;0.25;1.0;-0.225586;0.011719;0.980469;-0.21;-1.4;1.47;136.0;0.056024;-0.043404
3.7;3.0;3.25;3.25;4.25;1.0;1.0;0.0;0.5;2.25;2.75;3.75;3.25;1.75;5.75;0.0;0.75;-0.236328;0.053711;0.960938;-2.03;1.26;-0.56;313.0;0.009913;-0.049565;1.0;1.0;1.5;1.5;0.5;0.5;0.0;0.0;0.75;1.75;1.25;1.0;0.75;2.75;0.25;1.25;-0.23877;0.010742;0.975098;-0.28;-1.47;1.12;130.0;0.049861;-0.037144
3.71;2.75;3.25;3.0;4.75;0.75;1.25;0.0;0.5;2.25;2.5;3.5;3.25;1.5;5.75;0.0;0.5;-0.249023;0.055176;0.961914;-2.03;1.33;-0.56;305.0;0.004822;-0.053749;1.0;1.0;1.5;1.25;0.25;0.5;0.0;0.25;1.25;1.5;1.0;0.75;0.75;2.5;0.0;0.75;-0.229492;0.018555;0.976562;-0.28;-1.4;1.26;121.0;0.039988;-0.023443
3.72;2.75;3.25;3.0;4.75;0.5;1.25;0.0;0.5;2.25;2.5;3.5;3.0;2.25;5.75;0.25;0.5;-0.244629;0.04834;0.959961;-1.96;1.26;-0.63;309.0;0.010166;-0.060353;1.0;1.0;1.75;2.0;0.25;0.75;0.0;0.25;0.5;1.25;1.25;1.0;0.75;2.75;0.0;0.75;-0.22998;0.017578;0.972656;-0.35;-1.47;1.4;128.0;0.007428;-0.060668
3.73;2.5;3.5;3.25;4.25;0.5;1.25;0.0;0.25;2.25;2.75;3.75;2.75;2.25;5.75;0.5;1.0;-0.243164;0.063965;0.957031;-1.89;1.26;-0.56;310.0;0.020137;-0.055096;1.25;1.25;1.75;1.75;0.5;0.75;0.0;0.5;0.5;1.5;1.75;1.25;0.75;2.5;0.0;1.0;-0.232422;-0.002441;0.973145;-0.42;-1.26;1.19;144.0;0.008755;-0.070681
3.74;2.25;3.0;2.75;4.0;0.5;1.25;0.0;0.25;2.0;2.5;3.75;3.75;2.25;5.75;0.25;0.5;-0.239258;0.052734;0.962402;-1.96;1.33;-0.49;296.0;0.032069;-0.064711;1.0;1.0;1.75;1.75;0.5;0.75;0.0;0.5;0.75;1.5;2.0;1.0;0.75;2.5;0.0;1.0;-0.23877;0.012207;0.973633;-0.28;-1.4;1.33;142.0;0.025802;-0.062683
3.75;2.75;2.75;2.5;4.0;0.5;1.0;0.0;0.25;2.5;2.25;3.25;3.5;2.25;5.75;0.0;0.5;-0.248047;0.052734;0.95459;-1.89;1.33;-0.42;288.0;0.027899;-0.052882;1.0;1.25;2.25;1.75;0.25;0.75;0.0;0.5;1.5;1.75;2.25;1.0;0.75;2.75;0.25;1.25;-0.238281;0.01416;0.97998;-0.35;-1.47;1.33;164.0;0.043191;-0.042876
3.76;2.5;3.0;2.75;3.75;0.75;1.0;0.0;0.25;2.25;2.25;3.0;2.75;2.25;5.75;0.0;0.5;-0.25;0.053223;0.960938;-1.89;1.33;-0.56;279.0;0.018981;-0.048321;0.75;1.25;2.25;1.75;0.25;0.75;0.0;0.5;1.25;2.0;2.25;1.25;0.75;3.0;0.5;1.5;-0.255859;-0.013672;0.960938;-0.42;-1.4;1.4;169.0;0.061005;-0.051911
3.77;2.5;3.25;2.5;3.25;0.75;1.25;0.0;0.25;2.0;2.5;2.75;3.0;1.75;5.75;0.5;1.0;-0.241699;0.055664;0.967773;-1.89;1.12;-0.49;279.0;0.028277;-0.050216;1.5;1.25;1.75;1.75;0.5;0.75;0.0;0.0;1.0;1.75;2.0;1.75;0.5;2.5;0.25;1.5;-0.234375;0.013672;0.974609;-0.56;-1.47;1.33;156.0;0.033387;-0.047306
3.78;2.5;3.25;2.5;3.25;0.75;1.0;0.0;0.25;2.5;2.5;2.75;3.25;1.5;5.5;0.25;0.5;-0.239746;0.058105;0.961914;-1.82;1.12;-0.49;276.0;0.026492;-0.040202;1.5;1.5;2.5;2.0;0.25;0.75;0.0;0.0;1.25;1.75;2.25;1.75;0.75;2.25;0.0;1.25;-0.237793;-0.003906;0.978516;-0.84;-1.47;1.33;167.0;0.009818;-0.047179
3.79;2.25;3.0;2.0;3.25;0.75;0.75;0.0;0.25;1.75;2.75;2.75;3.0;1.5;5.5;0.0;0.5;-0.243164;0.056152;0.961426;-1.89;1.26;-0.63;254.0;0.029979;-0.047496;1.25;2.0;1.75;2.25;0.25;0.75;0.0;0.0;1.25;1.5;2.0;1.0;0.25;2.5;0.25;1.25;-0.234863;0.012207;0.978516;-0.63;-1.4;1.26;153.0;0.004787;-0.039069
3.8;2.5;3.5;2.5;3.25;0.75;0.75;0.0;0.25;2.0;2.75;3.0;2.75;1.5;5.75;0.25;0.75;-0.241699;0.052734;0.955566;-1.82;1.26;-0.56;273.0;0.024556;-0.040821;1.0;1.5;2.25;2.0;0.5;0.75;0.0;0.0;1.5;1.5;1.75;1.0;0.0;2.25;0.0;1.75;-0.233398;0.032227;0.981445;-0.77;-1.47;1.47;149.0;0.009536;-0.023586
3.81;2.25;3.0;2.5;3.0;0.75;0.75;0.0;0.25;2.5;2.5;3.0;3.25;1.75;5.75;0.75;0.75;-0.243164;0.057129;0.959961;-1.82;1.12;-0.49;279.0;0.049358;-0.040832;2.25;1.25;2.25;2.25;0.5;0.25;0.0;0.0;1.5;1.5;1.75;1.25;0.5;2.25;0.0;2.0;-0.23291;0.022461;0.97168;-0.7;-1.47;1.26;163.0;-0.003797;-0.024569
3.82;1.75;2.75;2.5;3.0;0.75;0.75;0.0;0.25;2.25;3.0;2.75;3.25;1.5;5.75;0.75;1.0;-0.241699;0.054199;0.966309;-1.82;1.12;-0.49;271.0;0.059941;-0.041535;2.25;1.75;2.25;2.0;0.5;0.25;0.0;0.0;1.5;1.5;2.25;1.25;0.5;2.5;0.0;1.75;-0.234375;0.011719;0.980469;-0.77;-1.54;1.33;169.0;-0.001441;-0.023336
3.83;2.0;3.0;1.75;3.25;0.5;0.75;0.0;0.0;2.0;3.0;2.75;2.75;1.25;5.75;0.5;1.0;-0.242188;0.053711;0.959473;-1.96;1.05;-0.42;254.0;0.052287;-0.038604;1.5;1.5;1.75;2.25;0.5;0.25;0.0;0.25;1.5;2.0;2.75;1.0;0.75;2.75;0.0;1.5;-0.235352;0.013672;0.982422;-0.7;-1.54;1.33;170.0;0.034814;-0.036706
3.84;1.5;2.75;2.0;3.0;0.5;1.0;0.0;0.0;1.75;2.75;3.0;3.0;1.25;5.5;0.0;0.75;-0.246582;0.054688;0.960938;-1.82;0.98;-0.42;242.0;0.050756;-0.04644;1.5;1.25;2.25;2.25;0.5;0.5;0.0;0.25;1.75;1.5;2.75;1.0;0.25;2.75;0.25;1.75;-0.224121;0.008301;0.978027;-0.77;-1.4;1.26;174.0;0.031669;-0.026019
3.85;1.25;2.75;2.0;3.0;0.5;0.75;0.0;0.25;1.75;2.75;3.0;2.75;1.5;5.75;0.0;0.75;-0.245605;0.055664;0.953613;-1.89;0.98;-0.49;242.0;0.058041;-0.049448;1.75;1.5;2.5;2.25;0.75;0.75;0.0;0.25;1.5;1.75;2.75;1.75;0.25;3.0;0.0;1.75;-0.232422;0.012207;0.969727;-0.56;-1.4;1.33;190.0;0.018944;-0.036503
3.86;2.25;2.25;2.0;3.0;0.75;0.75;0.0;0.25;1.75;3.5;2.75;2.5;1.5;5.75;0.0;1.0;-0.248535;0.054688;0.956543;-1.89;1.05;-0.56;253.0;0.051109;-0.036771;1.5;1.5;2.5;1.75;0.75;1.0;0.0;0.0;1.5;1.75;2.75;1.25;0.5;3.25;0.25;1.75;-0.236328;0.019043;0.970215;-0.63;-1.47;1.26;184.0;0.035459;-0.026781
3.87;2.25;2.75;2.0;3.0;0.75;0.75;0.0;0.0;1.75;2.75;3.0;2.5;1.25;5.75;0.0;1.0;-0.242188;0.052734;0.961426;-1.96;0.98;-0.42;247.0;0.040305;-0.034426;1.5;1.75;2.25;2.0;0.75;1.0;0.0;0.25;1.75;1.75;2.75;1.25;0.75;3.0;0.25;1.75;-0.231445;0.0625;0.968262;-0.7;-1.4;1.33;192.0;0.030851;-0.039779
3.88;2.0;3.0;2.5;3.0;0.75;0.5;0.0;0.0;2.5;2.25;3.5;2.75;1.5;5.75;0.0;1.0;-0.245117;0.055664;0.958496;-1.89;0.77;-0.42;262.0;0.045713;-0.030804;1.5;1.75;2.75;2.5;0.75;1.0;0.0;0.25;1.75;1.75;2.75;1.75;0.75;2.75;0.25;1.75;-0.233887;0.005859;0.977539;-0.77;-1.47;1.26;204.0;0.017362;-0.048451
3.89;2.25;3.0;1.75;3.0;0.5;0.5;0.0;0.25;2.25;2.25;3.5;3.0;1.75;5.75;0.0;0.5;-0.246094;0.053711;0.960938;-1.89;0.91;-0.42;257.0;0.048466;-0.044292;1.75;1.75;2.5;2.5;0.5;0.75;0.0;0.0;1.5;1.25;2.75;1.75;0.5;2.75;0.0;1.75;-0.23584;0.015137;0.972656;-0.91;-1.47;1.33;185.0;0.005385;-0.043964
3.9;1.75;2.25;2.0;2.75;0.5;0.5;0.0;0.0;2.25;2.25;2.75;3.25;1.75;5.75;0.0;0.5;-0.245605;0.050781;0.956055;-1.89;0.91;-0.49;239.0;0.065435;-0.036819;1.75;1.75;2.5;2.5;0.5;0.75;0.0;0.0;1.75;1.5;2.0;1.75;0.75;3.0;0.25;1.5;-0.23291;0.01123;0.974121;-0.84;-1.54;1.19;188.0;0.012122;-0.036324
3.91;1.75;2.0;2.0;3.0;0.5;0.5;0.0;0.0;2.25;2.25;3.0;2.75;1.5;5.75;0.0;0.75;-0.243164;0.055176;0.962891;-2.03;0.77;-0.42;236.0;0.06538;-0.031532;1.0;1.5;2.75;2.0;0.5;1.0;0.0;0.0;1.75;1.5;2.25;2.25;0.5;3.0;0.0;1.5;-0.235352;0.008789;0.972656;-0.77;-1.47;1.26;182.0;0.034353;-0.039138
3.92;1.75;2.75;2.5;3.0;0.5;0.5;0.0;0.25;2.0;2.5;2.75;2.25;1.5;5.75;0.25;0.5;-0.240723;0.051758;0.960938;-1.96;0.7;-0.49;244.0;0.04375;-0.03327;1.0;2.0;2.75;2.25;0.5;1.25;0.0;0.25;1.75;1.5;2.75;1.75;0.5;2.75;0.0;1.75;-0.253906;-0.005859;0.982422;-0.84;-1.47;1.26;193.0;0.017352;-0.051966
3.93;1.75;2.75;2.5;2.75;0.5;0.5;0.0;0.25;2.0;2.75;2.5;2.75;1.5;6.0;0.5;0.5;-0.244629;0.058105;0.959961;-1.89;0.63;-0.42;250.0;0.055671;-0.033502;1.25;1.75;2.5;2.75;0.5;1.0;0.0;0.5;1.75;1.5;2.25;1.75;0.75;2.75;0.0;1.75;-0.234375;0.014648;0.975586;-0.7;-1.54;1.26;194.0;0.011378;-0.060252
3.94;1.75;3.0;2.0;3.0;0.5;0.75;0.0;0.25;1.75;2.75;3.0;3.0;1.5;5.75;0.5;0.75;-0.243164;0.051758;0.961914;-1.89;0.84;-0.42;255.0;0.053999;-0.05034;1.5;1.5;2.5;2.5;0.5;1.0;0.0;0.5;1.75;1.75;2.0;1.75;0.75;3.0;0.0;2.0;-0.246582;0.001953;0.973633;-0.84;-1.61;1.26;195.0;0.020418;-0.052666
3.95;1.75;3.0;2.0;2.75;0.25;0.75;0.0;0.25;1.75;2.75;2.75;2.25;1.5;5.5;0.0;0.5;-0.247559;0.054199;0.959961;-1.89;0.77;-0.49;234.0;0.042218;-0.042026;1.25;2.0;2.75;2.5;0.75;1.0;0.0;0.25;1.75;1.75;2.25;1.75;0.75;3.0;0.25;1.5;-0.234375;0.021973;0.974121;-0.84;-1.61;1.26;200.0;0.014745;-0.046262
3.96;1.75;2.75;2.0;2.75;0.25;0.75;0.0;0.0;1.5;2.75;2.75;2.0;1.25;5.5;0.0;0.5;-0.241211;0.058105;0.962891;-2.03;0.91;-0.49;222.0;0.041633;-0.033868;1.25;2.25;3.0;2.75;0.75;1.0;0.0;0.25;1.75;1.75;2.25;1.75;0.75;3.0;0.0;1.75;-0.235352;0.01416;0.973633;-0.84;-1.54;1.19;205.0;0.00182;-0.048946
3.97;2.5;2.75;2.0;3.0;0.5;0.5;0.0;0.0;1.5;2.0;2.75;2.25;1.25;5.5;0.0;0.75;-0.243652;0.056641;0.95459;-1.96;0.84;-0.49;228.0;0.023418;-0.03512;1.5;2.0;3.0;2.75;0.75;1.0;0.0;0.25;1.75;1.75;2.25;1.75;0.75;3.0;0.25;1.75;-0.252441;-0.005371;0.976562;-0.77;-1.47;1.26;208.0;0.0058;-0.046569
3.98;2.25;2.75;2.0;2.75;0.5;0.5;0.0;0.0;1.75;2.0;2.75;2.5;1.25;5.75;0.25;1.0;-0.24707;0.054199;0.960449;-1.82;0.77;-0.42;234.0;0.043173;-0.033611;1.75;2.0;3.0;2.75;0.75;0.75;0.0;0.25;1.75;1.75;2.0;1.75;1.0;2.5;0.0;1.75;-0.238281;0.014648;0.974609;-0.7;-1.47;1.33;201.0;-0.009369;-0.048964
3.99;2.0;2.25;1.75;2.75;0.25;0.5;0.0;0.0;2.0;2.5;2.75;2.5;1.5;5.75;0.25;1.0;-0.243652;0.054199;0.958984;-1.89;0.7;-0.42;232.0;0.066962;-0.032841;2.25;2.0;2.75;2.5;0.75;0.75;0.0;0.5;2.0;2.0;2.5;1.75;1.0;3.0;0.25;1.75;-0.235352;0.005371;0.977539;-0.84;-1.54;1.19;219.0;0.010048;-0.043263
4.0;1.75;2.25;1.75;2.75;0.5;0.5;0.0;0.0;2.0;2.5;2.75;2.5;1.5;5.5;0.0;0.5;-0.242676;0.052734;0.962891;-1.96;0.98;-0.49;226.0;0.060456;-0.031577;2.25;1.75;2.75;2.75;0.75;1.0;0.0;0.25;2.0;2.0;2.25;1.75;0.5;3.25;0.5;1.5;-0.233398;0.01416;0.972656;-0.84;-1.54;1.26;216.0;0.009963;-0.030669
4.01;1.75;2.75;1.75;2.75;0.25;0.5;0.0;0.25;1.5;2.25;2.75;2.75;1.5;5.5;0.0;0.5;-0.246582;0.057129;0.960938;-1.75;0.84;-0.42;225.0;0.048109;-0.05087;1.75;2.0;2.5;2.75;0.75;1.0;0.0;0.25;1.75;2.0;2.5;1.75;0.5;2.75;0.25;1.5;-0.234375;0.004883;0.973633;-0.84;-1.54;1.19;205.0;0.005506;-0.044339
4.02;2.0;2.25;1.75;2.75;0.5;0.5;0.0;0.25;1.5;1.75;3.0;2.5;1.75;5.75;0.0;0.5;-0.246094;0.055176;0.957031;-2.03;0.91;-0.49;225.0;0.05028;-0.048195;1.75;2.25;2.75;2.75;1.0;1.0;0.0;0.25;1.25;1.75;2.25;1.75;0.75;2.75;0.25;1.5;-0.22998;0.015137;0.977051;-0.84;-1.47;1.19;203.0;-0.013244;-0.055499
4.03;2.0;2.25;1.75;2.75;0.5;0.5;0.0;0.25;1.5;2.75;2.75;2.5;1.25;5.75;0.0;0.75;-0.241211;0.054688;0.95752;-1.89;0.91;-0.49;229.0;0.055469;-0.037988;2.25;2.25;2.75;2.75;0.25;1.0;0.0;0.25;1.75;1.75;2.25;1.75;0.75;2.5;0.0;2.0;-0.236328;0.009766;0.975586;-0.84;-1.54;1.19;205.0;-0.014614;-0.05177
4.04;2.25;2.75;2.75;2.5;0.5;0.5;0.0;0.25;1.5;2.75;2.75;2.25;1.0;5.75;0.0;1.0;-0.244141;0.048828;0.953125;-1.89;0.63;-0.42;239.0;0.03364;-0.027643;1.75;2.0;3.25;3.0;0.25;1.0;0.0;0.5;2.0;2.0;2.25;1.75;0.75;2.75;0.0;1.75;-0.243652;0.004395;0.975098;-0.84;-1.47;1.19;214.0;-0.003875;-0.049148
4.05;1.5;2.75;2.75;2.75;0.5;0.25;0.0;0.0;1.75;2.25;2.5;2.75;0.75;5.75;0.0;1.0;-0.246094;0.054199;0.958984;-1.89;0.91;-0.56;228.0;0.044494;-0.024975;2.5;2.25;3.25;2.75;0.25;1.25;0.0;0.5;1.75;2.0;2.25;1.75;0.5;3.0;0.0;1.75;-0.23584;0.014648;0.976562;-0.77;-1.47;1.19;220.0;-0.019173;-0.044718
4.06;2.0;2.25;2.0;2.75;0.5;0.25;0.0;0.0;1.5;1.75;2.5;3.0;1.0;5.75;0.0;1.0;-0.246094;0.058594;0.959961;-1.89;0.77;-0.42;219.0;0.049823;-0.035415;2.25;2.25;3.0;2.75;0.25;1.0;0.0;0.5;1.75;2.0;2.25;1.75;0.5;3.0;0.0;1.75;-0.237793;0.007324;0.972656;-0.77;-1.4;1.19;213.0;-0.011139;-0.045312
4.07;2.25;2.0;1.75;2.75;0.5;0.5;0.0;0.0;1.5;1.75;3.0;2.75;1.25;5.75;0.0;1.0;-0.243652;0.055664;0.958496;-1.96;0.77;-0.49;223.0;0.053575;-0.039127;2.25;2.25;3.0;3.0;0.5;0.75;0.0;0.5;2.25;2.25;2.25;1.75;0.5;2.75;0.25;1.75;-0.234863;0.01416;0.970703;-0.84;-1.54;1.26;223.0;-0.003946;-0.036987
4.08;2.25;2.25;1.75;2.75;0.5;0.5;0.0;0.0;1.5;2.25;2.75;3.0;1.5;5.75;0.25;1.0;-0.242676;0.05127;0.962891;-1.82;0.7;-0.42;233.0;0.057303;-0.043694;2.25;2.0;3.0;3.25;0.75;1.0;0.0;0.0;2.25;2.0;2.75;1.75;0.75;2.5;0.0;1.5;-0.232422;0.010254;0.979004;-0.77;-1.54;1.19;221.0;-0.011654;-0.034948
4.09;2.0;2.25;1.75;2.75;0.5;0.5;0.0;0.0;1.75;2.25;2.75;2.75;1.5;5.5;0.25;1.25;-0.241699;0.04834;0.956543;-1.96;0.63;-0.49;231.0;0.061287;-0.042;2.75;2.5;3.0;3.0;0.5;1.0;0.0;0.25;2.0;2.0;2.5;1.75;0.75;2.25;0.0;1.5;-0.229492;0.014648;0.975586;-0.84;-1.47;1.12;221.0;-0.031481;-0.043337
4.1;2.0;2.25;2.0;2.75;0.5;0.25;0.0;0.0;1.75;2.5;2.75;3.5;1.25;5.5;0.0;0.75;-0.243652;0.053223;0.960449;-1.89;0.91;-0.49;234.0;0.058854;-0.038304;2.75;2.25;3.0;2.5;0.75;1.0;0.0;0.25;1.75;2.5;2.25;1.75;0.75;2.5;0.0;1.75;-0.236328;0.009766;0.976074;-0.77;-1.47;1.33;219.0;-0.018794;-0.038075
4.11;2.25;2.25;2.0;2.75;0.75;0.25;0.0;0.0;2.25;2.25;2.75;3.0;1.25;5.75;0.0;0.5;-0.245605;0.061035;0.963379;-1.82;0.7;-0.42;237.0;0.054196;-0.021975;1.75;2.25;2.75;2.5;0.75;1.0;0.0;0.0;2.0;2.25;2.25;1.75;0.5;2.5;0.0;1.75;-0.233398;0.009766;0.97998;-0.77;-1.47;1.26;203.0;-0.000465;-0.033335
4.12;2.0;2.0;1.75;2.75;0.75;0.25;0.0;0.0;1.75;2.25;3.0;2.75;1.25;5.75;0.0;1.0;-0.241699;0.056641;0.956055;-1.89;0.63;-0.42;228.0;0.064179;-0.03145;1.5;2.25;3.0;3.0;0.75;1.25;0.0;0.25;1.75;2.0;2.0;1.75;0.75;2.75;0.25;1.25;-0.234375;0.01416;0.978516;-0.7;-1.4;1.12;210.0;-0.010182;-0.049193
4.13;2.25;3.0;1.5;2.75;0.5;0.5;0.0;0.0;1.5;2.5;3.0;3.0;1.25;5.5;0.25;1.0;-0.245605;0.053223;0.958008;-1.89;0.7;-0.56;237.0;0.048645;-0.046099;2.5;2.0;3.0;3.0;0.75;1.0;0.0;0.5;1.5;2.0;2.5;2.25;0.75;2.75;0.0;2.0;-0.233398;0.02832;0.978516;-0.77;-1.33;1.26;225.0;-0.013245;-0.058476
4.14;2.25;2.75;1.75;2.75;0.5;0.5;0.0;0.25;1.5;2.25;3.0;2.75;1.0;5.75;0.5;0.5;-0.240723;0.055664;0.958008;-1.89;0.7;-0.42;236.0;0.04742;-0.039936;2.5;2.25;3.25;2.75;0.75;1.25;0.0;0.5;1.75;2.25;2.75;1.75;0.5;2.5;0.0;1.75;-0.239258;0.012207;0.970703;-0.84;-1.4;1.26;227.0;-0.020912;-0.046411
4.15;1.75;2.25;1.5;2.75;0.75;0.75;0.0;0.0;1.5;2.0;3.25;2.5;1.0;5.75;0.25;0.5;-0.243164;0.053711;0.956543;-1.75;0.7;-0.42;223.0;0.059198;-0.037127;1.75;2.25;3.5;3.5;0.75;1.0;0.0;0.5;1.75;2.5;2.25;1.75;0.5;2.5;0.0;1.5;-0.237305;0.012695;0.974121;-0.84;-1.4;1.19;224.0;-0.023471;-0.048883
4.16;2.5;2.75;1.5;2.75;0.5;0.25;0.0;0.0;1.5;2.0;2.75;2.75;1.25;5.75;0.25;0.25;-0.243164;0.054199;0.958984;-1.96;0.49;-0.49;225.0;0.041446;-0.034411;2.5;2.25;3.5;3.5;0.75;1.0;0.0;0.5;1.75;2.25;2.25;1.75;0.5;2.75;0.25;1.75;-0.23291;0.015625;0.977051;-0.91;-1.4;1.19;234.0;-0.027175;-0.045426
4.17;1.75;2.0;1.75;2.75;0.5;0.0;0.0;0.25;1.5;2.5;2.75;2.5;1.0;5.5;0.0;0.25;-0.241211;0.057129;0.959961;-1.96;0.42;-0.42;212.0;0.059693;-0.02951;2.75;2.25;3.25;3.0;0.5;1.0;0.0;0.5;1.25;2.25;2.25;1.75;0.5;3.0;0.25;1.5;-0.240723;0.020996;0.976562;-0.84;-1.4;1.33;222.0;-0.027383;-0.047438
