Time;left pressure 1[N/cm²];left pressure 2[N/cm²];left pressure 3[N/cm²];left pressure 4[N/cm²];left pressure 5[N/cm²];left pressure 6[N/cm²];left pressure 7[N/cm²];left pressure 8[N/cm²];left pressure 9[N/cm²];left pressure 10[N/cm²];left pressure 11[N/cm²];left pressure 12[N/cm²];left pressure 13[N/cm²];left pressure 14[N/cm²];left pressure 15[N/cm²];left pressure 16[N/cm²];left acceleration X[g];left acceleration Y[g];left acceleration Z[g];left angular X[dps];left angular Y[dps];left angular Z[dps];left total force[N];left center of pressure X[-0.5...+0.5];left center of pressure Y[-0.5...+0.5];right pressure 1[N/cm²];right pressure 2[N/cm²];right pressure 3[N/cm²];right pressure 4[N/cm²];right pressure 5[N/cm²];right pressure 6[N/cm²];right pressure 7[N/cm²];right pressure 8[N/cm²];right pressure 9[N/cm²];right pressure 10[N/cm²];right pressure 11[N/cm²];right pressure 12[N/cm²];right pressure 13[N/cm²];right pressure 14[N/cm²];right pressure 15[N/cm²];right pressure 16[N/cm²];right acceleration X[g];right acceleration Y[g];right acceleration Z[g];right angular X[dps];right angular Y[dps];right angular Z[dps];right total force[N];right center of pressure X[-0.5...+0.5];right center of pressure Y[-0.5...+0.5]
0.0;2.25;1.75;3.0;3.5;5.5;5.75;1.25;4.0;3.25;1.75;1.25;1.5;2.0;6.25;0.75;1.25;-0.17041;0.028809;1.007812;1.47;1.4;0.63;534.0;-0.000731;-0.067794;1.25;3.25;1.5;2.75;1.0;1.5;0.0;0.25;0.0;0.0;0.0;0.0;0.0;0.0;0.0;0.0;-0.186035;0.144043;1.060059;3.71;-23.66;12.95;132.0;-0.287224;-0.116893
0.01;2.25;1.75;3.0;3.5;5.5;5.75;1.25;4.0;3.25;1.75;1.25;1.5;2.0;6.25;0.75;1.25;-0.17041;0.028809;1.007812;1.47;1.4;0.63;534.0;-0.000731;-0.067794;1.0;3.25;1.25;1.75;0.75;0.75;0.0;0.0;0.0;0.0;0.0;0.0;0.0;0.0;0.0;0.0;-0.27002;0.272949;1.084473;-1.19;-27.440001;19.460001;98.0;-0.313374;-0.096228
0.02;2.25;1.75;3.0;3.5;5.5;5.75;1.25;4.0;3.25;1.75;1.25;1.5;2.0;6.25;0.75;1.25;-0.17041;0.028809;1.007812;1.47;1.4;0.63;534.0;-0.000731;-0.067794;0.25;3.0;1.25;1.25;0.75;0.75;0.0;0.0;0.0;0.0;0.0;0.0;0.0;0.0;0.0;0.0;-0.362793;0.537598;1.114258;-14.21;-31.15;32.759998;81.0;-0.302668;-0.105986
0.03;2.25;1.75;3.0;3.5;5.5;5.75;1.25;4.0;3.25;1.75;1.25;1.5;2.0;6.25;0.75;1.25;-0.17041;0.028809;1.007812;1.47;1.4;0.63;534.0;-0.000731;-0.067794;0.0;2.0;1.0;0.75;0.25;0.25;0.0;0.0;0.0;0.0;0.0;0.0;0.0;0.0;0.0;0.0;-0.410156;0.729492;1.03418;-24.780001;-33.110001;56.700001;47.0;0.0;0.0
0.04;2.25;1.75;3.0;3.5;5.5;5.75;1.25;4.0;3.25;1.75;1.25;1.5;2.0;6.25;0.75;1.25;-0.17041;0.028809;1.007812;1.47;1.4;0.63;534.0;-0.000731;-0.067794;0.0;1.25;0.75;0.25;0.25;0.0;0.0;0.0;0.0;0.0;0.0;0.0;0.0;0.0;0.0;0.0;-0.484375;0.939453;1.029785;-32.48;-32.900002;87.709999;28.0;0.0;0.0
0.05;2.25;1.75;3.0;3.5;5.5;5.75;1.25;4.0;3.25;1.75;1.25;1.5;2.0;6.25;0.75;1.25;-0.17041;0.028809;1.007812;1.47;1.4;0.63;534.0;-0.000731;-0.067794;0.0;0.5;0.25;0.25;0.25;0.0;0.0;0.0;0.0;0.0;0.0;0.0;0.0;0.0;0.0;0.0;-0.623047;0.984375;0.928223;-43.049999;-30.73;120.470001;14.0;0.0;0.0
0.06;2.25;1.75;3.0;3.5;5.5;5.75;1.25;4.0;3.25;1.75;1.25;1.5;2.0;6.25;0.75;1.25;-0.17041;0.028809;1.007812;1.47;1.4;0.63;534.0;-0.000731;-0.067794;0.0;0.25;0.25;0.0;0.0;0.0;0.0;0.0;0.0;0.0;0.0;0.0;0.0;0.0;0.0;0.0;-0.651855;0.947754;0.754395;-58.029999;-27.58;147.279999;6.0;0.0;0.0
0.07;2.25;1.75;3.25;3.5;5.5;5.75;1.0;4.0;3.25;1.75;1.25;1.5;2.0;6.0;0.75;1.0;-0.16748;0.030762;1.003906;1.33;2.1;0.49;529.0;-0.005711;-0.069693;0.0;0.25;0.25;0.0;0.0;0.0;0.0;0.0;0.0;0.0;0.0;0.0;0.0;0.0;0.0;0.0;-0.613281;0.665039;0.709473;-82.599998;-12.53;166.320007;6.0;0.0;0.0
0.08;2.25;1.75;3.0;3.5;5.5;5.75;1.0;4.25;3.5;2.0;1.5;1.25;2.0;6.25;1.0;1.25;-0.156738;0.027344;1.004395;1.26;2.24;0.42;543.0;0.003761;-0.06881;0.0;0.25;0.25;0.0;0.25;0.0;0.0;0.0;0.0;0.0;0.0;0.0;0.0;0.0;0.0;0.0;-0.569336;0.526367;0.697754;-90.580002;5.39;185.289993;9.0;0.0;0.0
0.09;1.75;1.5;3.0;3.0;5.0;5.75;1.0;4.5;3.25;2.0;1.75;1.5;2.25;6.25;1.0;1.25;-0.166016;0.029297;1.000977;0.77;2.59;0.28;532.0;0.01603;-0.078003;0.0;0.25;0.0;0.0;0.0;0.0;0.0;0.0;0.0;0.0;0.0;0.0;0.0;0.0;0.0;0.0;-0.514648;0.412598;0.804199;-82.459999;11.76;189.979996;3.0;0.0;0.0
0.1;1.75;1.5;2.75;3.0;5.0;5.75;1.0;4.5;3.25;2.0;1.75;1.75;2.5;6.25;1.0;1.75;-0.166504;0.031738;0.995605;0.49;2.45;0.21;537.0;0.021229;-0.0831;0.0;0.0;0.0;0.0;0.0;0.25;0.0;0.0;0.0;0.0;0.0;0.0;0.0;0.0;0.0;0.0;-0.481934;0.261719;0.999512;-64.330002;15.68;189.139999;3.0;0.0;0.0
0.11;1.75;1.5;2.75;3.0;4.75;5.75;1.0;4.5;3.25;2.25;1.75;1.75;2.5;6.25;0.25;1.25;-0.164062;0.032715;0.999023;0.35;2.24;0.14;525.0;0.015015;-0.081846;0.0;0.25;0.0;0.0;0.0;0.0;0.0;0.0;0.0;0.0;0.0;0.0;0.0;0.0;0.0;0.0;-0.509277;0.209473;1.013184;-27.790001;22.33;187.600006;3.0;0.0;0.0
0.12;1.5;1.5;2.25;3.0;4.75;5.75;1.0;4.5;3.25;2.0;1.25;1.75;2.25;6.25;0.25;1.75;-0.166016;0.03125;1.000977;0.49;2.24;0.21;509.0;0.018367;-0.084982;0.0;0.25;0.0;0.0;0.0;0.0;0.0;0.0;0.0;0.0;0.0;0.0;0.0;0.0;0.0;0.0;-0.398438;0.080566;0.929688;-14.7;22.120001;183.889999;3.0;0.0;0.0
0.13;1.25;1.5;2.25;3.0;4.5;5.75;0.75;4.75;3.5;2.0;1.75;1.75;2.5;6.5;0.75;1.75;-0.166016;0.026367;0.998047;0.49;2.52;0.28;522.0;0.03135;-0.090278;0.0;0.25;0.25;0.0;0.0;0.25;0.0;0.0;0.0;0.0;0.0;0.0;0.0;0.0;0.0;0.0;-0.354492;0.030762;0.916992;-19.67;17.360001;180.110001;9.0;0.0;0.0
0.14;1.5;1.0;2.25;2.75;4.25;5.5;0.75;4.75;3.25;2.0;2.0;1.75;2.5;6.5;0.5;1.75;-0.168457;0.028809;0.995117;0.63;2.59;0.28;508.0;0.034647;-0.090205;0.0;0.25;0.25;0.25;0.0;0.25;0.0;0.0;0.0;0.0;0.0;0.0;0.0;0.0;0.0;0.0;-0.351074;0.064453;0.821289;-25.969999;12.18;175.139999;12.0;0.0;0.0
0.15;1.5;1.0;2.25;2.75;4.25;5.5;0.75;4.75;3.25;2.0;1.5;1.75;2.5;6.25;0.5;1.75;-0.163086;0.030762;0.996582;0.7;2.24;0.35;500.0;0.030699;-0.091155;0.0;0.25;0.0;0.0;0.25;0.0;0.0;0.0;0.0;0.0;0.0;0.0;0.0;0.0;0.0;0.0;-0.370117;0.060547;0.655273;-19.74;15.75;169.470001;6.0;0.0;0.0
0.16;1.5;1.25;2.0;2.75;4.0;5.25;0.75;4.75;3.0;2.0;1.5;1.75;2.75;6.5;0.75;1.75;-0.164551;0.033691;1.006348;0.98;1.82;0.49;497.0;0.035279;-0.095553;0.0;0.0;0.0;0.0;0.25;0.0;0.0;0.0;0.0;0.0;0.0;0.0;0.0;0.0;0.0;0.0;-0.407227;0.023438;0.55957;-7.14;29.26;161.490005;3.0;0.0;0.0
0.17;1.25;1.0;2.25;2.75;4.25;5.75;0.75;4.75;3.25;2.0;1.75;1.75;3.0;6.25;0.75;1.75;-0.171387;0.029785;0.993652;0.84;0.98;0.7;510.0;0.036534;-0.096832;0.0;0.0;0.0;0.25;0.0;0.0;0.0;0.0;0.0;0.0;0.0;0.0;0.0;0.0;0.0;0.0;-0.412598;-0.067383;0.583496;3.08;48.16;151.830002;3.0;0.0;0.0
0.18;1.5;1.25;2.25;2.75;4.25;5.75;0.75;5.0;3.0;2.0;1.5;1.75;3.0;6.25;0.5;1.75;-0.166992;0.027832;1.001953;0.91;0.28;0.77;510.0;0.026775;-0.101016;0.0;0.0;0.0;0.0;0.0;0.0;0.0;0.0;0.0;0.0;0.0;0.0;0.0;0.0;0.0;0.0;-0.417969;-0.152832;0.618652;3.5;66.919998;142.729996;0.0;0.0;0.0
0.19;1.75;1.0;2.25;3.0;4.25;6.25;0.75;5.25;3.0;2.0;2.0;2.0;3.0;6.0;0.75;1.75;-0.17041;0.027832;0.999512;0.84;0.07;0.77;533.0;0.026004;-0.106805;0.0;0.0;0.0;0.0;0.0;0.0;0.0;0.0;0.0;0.0;0.0;0.0;0.0;0.0;0.0;0.0;-0.381348;-0.205566;0.666992;-7.0;84.489998;136.149994;0.0;0.0;0.0
0.2;1.5;1.25;2.5;3.0;4.25;6.5;0.75;5.5;3.0;2.0;2.0;2.0;3.25;6.0;0.75;1.75;-0.166504;0.035645;1.001465;0.98;-0.42;0.7;545.0;0.023909;-0.111716;0.0;0.0;0.0;0.0;0.0;0.0;0.0;0.0;0.0;0.0;0.0;0.0;0.0;0.0;0.0;0.0;-0.225586;-0.20752;1.104004;-23.1;99.75;131.460007;0.0;0.0;0.0
0.21;1.5;1.5;2.5;3.0;4.5;7.0;0.75;5.5;3.0;2.0;2.0;2.25;3.5;6.0;0.75;1.75;-0.165527;0.033203;0.996094;0.98;-0.35;0.77;562.0;0.020826;-0.115151;0.0;0.0;0.0;0.0;0.0;0.0;0.0;0.0;0.0;0.0;0.0;0.0;0.0;0.0;0.0;0.0;0.555664;-0.498047;1.513672;98.840004;48.299999;110.389999;0.0;0.0;0.0
0.22;1.5;1.5;2.75;3.0;4.5;7.0;0.75;5.5;2.75;2.25;2.0;2.0;3.5;6.0;0.75;1.75;-0.16748;0.032715;1.000488;0.84;0.28;0.7;561.0;0.017922;-0.11469;0.0;0.0;0.0;0.0;0.0;0.0;0.0;0.0;0.0;0.0;0.0;0.0;0.0;0.25;0.0;0.0;0.067383;-1.105957;1.52002;-22.540001;-0.63;35.07;2.0;0.0;0.0
0.23;1.75;1.5;2.75;3.25;4.5;7.0;0.75;5.5;2.75;2.25;2.0;2.25;3.5;6.0;0.75;1.75;-0.163086;0.032227;0.98877;0.49;0.98;0.49;570.0;0.015186;-0.115074;0.0;0.0;0.0;0.25;0.0;0.0;0.0;0.0;0.0;0.0;0.0;0.0;0.0;0.75;0.0;0.0;-0.134766;-1.515625;0.784668;-22.190001;-8.26;-3.71;10.0;0.0;0.0
0.24;1.75;1.5;2.5;3.0;4.5;7.0;0.75;5.5;3.25;2.25;2.0;2.25;3.5;6.25;0.75;1.75;-0.168945;0.031738;1.001465;0.56;0.98;0.49;573.0;0.022879;-0.109545;0.0;0.0;0.0;0.0;0.0;0.0;0.0;0.0;0.25;0.0;0.0;0.0;0.0;1.0;0.0;0.0;0.057129;-1.145508;1.274414;-19.32;7.7;-62.720001;13.0;0.0;0.0
0.25;1.5;1.25;2.5;3.0;4.5;7.0;0.75;5.5;3.25;2.25;1.75;2.5;3.5;6.5;1.0;2.0;-0.165527;0.029785;1.000977;0.49;0.91;0.49;575.0;0.031181;-0.110501;0.0;0.0;0.0;0.0;0.0;0.0;0.0;0.0;0.25;0.0;0.0;0.0;0.0;1.75;0.0;0.0;0.001953;-0.452637;1.034668;-18.83;-6.65;-132.509995;20.0;0.0;0.0
0.26;1.25;1.25;2.25;3.0;4.5;7.0;0.75;5.75;3.5;2.5;2.0;2.75;3.75;6.5;0.75;2.0;-0.166016;0.032715;0.996094;0.35;0.98;0.7;585.0;0.03745;-0.113896;0.0;0.0;0.0;0.0;0.0;0.0;0.0;0.0;0.5;0.0;0.0;0.0;0.0;2.75;0.0;0.0;-0.029297;-0.208008;0.908203;-15.05;0.77;-132.160004;33.0;0.0;0.0
0.27;1.5;1.5;2.25;2.75;4.5;7.0;0.75;5.75;3.25;2.5;2.0;2.25;3.75;7.0;0.75;2.0;-0.170898;0.036621;1.0;0.14;1.05;0.77;582.0;0.034981;-0.110733;0.0;0.0;0.0;0.0;0.0;0.0;0.0;0.0;0.75;0.0;0.0;0.0;0.0;3.75;0.0;0.0;-0.088867;-0.19873;1.106445;-5.04;9.87;-121.379997;46.0;0.0;0.0
0.28;1.25;1.25;2.25;2.75;4.5;7.0;0.75;5.75;3.5;2.75;2.25;2.5;4.0;7.0;0.75;2.0;-0.167969;0.035156;1.006348;-0.07;1.68;0.49;592.0;0.043626;-0.110702;0.0;0.0;0.0;0.0;0.0;0.0;0.0;0.0;0.75;0.0;0.0;0.0;0.0;4.0;0.0;0.0;-0.140625;-0.288086;1.053711;-1.96;15.96;-111.650002;48.0;0.0;0.0
0.29;1.25;1.0;2.0;2.75;4.5;6.5;0.75;6.0;3.5;2.75;2.25;2.75;4.0;7.25;1.0;2.0;-0.170898;0.034668;1.003906;-0.14;1.61;0.7;592.0;0.052759;-0.111473;0.0;0.25;0.0;0.0;0.0;0.0;0.0;0.0;0.75;0.0;0.0;0.0;0.0;4.5;0.0;0.0;-0.163574;-0.255859;1.150391;-6.16;28.35;-92.75;55.0;0.344541;0.180937
0.3;1.0;0.75;2.0;2.75;4.5;7.0;1.0;6.0;3.75;2.5;2.5;2.75;3.75;7.25;1.0;2.0;-0.166992;0.033691;0.992676;-0.14;1.89;0.63;598.0;0.055736;-0.108622;0.0;0.0;0.0;0.0;0.0;0.0;0.0;0.0;0.75;0.0;0.0;0.0;0.0;5.0;0.0;0.0;-0.157715;-0.239258;1.187012;-13.58;30.59;-86.029999;57.0;0.383697;0.196003
0.31;1.25;0.75;2.0;2.5;4.5;7.0;1.0;5.75;3.75;2.75;2.25;2.75;4.0;7.5;1.0;2.5;-0.166504;0.024902;0.999023;-0.0;1.82;0.49;602.0;0.059144;-0.105496;0.0;0.0;0.0;0.0;0.0;0.0;0.0;0.0;0.75;0.0;0.0;0.0;0.0;4.5;0.0;0.0;-0.157715;-0.182617;1.097656;-27.440001;36.610001;-70.419998;52.0;0.38109;0.197603
0.32;0.5;1.0;1.75;2.25;4.25;6.5;1.0;5.75;4.0;2.75;2.5;3.0;4.25;7.75;1.25;2.5;-0.174316;0.028809;1.000488;0.14;1.96;0.56;597.0;0.076309;-0.107247;0.0;0.0;0.0;0.0;0.0;0.0;0.0;0.0;1.0;0.0;0.0;0.0;0.0;4.25;0.0;0.0;-0.143555;-0.203613;1.087402;-23.799999;43.400002;-60.970001;54.0;0.371394;0.203556
0.33;0.5;1.0;1.75;2.0;4.25;5.75;0.75;6.0;3.75;3.25;2.5;3.0;4.25;8.25;1.25;2.5;-0.166504;0.036133;0.997559;0.35;2.17;0.49;592.0;0.08407;-0.107017;0.0;0.0;0.0;0.0;0.0;0.0;0.0;0.0;0.75;0.0;0.0;0.0;0.0;4.25;0.0;0.0;-0.17627;-0.234863;1.092773;-23.59;48.02;-51.59;50.0;0.379606;0.198514
0.34;0.5;1.0;1.5;2.0;4.0;5.75;1.0;6.0;3.75;3.0;2.75;3.25;4.5;8.5;1.25;2.5;-0.168457;0.038574;1.001465;0.35;2.38;0.49;598.0;0.089022;-0.10851;0.0;0.0;0.0;0.0;0.0;0.0;0.0;0.0;0.5;0.0;0.0;0.0;0.0;3.5;0.0;0.0;-0.20166;-0.242188;1.065918;-23.66;50.75;-41.93;40.0;0.0;0.0
0.35;0.75;0.75;1.5;1.75;4.0;5.75;1.0;6.0;3.75;3.25;3.0;3.0;4.5;8.5;1.5;2.75;-0.166504;0.035156;0.998535;0.42;2.38;0.56;602.0;0.09368;-0.105375;0.0;0.0;0.0;0.0;0.0;0.0;0.0;0.0;0.5;0.0;0.0;0.0;0.0;3.5;0.0;0.0;-0.224609;-0.186523;1.032227;-22.120001;52.080002;-33.459999;40.0;0.0;0.0
0.36;0.75;0.75;1.25;1.5;3.75;5.75;1.0;6.0;4.0;3.25;3.0;3.25;4.75;9.0;1.5;2.75;-0.175781;0.03125;0.99707;0.42;2.59;0.49;607.0;0.102687;-0.104469;0.0;0.0;0.0;0.0;0.0;0.0;0.0;0.0;0.5;0.0;0.0;0.0;0.0;3.25;0.0;0.0;-0.253418;-0.135254;0.983398;-18.76;52.57;-27.51;37.0;0.0;0.0
0.37;0.75;0.5;1.25;1.5;3.5;5.75;1.0;6.0;4.0;3.25;3.0;3.0;4.75;8.5;1.5;3.0;-0.172852;0.033203;1.000977;0.49;2.8;0.35;595.0;0.103746;-0.106839;0.0;0.25;0.0;0.0;0.0;0.0;0.0;0.0;0.0;0.0;0.0;0.0;0.0;2.0;0.0;0.0;-0.290039;-0.088379;0.984863;-11.62;49.349998;-21.84;21.0;0.0;0.0
0.38;0.75;0.25;1.0;1.5;3.5;5.75;1.0;6.0;4.0;3.25;3.0;3.25;5.0;8.75;1.75;3.0;-0.172852;0.029785;1.002441;0.49;3.08;0.28;600.0;0.111213;-0.108667;0.0;0.0;0.0;0.0;0.0;0.0;0.0;0.0;0.25;0.0;0.0;0.0;0.0;1.0;0.0;0.0;-0.304688;-0.075195;1.01416;-8.61;43.330002;-19.950001;13.0;0.0;0.0
0.39;0.75;0.75;0.75;1.5;3.0;5.25;0.75;6.0;4.25;3.25;2.75;3.5;5.0;9.0;2.0;3.0;-0.169922;0.035156;1.005859;0.42;2.94;0.42;595.0;0.117298;-0.109995;0.0;0.0;0.0;0.0;0.0;0.0;0.0;0.0;0.0;0.0;0.0;0.0;0.0;0.25;0.0;0.0;-0.30127;-0.09375;1.02832;-11.06;34.16;-18.200001;2.0;0.0;0.0
0.4;0.5;0.75;0.75;1.5;2.75;5.25;0.75;6.0;4.25;3.25;2.75;3.25;5.25;9.25;2.25;3.0;-0.173828;0.035645;0.993164;0.56;2.66;0.42;594.0;0.123332;-0.111139;0.0;0.0;0.0;0.0;0.0;0.0;0.0;0.0;0.0;0.0;0.0;0.0;0.0;0.25;0.0;0.0;-0.224121;-0.035645;0.94043;-18.76;25.41;-15.89;2.0;0.0;0.0
0.41;0.5;0.25;1.0;1.5;2.75;5.5;0.75;6.0;4.5;3.25;3.0;3.5;5.25;9.25;2.0;3.25;-0.170898;0.038574;0.998535;0.42;2.38;0.49;603.0;0.125425;-0.109714;0.0;0.0;0.0;0.0;0.0;0.0;0.0;0.0;0.0;0.0;0.0;0.0;0.0;0.25;0.0;0.0;-0.142578;0.088867;0.888672;-19.6;21.84;-7.56;2.0;0.0;0.0
0.42;0.5;0.25;0.75;1.5;2.75;5.5;0.75;6.0;4.5;3.25;2.75;3.5;5.5;9.5;2.0;3.25;-0.167969;0.039551;0.993652;0.28;2.1;0.35;601.0;0.128213;-0.110963;0.0;0.0;0.0;0.0;0.0;0.0;0.0;0.0;0.0;0.0;0.0;0.0;0.0;0.25;0.0;0.0;-0.124023;0.168457;0.891602;-13.72;14.42;3.43;2.0;0.0;0.0
0.43;0.5;0.25;1.0;1.25;2.75;5.5;0.75;6.0;4.5;3.25;3.0;3.5;5.5;9.75;2.0;3.25;-0.170898;0.03418;1.001465;0.07;1.75;0.28;607.0;0.129837;-0.108312;0.0;0.0;0.0;0.0;0.0;0.0;0.0;0.0;0.0;0.0;0.0;0.0;0.0;0.0;0.0;0.0;-0.089844;-0.020508;0.893555;-7.91;5.46;20.440001;0.0;0.0;0.0
0.44;0.5;0.25;1.0;1.5;2.5;5.25;0.75;6.0;4.5;3.25;3.0;3.5;5.5;9.75;2.0;3.25;-0.169434;0.031738;1.001465;-0.0;1.75;0.14;604.0;0.130422;-0.108923;0.0;0.0;0.0;0.0;0.0;0.0;0.0;0.0;0.0;0.0;0.0;0.0;0.0;0.25;0.0;0.0;-0.034668;-0.07373;1.108398;6.16;-6.72;21.629999;2.0;0.0;0.0
0.45;0.25;0.25;0.75;1.5;2.5;5.25;0.75;6.0;4.5;3.25;3.25;3.5;5.25;9.75;2.0;3.5;-0.174805;0.035156;1.001953;-0.14;1.96;0.14;600.0;0.13582;-0.110111;0.0;0.0;0.0;0.0;0.0;0.0;0.0;0.0;0.0;0.0;0.0;0.0;0.0;0.0;0.0;0.0;-0.044922;-0.139648;0.996094;8.26;-24.01;14.0;0.0;0.0;0.0
0.46;0.0;0.25;0.75;1.25;2.5;5.25;0.75;6.0;4.5;3.25;3.25;3.5;5.5;9.75;2.0;3.25;-0.175293;0.036133;1.005859;-0.35;2.1;0.14;595.0;0.140093;-0.11146;0.0;0.0;0.0;0.0;0.0;0.0;0.0;0.0;0.0;0.0;0.0;0.0;0.0;0.0;0.0;0.0;-0.067871;-0.176758;0.884766;6.93;-35.630001;4.27;0.0;0.0;0.0
0.47;0.25;0.25;0.5;1.0;2.25;5.25;0.75;6.0;4.25;3.25;3.25;3.5;5.5;10.0;2.25;3.25;-0.17334;0.033691;1.00293;-0.28;2.45;0.14;590.0;0.144777;-0.112802;0.0;0.25;0.0;0.0;0.0;0.0;0.0;0.0;0.0;0.0;0.0;0.0;0.0;0.0;0.0;0.0;-0.101562;-0.071777;0.807617;5.25;-40.740002;-2.94;3.0;0.0;0.0
0.48;0.25;0.25;0.5;1.0;2.5;5.75;0.75;6.0;4.25;3.25;3.25;3.5;5.5;10.0;2.25;3.25;-0.173828;0.032227;0.999023;-0.21;2.38;0.21;599.0;0.140476;-0.11352;0.0;0.0;0.0;0.0;0.0;0.0;0.0;0.0;0.0;0.0;0.0;0.0;0.0;0.0;0.0;0.0;-0.113281;0.008301;0.782715;5.25;-42.139999;-5.81;0.0;0.0;0.0
0.49;0.25;0.25;0.75;1.0;2.25;5.25;0.75;6.0;4.25;3.25;3.25;3.5;5.25;10.0;2.25;3.25;-0.17627;0.03418;1.0;-0.14;2.38;0.35;591.0;0.142559;-0.110369;0.0;0.0;0.0;0.0;0.0;0.0;0.0;0.0;0.0;0.0;0.0;0.0;0.0;0.0;0.0;0.0;-0.120605;0.105957;0.792969;10.15;-43.540001;0.7;0.0;0.0;0.0
0.5;0.25;0.25;0.75;1.0;2.25;4.75;0.75;6.0;4.25;3.25;3.25;3.5;5.25;10.0;2.25;3.25;-0.17627;0.033691;0.998047;-0.0;2.24;0.28;585.0;0.145557;-0.108716;0.25;0.0;0.0;0.0;0.0;0.0;0.0;0.0;0.0;0.0;0.0;0.0;0.0;0.0;0.0;0.0;-0.137207;0.142578;0.806152;10.85;-45.080002;10.43;3.0;0.0;0.0
0.51;0.25;0.25;0.75;1.0;2.0;4.75;0.75;6.0;4.25;3.25;3.25;3.5;5.5;10.0;2.25;3.25;-0.170898;0.035156;0.995117;-0.0;2.1;0.35;584.0;0.147044;-0.111011;0.0;0.0;0.0;0.0;0.0;0.0;0.0;0.0;0.0;0.0;0.0;0.0;0.0;0.0;0.0;0.0;-0.153809;0.1875;0.812012;10.36;-47.25;23.17;0.0;0.0;0.0
0.52;0.25;0.25;0.75;1.0;2.0;4.75;0.75;6.0;4.25;3.25;3.25;3.5;5.5;10.0;2.25;3.25;-0.179199;0.035645;0.997559;-0.0;1.75;0.35;584.0;0.147044;-0.111011;0.0;0.0;0.0;0.0;0.0;0.0;0.0;0.0;0.0;0.0;0.0;0.0;0.0;0.0;0.0;0.0;-0.163086;0.238281;0.821777;9.87;-49.700001;37.799999;0.0;0.0;0.0
0.53;0.25;0.0;0.5;1.0;2.0;4.75;0.75;5.75;4.25;3.25;3.25;3.5;5.5;9.75;2.25;3.25;-0.177734;0.038574;1.00293;-0.14;1.26;0.35;572.0;0.151806;-0.110964;0.0;0.0;0.0;0.0;0.0;0.0;0.0;0.0;0.0;0.0;0.0;0.0;0.0;0.0;0.0;0.0;-0.171875;0.275391;0.833496;11.76;-52.5;52.5;0.0;0.0;0.0
0.54;0.25;0.25;0.5;1.0;2.0;4.75;0.75;5.75;4.25;3.25;3.25;3.5;5.5;9.75;2.0;3.25;-0.172852;0.037109;1.001465;-0.14;0.56;0.35;572.0;0.148018;-0.111351;0.25;0.0;0.0;0.0;0.0;0.0;0.0;0.0;0.0;0.0;0.0;0.0;0.0;0.0;0.0;0.0;-0.192383;0.290039;0.830566;20.58;-57.82;72.169998;3.0;0.0;0.0
0.55;0.25;0.25;0.75;1.0;2.0;5.25;0.75;6.0;4.25;3.25;3.25;3.5;5.5;10.0;1.75;3.25;-0.172852;0.037598;0.994629;-0.14;-0.21;0.49;585.0;0.14144;-0.112941;0.0;0.0;0.0;0.0;0.0;0.0;0.0;0.0;0.0;0.0;0.0;0.0;0.0;0.0;0.0;0.0;-0.199707;0.263672;0.853516;28.280001;-61.040001;82.529999;0.0;0.0;0.0
0.56;0.25;0.5;0.75;1.0;2.25;5.5;0.75;6.0;4.5;3.25;3.25;3.5;5.5;9.75;2.0;3.25;-0.174805;0.032227;0.998535;-0.07;-0.56;0.42;597.0;0.137194;-0.11175;0.0;0.0;0.0;0.0;0.0;0.0;0.0;0.0;0.0;0.0;0.0;0.0;0.0;0.0;0.0;0.0;-0.223145;0.177246;0.845215;31.639999;-63.0;90.019997;0.0;0.0;0.0
0.57;0.25;0.25;0.75;1.25;2.75;5.75;0.75;6.0;4.0;3.25;3.25;3.5;5.75;9.75;2.0;3.25;-0.178223;0.032715;0.989746;-0.14;-0.91;0.42;602.0;0.132063;-0.117115;0.0;0.0;0.0;0.0;0.0;0.0;0.0;0.0;0.0;0.0;0.0;0.0;0.0;0.0;0.0;0.0;-0.244141;0.093262;0.822754;31.219999;-63.349998;93.519997;0.0;0.0;0.0
0.58;0.25;0.25;0.75;1.25;2.75;5.75;0.75;6.0;4.5;3.25;3.25;3.5;5.75;10.0;2.25;3.25;-0.177734;0.029785;0.998535;-0.07;-1.12;0.35;614.0;0.135859;-0.111278;0.0;0.0;0.0;0.0;0.0;0.0;0.0;0.0;0.0;0.0;0.0;0.0;0.0;0.0;0.0;0.0;-0.26709;0.056641;0.794922;30.24;-62.23;93.239998;0.0;0.0;0.0
0.59;0.75;0.25;0.75;1.25;2.75;5.75;0.75;6.25;4.5;3.25;3.25;3.5;5.75;9.75;2.0;3.25;-0.17627;0.036621;0.997559;-0.14;-1.12;0.35;619.0;0.127635;-0.112372;0.0;0.0;0.0;0.0;0.0;0.0;0.0;0.0;0.0;0.0;0.0;0.0;0.0;0.0;0.0;0.0;-0.296387;0.041016;0.799316;32.200001;-59.220001;89.599998;0.0;0.0;0.0
0.6;0.75;0.25;1.0;1.5;2.75;5.75;0.75;6.25;4.5;3.25;3.25;3.5;5.75;9.5;2.0;3.25;-0.174805;0.041504;1.0;-0.14;-1.19;0.35;622.0;0.122645;-0.113007;0.0;0.0;0.0;0.0;0.0;0.0;0.0;0.0;0.0;0.0;0.0;0.0;0.0;0.0;0.0;0.0;-0.361816;0.044922;0.791992;40.110001;-51.59;81.059998;0.0;0.0;0.0
0.61;0.5;0.25;1.0;1.5;2.75;6.0;0.75;6.5;4.25;3.25;3.25;3.5;6.0;9.5;2.25;3.25;-0.17041;0.027832;0.998047;-0.35;-1.05;0.42;628.0;0.123533;-0.11998;0.25;0.0;0.0;0.0;0.0;0.0;0.0;0.0;0.0;0.0;0.0;0.0;0.0;0.0;0.0;0.0;-0.418457;0.058594;0.790527;44.450001;-44.099998;74.970001;3.0;0.0;0.0
0.62;0.5;0.5;1.0;1.5;3.5;6.0;0.75;6.75;4.5;3.25;3.25;3.5;5.75;9.5;2.25;3.25;-0.169434;0.038086;0.99707;-0.35;-1.05;0.42;645.0;0.117647;-0.115953;0.25;0.0;0.0;0.0;0.0;0.0;0.0;0.0;0.0;0.0;0.0;0.0;0.0;0.0;0.0;0.0;-0.511719;0.098145;0.812988;47.25;-33.740002;69.580002;3.0;0.0;0.0
0.63;0.5;0.5;1.0;1.5;3.75;7.0;0.75;6.75;4.0;3.25;3.0;3.75;5.75;9.5;2.0;3.25;-0.17334;0.036133;1.00293;-0.42;-0.91;0.63;650.0;0.108705;-0.123244;0.0;0.0;0.0;0.0;0.0;0.0;0.0;0.0;0.0;0.0;0.0;0.0;0.0;0.0;0.0;0.0;-3.152344;-3.081055;4.671387;-102.059998;118.370003;65.099998;0.0;0.0;0.0
0.64;0.75;0.25;1.25;1.5;3.75;7.0;0.75;6.75;4.5;3.25;3.25;3.5;5.75;9.5;2.25;3.25;-0.171387;0.036621;1.000977;-0.56;-0.49;0.63;664.0;0.109757;-0.115873;0.0;0.25;0.0;0.25;0.0;0.0;0.0;0.0;0.0;0.0;0.0;0.0;0.0;0.0;0.0;0.0;-0.263672;-0.64209;0.492676;-4.97;-2.24;74.269997;6.0;0.0;0.0
0.65;0.75;0.25;1.25;1.5;3.5;6.25;0.75;6.5;4.5;3.25;3.0;3.5;5.5;9.5;2.0;3.25;-0.166992;0.041992;1.001465;-0.98;0.63;0.63;639.0;0.113233;-0.111594;0.0;0.5;0.25;0.25;0.0;0.0;0.0;0.0;0.0;0.0;0.0;0.0;0.0;0.0;0.0;0.0;-0.196289;-0.069336;1.044922;-6.72;-21.280001;-2.94;11.0;0.0;0.0
0.66;0.25;0.5;1.25;1.25;3.5;7.0;0.75;6.5;4.5;3.25;3.0;3.5;5.5;9.5;2.0;3.25;-0.168945;0.039551;1.000488;-1.33;1.89;0.49;642.0;0.113885;-0.115462;0.0;1.5;0.5;0.5;0.25;0.0;0.0;0.0;0.0;0.0;0.0;0.0;0.0;0.0;0.0;0.0;-0.186523;0.025879;0.981445;-0.35;-9.94;-2.03;30.0;0.0;0.0
0.67;0.25;0.5;1.0;1.25;3.0;6.25;0.75;6.25;4.5;3.25;3.0;3.5;5.5;9.5;2.0;3.25;-0.168945;0.035645;1.00293;-1.26;2.59;0.42;620.0;0.122741;-0.114059;0.0;2.0;0.75;0.75;0.25;0.25;0.0;0.0;0.0;0.0;0.0;0.0;0.0;0.0;0.0;0.0;-0.136719;0.029297;1.018555;5.11;-6.09;5.04;44.0;0.0;0.0
0.68;0.25;0.5;1.0;1.25;2.75;5.5;0.75;6.0;4.0;3.25;3.0;3.5;5.0;9.5;2.0;3.25;-0.174316;0.038086;1.003418;-1.26;2.94;0.49;592.0;0.127103;-0.112528;0.0;2.25;0.5;1.0;0.25;0.25;0.0;0.0;0.0;0.0;0.0;0.0;0.0;0.0;0.0;0.0;-0.080566;-0.034668;0.950684;5.04;-5.39;4.2;47.0;0.0;0.0
0.69;0.25;0.75;0.75;1.25;2.5;5.5;0.75;6.0;4.0;3.25;3.0;3.5;5.0;9.5;2.0;3.0;-0.172363;0.034668;1.0;-1.33;3.22;0.42;587.0;0.127512;-0.114189;0.0;2.25;0.25;1.0;0.25;0.25;0.0;0.0;0.0;0.0;0.0;0.0;0.0;0.0;0.0;0.0;-0.145996;0.032715;0.922363;7.49;4.48;0.21;44.0;0.0;0.0
0.7;0.0;0.25;0.75;1.0;2.25;5.5;0.75;5.75;4.0;3.25;3.0;3.5;5.0;9.25;2.0;3.0;-0.175781;0.038086;0.998047;-1.33;3.15;0.56;567.0;0.138389;-0.114339;0.0;2.25;0.25;0.75;0.5;0.25;0.0;0.0;0.0;0.0;0.0;0.0;0.0;0.0;0.0;0.0;-0.205566;0.014648;1.027344;9.17;12.6;-0.56;44.0;0.0;0.0
0.71;0.25;0.25;0.75;1.0;2.0;5.25;0.75;5.5;4.0;3.25;2.75;3.5;5.0;9.5;2.25;3.0;-0.171387;0.03418;0.996094;-1.12;2.8;0.56;562.0;0.141789;-0.109879;0.0;2.0;0.25;0.75;0.25;0.25;0.0;0.0;0.0;0.0;0.0;0.0;0.0;0.0;0.0;0.0;-0.224609;0.00293;1.005859;7.21;7.14;-0.91;38.0;0.0;0.0
0.72;0.25;0.25;0.75;1.25;2.0;4.25;0.75;5.5;4.0;3.25;2.75;3.5;4.5;9.25;2.0;3.0;-0.173828;0.038086;0.996094;-1.26;2.59;0.49;543.0;0.143055;-0.105267;0.0;1.75;0.25;0.5;0.25;0.25;0.0;0.0;0.0;0.0;0.0;0.0;0.0;0.0;0.0;0.0;-0.212402;0.007812;0.996582;7.63;7.0;0.28;33.0;0.0;0.0
0.73;0.5;0.25;0.75;1.0;2.0;4.75;0.75;5.5;4.0;3.25;2.75;3.5;4.5;9.0;1.5;3.0;-0.174805;0.035645;0.992676;-1.26;2.24;0.49;541.0;0.13537;-0.106786;0.0;1.5;0.25;0.5;0.0;0.0;0.0;0.0;0.0;0.0;0.0;0.0;0.0;0.0;0.0;0.0;-0.198242;0.010254;1.007324;7.84;6.02;0.91;24.0;0.0;0.0
0.74;0.25;0.25;0.5;0.75;2.0;4.75;0.75;5.25;4.0;3.25;2.75;3.5;4.5;9.0;2.0;3.0;-0.179199;0.035645;0.99707;-1.33;1.75;0.35;533.0;0.146976;-0.105898;0.0;1.25;0.25;0.25;0.25;0.0;0.0;0.0;0.0;0.0;0.0;0.0;0.0;0.0;0.0;0.0;-0.194336;0.024902;0.985352;6.58;3.22;0.42;22.0;0.0;0.0
0.75;0.25;0.25;0.75;0.75;2.0;4.75;0.75;5.25;4.0;3.25;3.0;3.25;4.5;9.0;2.0;2.75;-0.177246;0.034668;0.997559;-1.33;1.4;0.42;535.0;0.144132;-0.103244;0.0;1.25;0.25;0.25;0.0;0.0;0.0;0.0;0.0;0.0;0.0;0.0;0.0;0.0;0.0;0.0;-0.196777;0.040039;0.983887;4.55;2.17;-0.0;19.0;0.0;0.0
0.76;0.25;0.25;0.75;1.0;2.0;4.25;0.75;5.0;4.0;3.25;3.0;3.25;4.5;9.0;2.0;2.75;-0.17334;0.039551;0.992676;-1.68;1.26;0.28;528.0;0.146254;-0.099747;0.0;1.25;0.25;0.25;0.0;0.0;0.0;0.0;0.0;0.0;0.0;0.0;0.0;0.0;0.0;0.0;-0.202637;0.035645;0.980469;2.1;2.03;0.14;19.0;0.0;0.0
0.77;0.25;0.25;0.75;0.75;2.0;4.0;0.75;4.75;4.0;3.25;3.0;3.25;4.25;9.0;1.5;2.75;-0.174805;0.035645;0.994141;-1.54;0.91;0.28;510.0;0.148792;-0.094139;0.0;1.25;0.25;0.25;0.25;0.25;0.0;0.0;0.0;0.0;0.0;0.0;0.0;0.0;0.0;0.0;-0.211426;0.016113;0.983398;-0.07;1.33;0.56;25.0;0.0;0.0
0.78;0.25;0.25;0.75;1.0;2.0;4.0;0.75;4.75;4.0;3.25;3.0;3.0;4.25;9.0;1.75;2.75;-0.180176;0.036133;0.999512;-1.68;0.63;0.21;513.0;0.14736;-0.093705;0.0;1.25;0.25;0.25;0.25;0.25;0.0;0.0;0.0;0.0;0.0;0.0;0.0;0.25;0.0;0.0;-0.20752;0.01123;0.980469;-0.49;0.7;0.77;27.0;0.0;0.0
0.79;0.5;0.25;0.75;1.0;2.0;4.25;0.75;4.75;4.0;3.25;3.0;3.0;4.25;9.0;2.0;2.75;-0.175781;0.030273;0.995605;-1.82;0.35;0.21;521.0;0.144095;-0.093565;0.0;1.25;0.25;0.5;0.25;0.25;0.0;0.25;0.0;0.0;0.0;0.0;0.0;0.25;0.0;0.0;-0.200684;0.013184;0.976074;-0.14;-0.21;1.05;34.0;0.0;0.0
0.8;0.5;0.25;0.75;1.25;2.0;4.25;0.75;4.75;4.5;3.25;3.0;3.0;4.0;9.0;1.75;2.5;-0.179688;0.036133;0.995605;-1.75;0.35;0.14;525.0;0.140995;-0.08709;0.0;1.25;0.25;0.75;0.25;0.25;0.0;0.0;0.0;0.0;0.0;0.0;0.0;0.25;0.0;0.0;-0.197266;0.01416;0.976562;-0.07;-0.21;1.05;33.0;0.0;0.0
0.81;0.75;0.25;0.75;1.25;2.0;4.0;0.75;4.75;4.0;3.25;3.0;3.0;4.0;9.0;2.0;2.75;-0.17627;0.032227;0.998047;-1.75;0.49;0.21;522.0;0.140222;-0.090539;0.0;1.25;0.25;0.75;0.25;0.5;0.0;0.0;0.0;0.0;0.0;0.0;0.0;0.25;0.0;0.0;-0.20459;0.014648;0.987305;-0.56;0.35;0.77;36.0;0.0;0.0
0.82;0.25;0.25;0.75;1.0;2.25;4.25;0.75;4.75;4.0;3.25;2.5;3.0;3.75;9.0;2.0;2.5;-0.17627;0.03418;0.986816;-1.82;0.7;0.28;510.0;0.143765;-0.089485;0.0;1.5;0.25;0.75;0.25;0.5;0.0;0.25;0.0;0.0;0.0;0.0;0.0;0.25;0.0;0.0;-0.204102;0.016602;0.992676;-0.7;0.42;0.63;43.0;0.0;0.0
0.83;0.25;0.25;0.75;1.0;2.25;4.25;0.75;4.5;4.0;3.25;2.75;3.0;3.5;9.25;1.5;2.5;-0.171387;0.03418;0.992676;-1.75;0.7;0.28;502.0;0.143634;-0.084235;0.0;1.75;0.5;0.75;0.25;0.5;0.0;0.25;0.0;0.0;0.0;0.0;0.0;0.0;0.0;0.0;-0.200195;0.01709;0.993652;-0.84;0.91;0.21;46.0;0.0;0.0
0.84;0.25;0.25;0.75;1.0;2.0;4.25;0.75;4.5;4.0;3.25;2.5;3.0;3.5;9.0;1.75;2.5;-0.177734;0.032227;0.995605;-1.89;0.98;0.28;497.0;0.145048;-0.086143;0.0;1.5;0.75;1.0;0.5;0.5;0.0;0.25;0.0;0.0;0.0;0.0;0.0;0.0;0.0;0.0;-0.202148;0.015625;0.99707;-0.49;0.56;0.28;52.0;-0.265136;-0.138981
0.85;0.25;0.25;0.75;1.0;2.0;3.75;0.75;4.5;4.0;3.25;2.5;3.25;3.5;9.0;1.75;2.25;-0.175781;0.02832;0.99707;-1.68;0.98;0.42;493.0;0.148358;-0.084429;0.0;1.75;0.75;1.25;0.75;0.75;0.0;0.25;0.0;0.0;0.0;0.0;0.0;0.0;0.0;0.0;-0.200684;0.008789;0.99707;0.07;0.14;0.28;64.0;-0.26034;-0.140915
0.86;0.25;0.25;0.75;1.0;2.0;3.75;0.75;4.25;4.0;3.25;2.5;3.0;3.5;9.0;1.5;2.5;-0.172852;0.034668;0.994141;-1.61;0.84;0.49;484.0;0.148498;-0.081243;0.25;1.75;0.75;1.25;0.75;1.0;0.0;0.25;0.0;0.0;0.0;0.0;0.0;0.25;0.0;0.0;-0.197754;0.018555;1.000977;0.28;-0.14;0.35;72.0;-0.239793;-0.126283
0.87;0.5;0.25;0.75;1.0;2.25;3.75;0.75;4.25;4.5;3.25;2.5;3.0;3.25;9.0;1.5;2.0;-0.177734;0.032227;1.003418;-1.75;1.4;0.21;492.0;0.143851;-0.070889;0.25;1.75;1.0;1.25;0.75;0.75;0.0;0.25;0.0;0.0;0.0;0.0;0.0;0.25;0.0;0.0;-0.208984;0.02002;0.992676;0.07;-0.28;0.42;72.0;-0.244495;-0.111106
0.88;0.25;0.25;0.75;0.75;2.25;3.75;0.75;4.25;4.25;3.25;2.75;2.75;3.25;9.0;2.0;2.0;-0.17334;0.033203;1.000977;-1.68;1.89;0.14;488.0;0.152053;-0.072584;0.0;1.75;1.25;1.25;0.75;1.0;0.0;0.25;0.0;0.0;0.0;0.0;0.0;0.5;0.0;0.0;-0.201172;0.020996;0.991211;-0.07;-0.35;0.56;78.0;-0.216328;-0.108811
0.89;0.25;0.25;0.75;0.75;2.0;3.75;0.75;4.0;4.5;3.25;2.75;2.75;3.25;9.0;2.0;2.25;-0.169922;0.033691;0.997559;-1.82;2.45;0.14;486.0;0.156571;-0.068857;0.0;1.75;1.0;1.5;1.0;1.25;0.0;0.25;0.0;0.0;0.0;0.0;0.0;0.25;0.0;0.0;-0.203613;0.023926;0.984863;-0.63;-0.42;0.63;81.0;-0.229382;-0.128456
0.9;0.25;0.25;0.75;0.5;1.75;3.25;0.75;3.75;4.25;3.25;2.25;2.75;3.25;9.0;1.75;2.25;-0.174805;0.035645;1.0;-1.89;3.01;-0.07;458.0;0.163654;-0.06511;0.0;2.0;1.25;1.5;1.0;1.0;0.0;0.25;0.0;0.0;0.0;0.0;0.0;0.25;0.0;0.0;-0.203613;0.014648;0.986816;-0.77;-0.7;0.7;84.0;-0.23907;-0.116534
0.91;0.25;0.25;0.75;0.75;1.75;3.0;0.75;3.5;4.5;3.25;2.5;2.5;2.5;9.25;1.5;2.25;-0.174316;0.029785;0.998535;-1.68;3.57;0.0;450.0;0.164852;-0.050328;0.0;2.0;1.25;1.75;1.0;1.5;0.0;0.25;0.0;0.0;0.0;0.0;0.0;0.25;0.0;0.0;-0.202148;0.013184;0.983887;-0.49;-0.84;0.84;93.0;-0.235065;-0.13007
0.92;0.25;0.25;0.75;0.75;1.75;3.0;0.75;3.5;4.5;3.25;2.75;2.5;2.5;9.25;1.5;2.0;-0.181152;0.031738;0.995117;-1.61;3.64;0.0;451.0;0.164601;-0.049879;0.0;2.0;1.0;1.5;1.0;1.25;0.0;0.25;0.0;0.0;0.0;0.0;0.0;0.25;0.0;0.0;-0.208008;0.01709;0.982422;-0.21;-0.84;0.77;84.0;-0.235021;-0.129592
0.93;0.0;0.25;0.25;0.5;1.75;2.75;0.75;3.0;4.25;3.25;2.75;2.75;2.75;9.5;1.5;1.75;-0.179199;0.03125;1.000488;-1.61;4.34;-0.07;430.0;0.183419;-0.047976;0.25;1.75;1.25;1.25;1.0;1.25;0.0;0.25;0.0;0.0;0.0;0.0;0.0;0.25;0.0;0.0;-0.202148;0.015625;0.990234;0.28;-0.77;0.84;84.0;-0.23447;-0.10913
0.94;0.25;0.0;0.25;0.5;1.25;2.5;0.5;2.75;4.25;3.25;2.5;2.5;2.75;9.5;1.5;2.0;-0.181152;0.025391;0.994629;-1.61;4.41;-0.21;409.0;0.193228;-0.044298;0.25;2.0;1.25;1.75;1.0;1.5;0.0;0.25;0.0;0.0;0.0;0.0;0.0;0.25;0.0;0.0;-0.203613;0.010742;0.980957;0.49;-0.84;0.77;96.0;-0.240047;-0.122998
0.95;0.25;0.0;0.25;0.5;1.0;2.5;0.5;2.5;4.5;3.25;2.25;2.75;2.25;9.75;1.75;2.25;-0.172852;0.027832;0.998535;-1.61;4.83;-0.28;407.0;0.20173;-0.035161;0.0;2.5;1.25;1.75;1.0;1.5;0.0;0.5;0.0;0.0;0.0;0.0;0.0;0.25;0.0;0.0;-0.200684;0.016113;0.989258;0.77;-0.91;0.7;102.0;-0.234948;-0.142547
0.96;0.25;0.0;0.5;0.25;1.0;1.75;0.5;2.5;4.75;3.25;2.5;2.75;2.25;9.75;1.25;2.0;-0.176758;0.03418;1.001465;-1.61;4.97;-0.42;398.0;0.206882;-0.023527;0.0;2.25;1.25;1.75;1.0;1.5;0.0;0.5;0.0;0.0;0.0;0.0;0.0;0.25;0.0;0.0;-0.19873;0.022949;0.980957;1.19;-0.91;0.7;99.0;-0.230341;-0.141948
0.97;0.0;0.0;0.25;0.25;0.75;1.5;0.5;2.0;4.75;3.25;2.25;2.75;2.25;10.0;1.5;2.25;-0.180664;0.027832;0.997559;-1.61;4.97;-0.56;381.0;0.228594;-0.015744;0.25;2.0;1.25;1.75;1.0;1.75;0.0;0.5;0.0;0.0;0.0;0.0;0.0;0.5;0.0;0.0;-0.203613;0.018555;0.987793;1.33;-0.84;0.77;105.0;-0.214103;-0.131257
0.98;0.0;0.0;0.25;0.0;0.25;1.25;0.25;1.75;5.0;3.25;2.25;2.25;1.75;10.25;1.5;1.75;-0.179688;0.029785;0.998535;-1.61;5.11;-0.7;354.0;0.248268;0.005507;0.0;2.25;1.25;1.75;1.0;2.0;0.0;0.5;0.0;0.0;0.0;0.0;0.0;0.5;0.0;0.0;-0.197754;0.019531;0.989746;1.68;-0.49;0.49;108.0;-0.212164;-0.142294
0.99;0.0;0.0;0.0;0.25;0.25;1.25;0.25;1.5;5.0;3.25;2.25;2.25;1.75;10.25;2.0;1.75;-0.189941;0.032715;1.001953;-1.68;5.46;-0.77;355.0;0.25379;0.006086;0.0;2.5;1.25;2.0;1.0;2.0;0.0;1.0;0.0;0.0;0.0;0.0;0.0;0.5;0.0;0.0;-0.203613;0.021973;0.98291;2.03;-0.35;0.56;122.0;-0.204571;-0.161926
1.0;0.25;0.0;0.25;0.0;0.5;1.0;0.5;1.25;5.0;3.25;2.25;2.5;1.75;10.75;2.0;1.75;-0.180664;0.036133;0.992188;-1.68;5.88;-0.7;365.0;0.251736;0.019191;0.0;2.25;1.25;2.25;1.25;2.25;0.0;1.0;0.0;0.0;0.0;0.0;0.0;0.5;0.0;0.0;-0.202148;0.017578;0.986328;2.52;-0.35;0.35;128.0;-0.199262;-0.160664
1.01;0.0;0.0;0.0;0.0;0.25;1.0;0.25;1.25;5.0;3.25;2.25;2.0;1.5;11.0;1.75;1.5;-0.178223;0.02002;0.988281;-1.54;5.95;-0.77;342.0;0.26776;0.026745;0.0;2.25;1.25;2.25;1.0;2.5;0.0;1.25;0.0;0.0;0.0;0.0;0.25;1.0;0.0;0.0;-0.208496;0.026367;0.981445;3.57;-1.47;0.28;139.0;-0.167593;-0.168577
1.02;0.0;0.0;0.0;0.0;0.25;0.75;0.25;1.0;5.0;3.25;2.5;1.75;1.5;11.25;1.5;1.25;-0.184082;0.030273;0.999512;-1.4;6.65;-0.7;333.0;0.274579;0.039722;0.0;2.5;1.25;2.25;1.25;3.25;0.0;1.5;0.0;0.0;0.0;0.0;0.25;1.0;0.0;0.0;-0.202148;0.008789;0.98584;4.55;-3.15;1.61;158.0;-0.165798;-0.175962
1.03;0.0;0.0;0.0;0.25;0.25;0.5;0.5;0.75;5.0;3.25;2.25;1.75;1.5;11.5;1.75;1.75;-0.182617;0.027832;1.00293;-1.33;8.19;-0.84;338.0;0.277748;0.04604;0.0;2.25;1.25;2.25;1.75;3.5;0.0;2.0;0.0;0.0;0.0;0.25;0.25;1.0;0.25;0.0;-0.21582;0.046387;1.0;4.27;-4.13;2.45;178.0;-0.138212;-0.180234
1.04;0.0;0.0;0.0;0.0;0.25;0.25;0.25;0.25;5.0;3.25;2.25;1.75;1.0;11.75;1.75;1.75;-0.187988;0.036133;1.006836;-1.33;10.5;-1.33;318.0;0.299858;0.069003;0.25;2.5;1.25;2.25;2.0;3.5;0.0;2.0;0.0;0.0;0.0;0.25;0.25;1.0;0.0;0.0;-0.210449;0.051758;0.991699;2.73;-2.59;2.66;184.0;-0.154418;-0.173175
1.05;0.0;0.0;0.0;0.0;0.0;0.25;0.25;0.25;5.25;4.0;2.25;1.75;1.0;12.25;1.75;1.25;-0.193359;0.033691;1.01123;-1.4;13.440001;-1.89;328.0;0.302795;0.076169;0.25;2.25;1.5;2.75;2.0;3.75;0.0;2.0;0.0;0.0;0.0;0.0;0.25;1.0;0.0;0.0;-0.199707;0.040527;0.98877;0.7;-1.89;1.68;190.0;-0.162384;-0.170403
1.06;0.0;0.0;0.0;0.0;0.0;0.25;0.25;0.0;5.25;4.0;2.25;1.75;0.5;12.25;1.5;1.5;-0.19873;0.02832;1.007812;-1.4;17.43;-2.1;318.0;0.308199;0.089863;0.25;2.75;1.25;3.0;2.25;4.25;0.0;2.5;0.0;0.0;0.0;0.0;0.25;1.5;0.0;0.0;-0.203125;0.024902;0.994141;-0.84;-1.61;0.84;217.0;-0.149729;-0.175361
1.07;0.0;0.0;0.0;0.0;0.25;0.25;0.25;0.0;5.0;4.25;1.75;1.75;0.25;12.5;1.5;1.25;-0.188477;0.051758;1.01123;-2.17;25.41;-2.52;313.0;0.307105;0.097714;0.25;3.25;1.5;3.75;2.5;4.5;0.0;2.5;0.25;0.0;0.0;0.0;0.25;2.0;0.0;0.0;-0.198242;0.016602;0.993164;-0.49;-1.75;0.98;248.0;-0.144935;-0.158963
1.08;0.0;0.0;0.0;0.0;0.0;0.25;0.25;0.25;5.0;3.25;1.25;1.25;0.25;13.0;1.75;1.0;-0.213379;0.035156;0.999023;-4.48;30.17;-2.87;297.0;0.31541;0.10583;0.0;3.25;1.5;3.5;2.25;4.75;0.0;2.5;0.0;0.0;0.0;0.0;0.25;2.0;0.25;0.0;-0.199219;0.015625;0.989746;0.42;-1.82;1.33;242.0;-0.139866;-0.170906
1.09;0.0;0.0;0.0;0.0;0.0;0.25;0.0;0.0;5.5;3.25;1.25;1.0;0.25;13.0;1.75;1.0;-0.236328;0.059082;1.034668;-7.77;35.91;-4.48;293.0;0.322981;0.119027;0.0;3.0;1.5;3.5;2.25;5.0;0.0;2.75;0.0;0.0;0.0;0.0;0.5;2.0;0.0;0.0;-0.200195;0.019531;0.989258;1.68;-1.47;1.61;246.0;-0.13844;-0.179742
1.1;0.0;0.0;0.0;0.0;0.0;0.0;0.0;0.0;5.75;3.25;1.0;1.0;0.25;13.25;1.25;0.75;-0.206055;0.040527;1.023438;-8.96;47.529999;-5.95;286.0;0.326896;0.13413;0.25;3.25;1.5;3.75;2.25;4.75;0.0;3.0;0.25;0.0;0.0;0.25;0.5;1.75;0.0;0.0;-0.195801;0.018066;0.989746;2.94;-1.33;2.1;260.0;-0.139204;-0.177542
1.11;0.0;0.0;0.0;0.0;0.0;0.0;0.0;0.0;5.75;3.25;1.0;0.75;0.0;13.25;1.25;0.75;-0.241211;0.038086;1.068848;-14.84;56.700001;-9.45;281.0;0.329446;0.143536;0.0;3.25;1.5;3.75;2.25;5.25;0.0;3.5;0.0;0.25;0.0;0.25;0.5;2.25;0.0;0.0;-0.202637;0.026367;0.989746;3.57;-1.4;2.24;275.0;-0.124834;-0.186424
1.12;0.0;0.0;0.0;0.0;0.0;0.25;0.0;0.0;5.5;3.25;0.5;0.75;0.0;13.25;1.5;0.75;-0.227051;0.041016;1.033691;-18.129999;58.450001;-9.94;278.0;0.328169;0.140404;0.0;3.25;1.25;3.75;2.0;5.25;0.0;3.75;0.0;0.0;0.0;0.25;0.75;2.75;0.25;0.0;-0.201172;0.025879;0.984863;3.57;-0.91;2.03;280.0;-0.108505;-0.192886
1.13;0.0;0.0;0.0;0.0;0.0;0.0;0.0;0.0;5.5;3.25;0.75;0.5;0.0;13.5;1.75;0.75;-0.251953;0.018555;1.046387;-24.290001;61.389999;-12.6;280.0;0.335009;0.144712;0.25;3.0;1.25;3.75;1.5;5.25;0.0;4.0;0.0;0.0;0.0;0.25;1.0;2.75;0.25;0.25;-0.199219;0.025391;0.996582;4.13;-0.14;2.24;283.0;-0.10216;-0.201306
1.14;0.0;0.0;0.0;0.0;0.0;0.0;0.0;0.0;5.5;3.25;0.75;0.5;0.0;14.0;2.0;0.5;-0.234863;0.023438;1.053711;-28.0;63.98;-13.51;286.0;0.336886;0.145354;0.0;3.25;1.25;3.5;1.75;5.5;0.0;4.25;0.0;0.0;0.0;0.25;1.5;3.25;0.25;0.25;-0.205078;0.018066;0.990723;4.9;-0.21;2.87;299.0;-0.087292;-0.202658
1.15;0.0;0.0;0.0;0.0;0.0;0.0;0.0;0.0;5.5;3.25;0.75;0.25;0.0;14.0;1.5;0.25;-0.286133;-0.008301;1.029785;-29.33;67.199997;-14.28;276.0;0.336653;0.157172;0.0;3.0;1.25;3.5;1.25;5.75;0.0;4.5;0.25;0.25;0.0;0.25;1.75;3.25;0.25;0.25;-0.204102;0.025879;0.98877;5.11;-0.35;3.57;306.0;-0.074412;-0.205334
1.16;0.0;0.0;0.0;0.0;0.0;0.0;0.0;0.0;5.25;3.0;0.25;0.25;0.0;14.5;1.25;0.25;-0.273438;0.084961;1.04834;-30.380001;70.0;-15.47;265.0;0.341718;0.165425;0.0;3.0;1.0;3.25;1.25;6.0;0.0;5.0;0.0;0.0;0.0;0.5;2.0;3.5;0.0;0.25;-0.19043;0.013672;0.983887;4.69;-0.56;3.71;310.0;-0.072578;-0.222778
1.17;0.0;0.0;0.0;0.0;0.0;0.0;0.0;0.0;5.25;2.75;0.25;0.25;0.0;14.5;1.5;0.5;-0.265137;0.097656;1.02002;-28.98;71.959999;-18.34;267.0;0.343602;0.161185;0.0;3.0;0.5;3.25;1.25;6.25;0.0;5.25;0.0;0.0;0.0;0.5;2.0;3.5;0.0;0.25;-0.214844;0.037109;0.995605;3.71;-1.05;3.57;311.0;-0.068744;-0.231653
1.18;0.0;0.0;0.0;0.0;0.0;0.0;0.0;0.0;5.0;2.25;0.5;0.5;0.25;14.5;1.5;0.25;-0.370117;0.083496;1.056152;-28.77;72.660004;-21.629999;264.0;0.342597;0.150867;0.0;2.75;0.5;3.5;1.25;6.5;0.0;5.5;0.25;0.0;0.0;0.5;2.5;2.75;0.25;0.25;-0.213379;0.031738;0.984863;3.22;-2.73;3.15;322.0;-0.067177;-0.239809
1.19;0.0;0.0;0.0;0.0;0.0;0.0;0.0;0.0;4.75;2.25;0.25;0.5;0.0;14.5;1.5;0.25;-0.353027;0.097656;0.993652;-29.26;73.43;-28.91;255.0;0.346703;0.157771;0.0;3.25;1.0;4.0;1.5;7.0;0.0;5.5;0.0;0.0;0.0;0.25;2.5;2.75;0.25;0.25;-0.208008;0.035645;0.996582;3.08;-3.99;2.8;342.0;-0.087419;-0.23544
1.2;0.0;0.0;0.0;0.0;0.0;0.0;0.0;0.0;4.5;2.25;0.25;0.25;0.0;14.5;1.5;0.25;-0.380859;0.130859;1.009277;-24.85;72.239998;-35.77;249.0;0.349628;0.161358;0.0;3.25;1.0;4.25;1.75;7.75;0.0;5.75;0.0;0.25;0.0;0.25;2.75;2.5;0.0;0.25;-0.19043;0.040039;0.991211;2.8;-4.2;2.38;361.0;-0.093018;-0.238607
1.21;0.0;0.0;0.0;0.0;0.0;0.0;0.0;0.0;3.75;2.0;0.25;0.25;0.0;14.5;1.5;0.25;-0.302734;0.151367;0.9375;-17.99;69.580002;-42.91;235.0;0.355202;0.157386;0.0;3.75;1.25;4.25;1.75;7.75;0.0;6.25;0.25;0.25;0.0;0.5;2.75;2.5;0.0;0.25;-0.184082;0.043945;0.98877;1.75;-3.43;1.89;384.0;-0.09137;-0.234019
1.22;0.0;0.0;0.0;0.0;0.0;0.0;0.0;0.0;3.5;1.75;0.25;0.25;0.0;14.25;1.5;0.25;-0.402344;0.070312;0.941895;-13.58;66.709999;-49.279999;227.0;0.357608;0.156503;0.0;3.75;0.75;4.25;1.75;7.75;0.0;6.25;0.25;0.0;0.0;0.5;3.0;2.75;0.25;0.25;-0.199707;0.044434;0.992188;0.07;-2.38;1.26;383.0;-0.082656;-0.239155
1.23;0.0;0.0;0.0;0.0;0.0;0.0;0.0;0.0;3.25;1.75;0.25;0.25;0.0;14.25;1.5;0.0;-0.410156;0.083008;0.947754;-7.14;61.529999;-56.490002;222.0;0.359236;0.157748;0.0;3.75;1.0;4.75;2.25;8.25;0.0;6.25;0.25;0.0;0.0;0.5;3.0;3.0;0.25;0.25;-0.206543;0.032715;0.991699;-1.19;-1.82;0.84;406.0;-0.085872;-0.230147
1.24;0.0;0.0;0.0;0.0;0.0;0.0;0.0;0.0;2.5;1.5;0.25;0.25;0.0;14.25;1.5;0.25;-0.369141;0.141113;0.882812;1.12;56.209999;-64.540001;209.0;0.36612;0.149714;0.25;3.75;1.25;5.0;2.5;8.25;0.0;6.25;0.0;0.0;0.0;0.5;2.75;3.25;0.25;0.25;-0.199219;0.036133;0.999512;-1.89;-1.75;0.63;414.0;-0.09272;-0.224086
1.25;0.0;0.0;0.0;0.0;0.0;0.0;0.0;0.0;2.0;1.25;0.25;0.25;0.0;14.0;1.0;0.25;-0.376953;0.107422;0.855957;9.59;49.77;-71.82;191.0;0.370266;0.152932;0.25;3.75;1.25;4.75;2.5;8.25;0.0;6.25;0.0;0.0;0.0;0.5;2.5;3.25;0.25;0.25;-0.206055;0.03418;0.991699;-2.1;-1.61;0.49;409.0;-0.092802;-0.222711
1.26;0.0;0.0;0.0;0.0;0.0;0.0;0.0;0.0;1.75;1.25;0.25;0.25;0.0;14.0;1.0;0.25;-0.339355;0.082031;0.850098;19.879999;38.920002;-81.129997;188.0;0.372437;0.150622;0.0;3.75;1.25;4.75;2.5;8.25;0.0;5.75;0.25;0.0;0.0;0.5;2.5;3.25;0.25;0.25;-0.203613;0.035156;0.993652;-2.03;-1.33;0.42;401.0;-0.089172;-0.217107
1.27;0.0;0.0;0.0;0.0;0.0;0.0;0.0;0.0;1.0;1.25;0.25;0.25;0.0;13.75;1.0;0.25;-0.369629;0.066406;0.830566;24.639999;31.43;-86.379997;175.0;0.379032;0.142668;0.0;3.75;1.25;5.0;2.75;8.25;0.0;5.75;0.25;0.0;0.0;0.75;2.5;3.25;0.25;0.25;-0.201172;0.032715;0.992188;-1.75;-1.12;0.35;410.0;-0.088795;-0.215675
1.28;0.0;0.0;0.0;0.0;0.0;0.0;0.0;0.0;1.25;1.25;0.25;0.25;0.0;13.75;0.75;0.25;-0.354004;0.07373;0.819336;30.73;24.43;-91.209999;175.0;0.376055;0.149021;0.25;3.75;1.25;5.0;2.5;7.75;0.0;5.75;0.25;0.0;0.25;0.75;2.75;3.5;0.25;0.25;-0.206543;0.03125;0.995605;-1.68;-0.77;0.56;412.0;-0.08328;-0.213134
1.29;0.0;0.0;0.0;0.0;0.0;0.0;0.0;0.0;1.25;1.0;0.25;0.25;0.0;13.5;0.75;0.25;-0.352539;0.056641;0.806641;35.84;16.799999;-95.269997;170.0;0.377809;0.150047;0.0;3.75;1.25;5.0;2.75;7.75;0.0;5.5;0.25;0.25;0.25;0.75;2.5;3.5;0.25;0.25;-0.201172;0.035156;0.98877;-1.54;-0.63;0.63;408.0;-0.081299;-0.208161
1.3;0.0;0.0;0.0;0.0;0.0;0.0;0.0;0.0;1.5;1.0;0.25;0.25;0.0;13.25;1.0;0.25;-0.376953;0.004395;0.822266;40.110001;10.5;-98.279999;174.0;0.375342;0.148411;0.0;3.5;1.25;4.75;2.5;7.75;0.0;5.5;0.25;0.0;0.0;0.25;2.5;3.5;0.5;0.25;-0.204102;0.02832;0.994141;-1.4;-0.63;0.77;391.0;-0.08249;-0.210821
1.31;0.0;0.0;0.0;0.0;0.0;0.0;0.0;0.0;1.5;1.0;0.25;0.25;0.0;13.0;0.5;0.25;-0.347656;-0.01416;0.824219;44.310001;3.92;-100.660004;166.0;0.37369;0.15594;0.25;3.75;1.25;4.75;2.5;7.25;0.0;5.5;0.25;0.0;0.0;0.25;2.5;3.5;0.5;0.25;-0.200684;0.033691;0.991699;-1.47;-0.7;0.63;390.0;-0.085909;-0.20727
1.32;0.0;0.0;0.0;0.0;0.0;0.0;0.0;0.0;1.5;1.25;0.25;0.25;0.0;13.25;0.75;0.0;-0.37207;-0.062012;0.844238;49.209999;-4.76;-102.550003;173.0;0.372729;0.154804;0.0;3.75;1.25;5.0;2.5;7.25;0.0;5.5;0.5;0.0;0.0;0.25;2.25;3.25;0.25;0.25;-0.202148;0.031738;0.993164;-1.82;-0.7;0.63;387.0;-0.090195;-0.206951
1.33;0.0;0.0;0.0;0.0;0.0;0.0;0.0;0.0;2.25;1.0;0.25;0.25;0.0;13.0;0.75;0.0;-0.345215;-0.015625;0.869141;50.540001;-9.66;-102.620003;179.0;0.367303;0.163131;0.0;3.5;1.25;5.0;2.75;7.5;0.0;5.5;0.5;0.0;0.0;0.25;2.0;3.25;0.25;0.25;-0.200684;0.032227;0.991211;-2.03;-0.84;0.56;388.0;-0.090398;-0.204098
1.34;0.0;0.0;0.0;0.0;0.0;0.0;0.0;0.0;2.25;1.25;0.25;0.25;0.0;13.0;1.0;0.25;-0.327637;-0.037598;0.894043;53.130001;-14.07;-102.129997;186.0;0.365925;0.154022;0.0;3.75;1.5;5.0;2.75;7.5;0.0;5.5;0.25;0.0;0.0;0.25;2.0;3.25;0.5;0.25;-0.203125;0.032227;0.990723;-2.1;-0.98;0.42;393.0;-0.093375;-0.205045
1.35;0.0;0.0;0.0;0.0;0.0;0.0;0.0;0.0;2.25;0.75;0.25;0.25;0.0;13.25;1.5;0.25;-0.341797;-0.088379;0.912109;55.439999;-17.710001;-101.220001;188.0;0.371576;0.149843;0.25;3.75;1.5;5.0;2.75;7.5;0.0;5.5;0.25;0.0;0.0;0.25;1.75;3.5;0.25;0.25;-0.20166;0.036133;0.989258;-2.1;-1.33;0.49;392.0;-0.097852;-0.199876
1.36;0.0;0.0;0.0;0.0;0.0;0.0;0.0;0.0;2.5;0.75;0.25;0.25;0.0;13.25;1.0;0.25;-0.304688;-0.105957;0.928711;56.77;-20.790001;-99.050003;186.0;0.368234;0.159387;0.25;3.75;1.5;4.75;2.75;7.5;0.0;5.25;0.25;0.25;0.25;0.25;1.75;3.5;0.0;0.25;-0.198242;0.034668;0.991211;-2.03;-1.33;0.49;388.0;-0.096175;-0.195942
1.37;0.0;0.0;0.0;0.0;0.0;0.0;0.0;0.0;2.5;0.75;0.25;0.25;0.0;13.25;0.75;0.25;-0.32373;-0.144043;0.943848;56.98;-22.469999;-95.760002;183.0;0.367612;0.163168;0.25;4.0;1.5;5.25;3.0;7.5;0.0;5.25;0.25;0.0;0.25;0.5;2.0;3.5;0.0;0.25;-0.200195;0.031738;0.97998;-1.96;-1.19;0.56;402.0;-0.099895;-0.198371
1.38;0.0;0.0;0.0;0.0;0.0;0.0;0.0;0.0;2.75;1.0;0.25;0.25;0.0;13.25;1.0;0.25;-0.31543;-0.124512;0.96875;56.139999;-22.540001;-91.419998;192.0;0.364266;0.160113;0.25;4.25;1.5;5.0;2.75;7.5;0.0;5.0;0.25;0.0;0.0;0.75;1.5;3.75;0.0;0.25;-0.201172;0.031738;0.991211;-1.89;-1.12;0.63;392.0;-0.101545;-0.193816
1.39;0.0;0.0;0.0;0.0;0.0;0.0;0.0;0.0;3.25;0.75;0.25;0.25;0.0;13.25;1.0;0.5;-0.284668;-0.142578;0.997559;52.779999;-21.559999;-83.160004;198.0;0.362098;0.162069;0.25;4.0;1.5;4.75;2.75;7.5;0.0;5.25;0.25;0.0;0.0;0.5;1.75;3.75;0.25;0.25;-0.20459;0.033691;0.994629;-1.89;-1.05;0.7;393.0;-0.094095;-0.195903
1.4;0.0;0.0;0.0;0.0;0.0;0.0;0.0;0.0;3.25;0.75;0.25;0.25;0.0;13.5;1.0;0.25;-0.306641;-0.140137;1.006836;49.209999;-19.530001;-76.510002;199.0;0.362718;0.165798;0.25;4.25;1.5;5.0;2.75;7.5;0.0;5.25;0.25;0.25;0.25;0.5;1.5;3.75;0.25;0.0;-0.200195;0.034668;0.987793;-2.03;-0.98;0.77;400.0;-0.096143;-0.191521
1.41;0.0;0.0;0.0;0.0;0.0;0.0;0.0;0.0;3.25;0.75;0.25;0.0;0.0;13.25;1.0;0.25;-0.263184;-0.169434;1.022461;44.52;-16.66;-68.739998;194.0;0.36444;0.172532;0.25;4.0;1.5;5.0;3.0;8.25;0.0;5.25;0.25;0.0;0.25;0.5;1.5;3.75;0.25;0.0;-0.199707;0.030273;0.982422;-1.89;-0.98;0.63;407.0;-0.097953;-0.193382
1.42;0.0;0.0;0.0;0.0;0.0;0.0;0.0;0.0;3.0;0.75;0.25;0.25;0.0;13.5;1.5;0.5;-0.310547;-0.189453;1.064941;38.220001;-13.23;-60.200001;203.0;0.365851;0.153362;0.25;4.25;1.5;5.0;3.0;8.5;0.0;5.25;0.5;0.25;0.25;0.5;1.5;4.0;0.25;0.25;-0.19873;0.03418;0.987305;-1.96;-1.05;0.63;423.0;-0.090552;-0.186475
1.43;0.0;0.0;0.0;0.0;0.0;0.0;0.0;0.0;3.0;0.75;0.25;0.25;0.0;13.75;1.0;0.25;-0.308105;-0.191895;1.033691;30.870001;-9.17;-51.170002;198.0;0.365236;0.163978;0.25;4.25;1.5;5.0;3.0;7.75;0.0;5.25;0.75;0.25;0.0;0.5;1.5;4.25;0.0;0.25;-0.23291;0.027344;1.004395;-1.89;-0.84;0.77;414.0;-0.08904;-0.179797
1.44;0.0;0.0;0.0;0.0;0.0;0.0;0.0;0.0;3.0;0.75;0.5;0.25;0.0;13.75;0.75;0.25;-0.316895;-0.184082;1.024902;24.92;-4.06;-41.860001;198.0;0.362603;0.163497;0.0;4.5;1.5;5.25;3.25;7.75;0.0;5.25;0.75;0.25;0.0;0.5;1.5;4.25;0.0;0.25;-0.20459;0.028809;0.986816;-1.89;-1.12;0.42;420.0;-0.090566;-0.180259
1.45;0.0;0.0;0.0;0.0;0.0;0.0;0.0;0.0;3.0;1.0;0.5;0.25;0.0;13.5;1.0;0.25;-0.286133;-0.171875;1.021484;16.799999;3.64;-27.790001;201.0;0.360943;0.158424;0.0;3.75;1.5;5.0;3.75;7.5;0.0;5.25;0.75;0.0;0.0;0.5;1.5;4.5;0.25;0.25;-0.203125;0.03418;0.993652;-1.89;-1.12;0.56;414.0;-0.079257;-0.175022
1.46;0.0;0.0;0.0;0.0;0.0;0.0;0.0;0.0;3.25;0.75;0.5;0.25;0.0;13.75;1.25;0.25;-0.206543;-0.046387;0.980957;11.62;7.91;-18.41;207.0;0.362022;0.158611;0.25;4.0;1.5;5.0;3.25;8.25;0.0;5.0;1.0;0.25;0.0;0.25;1.5;4.5;0.0;0.25;-0.200684;0.035156;0.993652;-1.75;-0.98;0.63;419.0;-0.085308;-0.170722
1.47;0.0;0.0;0.0;0.0;0.0;0.0;0.0;0.0;3.0;0.75;0.5;0.25;0.0;13.75;1.5;0.25;-0.428223;-0.263672;1.022461;7.91;11.2;-9.87;206.0;0.364495;0.153262;0.0;4.0;1.5;5.0;3.25;7.5;0.0;5.0;0.75;0.25;0.0;0.25;1.5;4.75;0.0;0.25;-0.203613;0.027344;0.992676;-1.54;-0.77;0.7;406.0;-0.081785;-0.172353
1.48;0.0;0.0;0.0;0.0;0.0;0.0;0.0;0.0;2.75;0.75;0.25;0.25;0.0;13.75;1.25;0.25;-0.320801;-0.164551;1.018066;3.99;16.030001;-0.63;197.0;0.367838;0.158396;0.0;3.75;1.5;5.25;3.75;8.25;0.0;5.0;1.0;0.0;0.25;0.25;1.5;4.75;0.25;0.25;-0.198242;0.025879;0.995605;-1.4;-0.77;0.7;428.0;-0.077313;-0.168433
1.49;0.0;0.0;0.0;0.0;0.0;0.0;0.0;0.0;2.5;1.0;0.25;0.25;0.0;13.75;1.25;0.25;-0.347168;-0.05127;0.980469;3.5;19.950001;5.67;196.0;0.36803;0.154917;0.25;3.75;1.5;5.0;3.75;7.75;0.25;5.0;1.5;0.0;0.25;0.25;1.5;5.0;0.25;0.25;-0.202637;0.026367;0.993652;-1.33;-0.84;0.77;436.0;-0.067377;-0.151814
1.5;0.0;0.0;0.0;0.0;0.0;0.0;0.0;0.0;2.5;0.75;0.25;0.25;0.0;13.75;1.5;0.25;-0.365234;-0.064453;1.006836;7.0;23.24;8.33;196.0;0.370458;0.152773;0.25;3.75;1.5;5.0;3.25;7.75;0.0;5.25;2.25;0.0;0.0;0.25;1.5;5.0;0.25;0.25;-0.19873;0.030762;0.984863;-1.4;-1.12;0.63;437.0;-0.061428;-0.150516
1.51;0.0;0.0;0.0;0.0;0.0;0.0;0.0;0.0;2.25;0.75;0.25;0.25;0.0;13.5;1.5;0.5;-0.37793;-0.017578;1.007812;6.72;27.58;10.57;192.0;0.371981;0.1466;0.25;4.0;1.75;5.0;3.25;7.75;0.0;5.0;1.5;0.0;0.0;0.5;1.75;5.5;0.0;0.25;-0.202148;0.029297;0.987793;-1.33;-1.26;0.56;435.0;-0.068216;-0.156685
1.52;0.0;0.0;0.0;0.0;0.0;0.0;0.0;0.0;2.25;0.75;0.25;0.25;0.0;13.5;1.0;0.25;-0.383301;-0.003906;1.000488;5.81;30.309999;9.73;185.0;0.370968;0.157394;0.25;4.0;1.75;5.25;3.75;7.75;0.0;5.0;1.5;0.25;0.0;0.5;1.5;5.25;0.25;0.25;-0.200195;0.029785;0.988281;-1.4;-1.47;0.42;445.0;-0.069192;-0.152448
1.53;0.0;0.0;0.0;0.0;0.0;0.0;0.0;0.0;1.75;0.75;0.25;0.25;0.0;13.25;1.5;0.0;-0.388184;0.006348;1.001465;6.09;32.48;8.19;179.0;0.37628;0.148712;0.25;4.0;2.0;5.5;3.75;7.75;0.25;5.0;0.75;0.25;0.25;0.5;1.5;5.5;0.25;0.25;-0.202148;0.032227;0.991211;-1.19;-1.68;0.56;450.0;-0.074011;-0.15592
1.54;0.0;0.0;0.0;0.0;0.0;0.0;0.0;0.0;1.75;0.75;0.0;0.25;0.0;13.75;1.5;0.25;-0.39502;0.015137;0.982422;4.48;34.720001;6.23;183.0;0.379427;0.149842;0.25;4.0;1.5;5.0;3.75;8.25;0.25;5.0;1.5;0.0;0.25;0.5;1.5;5.75;0.25;0.25;-0.202637;0.030273;0.990723;-1.05;-1.75;0.35;454.0;-0.061311;-0.149337
1.55;0.0;0.0;0.0;0.0;0.0;0.0;0.0;0.0;1.5;0.5;0.0;0.25;0.0;13.5;1.5;0.25;-0.392578;0.01416;0.988281;2.8;36.470001;4.13;174.0;0.383778;0.148313;0.25;4.0;1.75;5.0;3.75;8.25;0.25;5.0;1.5;0.0;0.25;0.5;1.5;5.5;0.25;0.25;-0.203613;0.026367;0.991211;-1.05;-1.89;0.56;455.0;-0.065102;-0.149405
1.56;0.0;0.0;0.0;0.0;0.0;0.0;0.0;0.0;1.5;0.5;0.25;0.25;0.0;13.5;1.5;0.25;-0.395508;0.006836;0.987305;0.49;37.73;2.24;177.0;0.381227;0.14404;0.25;4.0;1.75;5.25;3.75;8.75;0.25;5.0;1.5;0.0;0.25;0.25;1.5;5.75;0.25;0.25;-0.203125;0.030762;0.995117;-1.05;-1.89;0.42;463.0;-0.066968;-0.148933
1.57;0.0;0.0;0.0;0.0;0.0;0.0;0.0;0.0;1.0;0.25;0.25;0.25;0.0;13.25;1.0;0.25;-0.371094;-0.006836;0.9375;-2.31;38.150002;0.77;159.0;0.387941;0.147275;0.25;4.0;2.0;5.5;3.75;8.75;0.25;5.0;1.75;0.0;0.25;0.25;1.5;6.0;0.25;0.25;-0.202637;0.028809;0.98877;-0.98;-1.89;0.35;475.0;-0.064856;-0.143099
1.58;0.0;0.0;0.0;0.0;0.0;0.0;0.0;0.0;0.75;0.5;0.25;0.25;0.0;12.75;0.75;0.0;-0.39502;-0.009766;0.957031;-5.04;37.029999;-1.47;149.0;0.387412;0.150681;0.5;4.0;2.0;5.5;4.25;8.75;0.25;5.25;1.5;0.0;0.25;0.25;1.5;5.75;0.25;0.25;-0.200684;0.029785;0.994629;-0.98;-1.89;0.28;482.0;-0.071823;-0.145866
1.59;0.0;0.0;0.0;0.0;0.0;0.0;0.0;0.0;0.75;0.5;0.25;0.0;0.0;12.5;0.75;0.25;-0.378418;-0.029297;0.921387;-7.63;35.139999;-2.24;145.0;0.390303;0.154379;0.25;4.25;2.0;5.5;4.5;8.75;0.25;5.25;1.5;0.0;0.25;0.25;1.5;5.75;0.5;0.25;-0.200684;0.029297;0.995117;-0.98;-1.89;0.42;488.0;-0.069192;-0.145799
1.6;0.0;0.0;0.0;0.0;0.0;0.0;0.0;0.0;1.0;0.5;0.25;0.25;0.0;12.5;1.5;0.25;-0.356445;-0.059082;0.834473;-11.13;31.85;-1.33;160.0;0.384953;0.136273;0.25;4.5;2.0;5.5;4.5;9.0;0.25;5.25;1.5;0.0;0.25;0.25;1.5;6.0;0.0;0.0;-0.201172;0.029297;0.995117;-0.84;-1.68;0.28;488.0;-0.076103;-0.14538
1.61;0.0;0.0;0.0;0.0;0.0;0.0;0.0;0.0;1.0;0.75;0.25;0.0;0.0;12.5;1.25;0.25;-0.365723;-0.086914;0.730469;-15.75;27.65;0.63;157.0;0.385201;0.146863;0.25;5.0;2.25;5.5;4.25;9.0;0.25;5.25;1.75;0.25;0.25;0.25;1.5;6.0;0.0;0.0;-0.198242;0.028809;0.994629;-0.7;-1.47;0.21;500.0;-0.076219;-0.141203
1.62;0.0;0.0;0.0;0.0;0.0;0.0;0.0;0.0;0.75;0.75;0.25;0.0;0.0;12.75;1.0;0.25;-0.449707;-0.036621;0.709473;-16.52;23.1;2.52;153.0;0.388207;0.148639;0.25;4.25;2.0;5.75;4.5;9.0;0.25;5.25;1.5;0.25;0.25;0.5;1.5;6.0;0.25;0.0;-0.200684;0.029785;0.991699;-0.7;-1.19;0.35;497.0;-0.069405;-0.145062
1.63;0.0;0.0;0.0;0.0;0.0;0.0;0.0;0.0;0.75;0.5;0.25;0.0;0.0;12.75;1.0;0.25;-0.459473;-0.036133;0.647461;-14.07;13.51;2.52;150.0;0.390993;0.150238;0.25;4.25;2.0;5.5;4.5;9.0;0.25;5.0;1.5;0.0;0.25;0.75;1.75;6.0;0.25;0.25;-0.201172;0.034668;0.989746;-0.56;-0.84;0.28;494.0;-0.066298;-0.14659
1.64;0.0;0.0;0.0;0.0;0.0;0.0;0.0;0.0;1.0;0.5;0.25;0.25;0.0;12.75;1.0;0.25;-0.400391;0.022461;0.636719;-4.76;-4.27;0.07;157.0;0.384529;0.144861;0.25;4.0;2.25;5.5;4.5;9.0;0.0;5.25;1.5;0.0;0.25;0.25;1.5;6.0;0.25;0.25;-0.200195;0.030273;0.987305;-0.42;-0.56;0.21;486.0;-0.070907;-0.147116
1.65;0.0;0.0;0.0;0.0;0.0;0.0;0.0;0.0;1.0;0.5;0.25;0.25;0.0;13.0;1.0;0.5;-0.39209;-0.026855;0.682129;1.96;-17.99;-1.19;161.0;0.384705;0.14111;0.25;3.75;2.25;5.5;4.25;9.0;0.25;5.25;1.25;0.0;0.25;0.0;1.5;6.0;0.25;0.25;-0.201172;0.029785;0.990234;-0.35;-0.49;0.28;478.0;-0.071571;-0.147227
1.66;0.0;0.0;0.0;0.0;0.0;0.0;0.0;0.0;0.75;0.5;0.25;0.25;0.0;13.25;1.0;0.25;-0.378418;-0.03125;0.714355;4.55;-32.759998;-0.42;158.0;0.388274;0.142902;0.25;3.75;2.0;5.25;4.0;8.75;0.0;5.25;1.5;0.25;0.0;0.25;1.5;6.0;0.25;0.0;-0.201172;0.034668;0.987793;-0.49;-0.35;0.21;467.0;-0.066457;-0.148314
1.67;0.0;0.0;0.0;0.0;0.0;0.0;0.0;0.0;1.0;0.75;0.25;0.25;0.0;13.25;0.75;0.0;-0.37793;-0.004883;0.746094;6.79;-45.779999;-0.07;160.0;0.382623;0.152691;0.25;4.25;2.0;5.5;4.25;9.0;0.25;5.25;1.5;0.25;0.0;0.25;1.5;6.0;0.5;0.25;-0.196289;0.028809;0.991699;-0.56;-0.28;0.14;490.0;-0.066995;-0.145265
1.68;0.0;0.0;0.0;0.0;0.0;0.0;0.0;0.0;2.0;0.25;0.0;0.25;0.0;13.75;0.75;0.25;-0.371094;-0.019043;0.795898;11.13;-57.68;-0.35;172.0;0.380023;0.166862;0.0;4.0;2.0;5.5;4.0;8.75;0.25;5.25;1.25;0.25;0.0;0.25;1.5;6.0;0.5;0.25;-0.199219;0.033691;0.992676;-0.63;-0.21;0.07;475.0;-0.06467;-0.150334
1.69;0.0;0.0;0.0;0.0;0.0;0.0;0.0;0.0;2.25;0.25;0.25;0.25;0.0;14.0;1.0;0.5;-0.374512;-0.036621;0.854492;13.58;-67.900002;0.42;185.0;0.375931;0.157004;0.0;3.75;2.0;5.0;4.0;8.5;0.25;5.25;1.5;0.0;0.25;0.25;1.5;6.0;0.5;0.25;-0.203613;0.028809;0.994141;-0.84;-0.07;-0.07;467.0;-0.056971;-0.14635
1.7;0.0;0.0;0.0;0.0;0.0;0.0;0.0;0.0;2.25;0.5;0.0;0.25;0.0;14.0;1.0;0.5;-0.38623;-0.027344;0.894043;16.379999;-75.809998;2.17;185.0;0.37617;0.159792;0.25;3.5;1.5;5.0;3.75;8.25;0.25;5.0;1.5;0.25;0.25;0.25;1.75;6.0;0.25;0.25;-0.201172;0.031738;0.990723;-0.98;0.07;0.07;453.0;-0.053556;-0.146834
1.71;0.0;0.0;0.0;0.0;0.0;0.0;0.0;0.0;2.75;0.5;0.0;0.25;0.0;14.25;1.0;0.5;-0.36377;-0.042969;0.995605;25.620001;-87.150002;6.51;195.0;0.372201;0.164217;0.25;3.25;1.75;5.0;3.75;8.25;0.25;5.25;1.5;0.25;0.25;0.5;1.75;6.0;0.0;0.25;-0.200195;0.030762;0.984863;-0.98;0.14;0.21;458.0;-0.053835;-0.14872
1.72;0.0;0.0;0.0;0.0;0.0;0.0;0.0;0.0;3.0;0.75;0.25;0.25;0.0;14.5;1.0;0.75;-0.351074;-0.013672;1.017578;26.6;-89.949997;8.47;208.0;0.366752;0.157623;0.25;3.25;1.75;5.0;3.75;8.5;0.0;5.0;1.5;0.25;0.25;0.5;1.5;6.0;0.25;0.5;-0.204102;0.030273;0.98877;-0.98;0.14;0.14;455.0;-0.052974;-0.149346
1.73;0.0;0.0;0.0;0.0;0.0;0.0;0.0;0.0;3.5;0.25;0.25;0.25;0.0;14.5;1.5;0.75;-0.347656;-0.001465;1.055664;29.120001;-90.300003;9.8;215.0;0.367509;0.15759;0.25;3.25;1.75;5.0;3.75;7.5;0.0;5.0;1.25;0.0;0.25;0.75;1.5;6.0;0.25;0.5;-0.203613;0.027344;0.989746;-1.05;0.07;0.28;439.0;-0.052989;-0.151785
1.74;0.0;0.0;0.0;0.0;0.0;0.0;0.0;0.0;3.5;0.5;0.25;0.25;0.25;14.5;1.5;0.75;-0.335449;0.006836;1.09082;31.219999;-89.669998;10.57;220.0;0.363756;0.149756;0.0;3.25;1.5;4.75;3.25;8.25;0.0;5.0;1.25;0.0;0.0;0.25;1.75;6.25;0.25;0.5;-0.202148;0.029297;0.991211;-1.12;0.28;0.14;429.0;-0.050214;-0.15843
1.75;0.0;0.0;0.0;0.0;0.0;0.0;0.0;0.0;4.0;0.75;0.25;0.25;0.0;14.5;2.0;0.75;-0.316895;0.036621;1.050293;27.860001;-88.550003;9.31;233.0;0.362003;0.153;0.0;3.25;1.5;4.25;3.25;7.5;0.0;4.75;1.0;0.0;0.25;0.25;1.5;6.25;0.25;0.5;-0.20166;0.023438;0.989746;-1.26;0.42;0.21;407.0;-0.046896;-0.154306
1.76;0.0;0.0;0.0;0.0;0.0;0.0;0.0;0.0;3.75;1.0;0.25;0.25;0.0;14.5;2.0;0.75;-0.302246;0.033691;1.060547;25.129999;-86.519997;6.93;233.0;0.362147;0.150048;0.0;3.25;1.5;4.25;3.25;7.0;0.0;4.75;1.25;0.0;0.25;0.25;1.5;6.25;0.0;0.5;-0.201172;0.028809;0.994629;-1.26;0.63;0.35;402.0;-0.045881;-0.149252
1.77;0.0;0.0;0.0;0.0;0.0;0.0;0.0;0.0;4.0;1.0;0.25;0.25;0.0;14.25;2.0;0.75;-0.276855;0.030762;1.091309;18.620001;-81.550003;3.78;234.0;0.360021;0.151671;0.0;3.25;1.5;4.0;3.25;7.0;0.0;4.75;1.25;0.0;0.25;0.25;1.5;6.75;0.25;0.5;-0.200684;0.030273;0.990723;-1.33;0.56;0.28;407.0;-0.035665;-0.14449
1.78;0.0;0.0;0.0;0.0;0.0;0.0;0.0;0.0;4.0;1.25;0.5;0.5;0.0;14.0;2.0;0.75;-0.263672;0.036621;1.101074;15.47;-75.529999;2.24;240.0;0.354657;0.141817;0.0;2.25;1.5;3.75;3.25;7.0;0.0;4.5;1.5;0.0;0.25;0.25;1.5;6.75;0.25;0.25;-0.20166;0.026367;0.98584;-1.4;0.35;0.14;391.0;-0.023003;-0.13622
1.79;0.0;0.0;0.0;0.0;0.0;0.0;0.0;0.0;4.0;1.25;0.25;0.5;0.25;13.75;2.0;0.75;-0.248047;0.035156;1.043945;10.29;-69.019997;1.05;237.0;0.353802;0.138585;0.25;2.25;1.25;3.75;3.0;6.5;0.0;4.25;1.5;0.0;0.25;0.25;1.5;6.75;0.25;0.25;-0.201172;0.02832;0.990723;-1.33;0.35;0.21;378.0;-0.021165;-0.132809
1.8;0.0;0.0;0.0;0.0;0.0;0.0;0.0;0.0;3.75;1.25;0.25;0.25;0.25;13.25;2.0;0.75;-0.242188;0.03418;1.037598;5.95;-62.369999;0.35;226.0;0.356005;0.141176;0.0;2.25;1.25;3.5;3.0;6.5;0.0;4.25;1.5;0.0;0.25;0.25;1.25;6.75;0.25;0.25;-0.199707;0.026367;0.988281;-1.33;0.42;0.21;370.0;-0.017299;-0.131817
1.81;0.0;0.0;0.0;0.0;0.0;0.0;0.0;0.0;4.0;1.75;0.25;0.25;0.25;13.25;1.5;0.75;-0.23877;0.029785;1.034668;3.29;-54.25;0.07;230.0;0.350302;0.146907;0.0;2.25;1.5;3.5;3.0;6.5;0.0;4.25;1.5;0.0;0.25;0.25;1.25;6.75;0.25;0.25;-0.205078;0.032227;0.987305;-1.19;0.42;0.14;373.0;-0.019329;-0.130008
1.82;0.0;0.0;0.0;0.0;0.0;0.0;0.0;0.0;4.0;1.75;0.25;0.25;0.25;13.0;1.75;0.75;-0.220703;0.015137;1.026855;2.31;-46.200001;-0.21;230.0;0.350387;0.143745;0.25;2.25;1.25;3.5;2.75;6.75;0.0;4.25;1.5;0.0;0.25;0.25;1.25;6.75;0.25;0.25;-0.207031;0.02832;0.993164;-1.12;0.49;0.28;373.0;-0.020436;-0.132671
1.83;0.0;0.0;0.0;0.0;0.0;0.0;0.0;0.0;4.0;1.75;0.5;0.5;0.25;12.75;2.0;1.0;-0.215332;0.025391;1.031738;1.47;-35.209999;0.28;238.0;0.347285;0.129401;0.0;2.25;1.25;2.75;2.75;6.5;0.0;4.5;1.5;0.25;0.25;0.0;1.5;6.75;0.5;0.5;-0.204102;0.027832;0.987793;-1.12;0.35;0.35;369.0;-0.003535;-0.133717
1.84;0.0;0.0;0.0;0.0;0.0;0.0;0.0;0.0;3.75;1.75;0.25;0.75;0.25;12.75;1.5;0.75;-0.206055;0.027344;1.012207;2.24;-24.219999;0.77;227.0;0.346851;0.133029;0.0;2.25;1.25;3.0;2.75;6.5;0.0;4.25;1.5;0.25;0.25;0.0;1.25;6.75;0.5;0.5;-0.205078;0.02832;0.981934;-1.12;0.14;0.35;365.0;-0.006883;-0.129409
1.85;0.0;0.0;0.0;0.0;0.0;0.0;0.0;0.25;3.75;1.75;0.5;0.5;0.25;12.5;2.0;0.75;-0.210449;0.03125;1.004883;1.68;-19.18;0.84;235.0;0.341577;0.120275;0.25;2.25;1.25;2.75;2.75;6.25;0.0;4.25;1.5;0.0;0.25;0.25;1.25;6.25;0.5;0.25;-0.20459;0.026855;0.983887;-1.05;-0.28;0.56;356.0;-0.013688;-0.131637
1.86;0.0;0.0;0.0;0.0;0.0;0.0;0.0;0.25;3.75;1.25;0.75;0.25;0.5;12.75;2.25;0.75;-0.212402;0.025391;0.993164;1.4;-16.379999;0.14;237.0;0.344048;0.116176;0.25;2.25;1.25;3.0;2.75;6.5;0.0;4.25;0.75;0.0;0.25;0.25;1.25;6.75;0.5;0.25;-0.202148;0.025879;0.986328;-0.91;-0.42;0.56;356.0;-0.01973;-0.141809
1.87;0.0;0.0;0.0;0.0;0.0;0.0;0.0;0.25;4.0;1.25;0.5;0.5;0.5;12.75;2.0;0.75;-0.204102;0.037109;0.995117;0.35;-13.58;0.14;237.0;0.341705;0.118737;0.25;2.25;1.25;3.25;2.75;6.25;0.0;4.0;1.25;0.0;0.25;0.5;1.25;6.75;0.5;0.25;-0.20459;0.027344;0.994629;-0.98;-0.49;0.49;362.0;-0.013673;-0.131538
1.88;0.0;0.0;0.0;0.0;0.0;0.0;0.0;0.25;4.0;1.5;0.5;0.5;0.5;12.5;1.75;1.0;-0.190918;0.02832;1.0;0.07;-12.88;-0.07;237.0;0.339095;0.117223;0.25;2.0;1.25;3.25;2.75;6.5;0.0;4.0;1.5;0.0;0.25;0.5;1.25;6.75;0.5;0.25;-0.207031;0.034668;0.983398;-1.19;-0.49;0.49;366.0;-0.009385;-0.128481
1.89;0.0;0.0;0.0;0.0;0.0;0.0;0.0;0.25;4.0;1.25;0.75;0.75;0.5;12.5;2.0;1.0;-0.179688;0.04541;0.998047;0.35;-10.08;0.56;242.0;0.338153;0.107823;0.0;2.0;1.25;3.0;2.75;6.5;0.0;4.0;1.5;0.25;0.25;0.5;1.5;6.75;0.5;0.25;-0.202637;0.032715;0.990234;-1.19;-0.49;0.49;365.0;-0.000952;-0.130179
1.9;0.0;0.0;0.0;0.0;0.0;0.0;0.0;0.25;3.5;1.5;0.75;0.75;0.5;12.25;2.0;1.25;-0.19043;0.027832;0.996094;0.28;-7.35;0.91;237.0;0.338851;0.09896;0.0;2.25;1.25;3.0;2.75;6.75;0.0;4.0;1.25;0.0;0.25;0.25;1.0;6.25;0.5;0.25;-0.203613;0.020996;0.986816;-1.12;-0.56;0.49;352.0;-0.019217;-0.135591
1.91;0.0;0.0;0.0;0.0;0.0;0.0;0.0;0.25;4.0;1.75;0.75;0.75;0.5;12.0;2.0;1.25;-0.187988;0.029297;0.995117;0.35;-5.95;1.12;245.0;0.334595;0.102927;0.0;2.25;1.25;3.25;2.75;6.25;0.0;4.0;1.25;0.0;0.0;0.25;1.0;6.25;0.5;0.25;-0.20166;0.032227;0.989746;-1.12;-0.77;0.56;346.0;-0.021281;-0.134168
1.92;0.0;0.0;0.0;0.0;0.0;0.0;0.25;0.25;3.5;1.75;0.75;0.75;0.75;12.0;1.5;1.25;-0.193359;0.034668;0.999023;0.42;-4.97;1.26;239.0;0.32917;0.099074;0.0;2.25;1.5;3.5;2.75;6.25;0.0;3.75;1.25;0.0;0.0;0.25;1.0;6.25;0.75;0.25;-0.202148;0.033691;0.98877;-1.05;-0.7;0.49;351.0;-0.022281;-0.12952
1.93;0.0;0.0;0.0;0.0;0.0;0.25;0.25;0.25;3.25;1.75;0.75;0.75;0.75;12.0;1.5;1.25;-0.198242;0.030273;0.994141;0.35;-4.41;1.12;238.0;0.324247;0.091789;0.0;2.25;1.5;3.25;2.75;6.5;0.0;3.75;1.25;0.0;0.0;0.25;0.75;6.0;0.5;0.25;-0.203613;0.02832;0.989258;-1.05;-0.84;0.56;343.0;-0.028936;-0.130123
1.94;0.0;0.0;0.0;0.0;0.0;0.25;0.25;0.25;3.5;1.75;0.75;0.75;0.75;11.75;1.5;1.0;-0.193848;0.03125;0.98877;0.28;-4.34;0.98;238.0;0.322139;0.096224;0.0;2.25;1.25;3.5;2.75;6.25;0.0;4.0;1.25;0.25;0.25;0.25;0.75;6.0;0.25;0.25;-0.206543;0.026367;0.989746;-1.05;-0.7;0.56;347.0;-0.027135;-0.133472
1.95;0.0;0.0;0.0;0.0;0.25;0.25;0.25;0.5;3.5;1.75;0.75;0.75;0.5;11.75;1.75;1.25;-0.196289;0.028809;0.994141;-0.07;-4.2;0.84;247.0;0.313733;0.088358;0.0;2.5;1.25;3.75;2.75;6.25;0.0;3.5;1.25;0.0;0.25;0.25;1.0;6.0;0.5;0.25;-0.202637;0.029297;0.990723;-0.98;-0.63;0.49;347.0;-0.029835;-0.13172
1.96;0.0;0.0;0.0;0.0;0.25;0.25;0.25;0.75;3.5;1.75;0.75;0.75;1.0;11.5;2.0;1.25;-0.168457;0.04248;0.986816;-0.14;-4.13;0.56;256.0;0.305949;0.067735;0.25;2.5;1.25;3.0;2.75;6.25;0.0;3.5;1.25;0.0;0.25;0.25;0.75;5.75;0.75;0.0;-0.20459;0.026855;0.98877;-1.05;-0.7;0.56;338.0;-0.028527;-0.125829
1.97;0.0;0.0;0.0;0.0;0.25;0.25;0.25;0.75;3.5;1.75;1.0;0.75;0.75;11.25;1.0;1.25;-0.186523;0.032715;0.994141;-0.35;-3.99;0.77;243.0;0.30049;0.076722;0.25;2.5;1.0;3.25;2.75;6.25;0.0;3.75;0.75;0.0;0.0;0.25;1.0;5.75;0.5;0.0;-0.207031;0.028809;0.987793;-1.12;-0.84;0.56;331.0;-0.039205;-0.14355
1.98;0.0;0.0;0.0;0.0;0.25;0.25;0.25;0.75;3.5;1.75;0.75;0.75;0.75;11.25;1.5;1.25;-0.1875;0.027344;0.994629;-0.49;-3.85;0.77;246.0;0.303862;0.075259;0.25;2.5;1.5;3.75;2.75;6.25;0.0;3.75;1.0;0.0;0.0;0.0;0.75;5.5;0.25;0.25;-0.20459;0.029785;0.986328;-1.12;-0.98;0.49;338.0;-0.053284;-0.136324
1.99;0.0;0.0;0.0;0.0;0.25;0.25;0.25;0.75;3.5;1.75;0.75;0.75;0.5;11.25;1.0;1.25;-0.19043;0.03418;0.996094;-0.56;-3.78;0.98;238.0;0.302678;0.084368;0.25;2.75;1.25;3.75;2.75;6.25;0.0;3.5;0.75;0.0;0.0;0.0;0.5;5.25;0.75;0.25;-0.202148;0.026367;0.992676;-1.12;-0.91;0.49;331.0;-0.054826;-0.138807
2.0;0.0;0.0;0.25;0.0;0.25;0.5;0.25;0.75;3.25;1.75;1.0;0.75;0.5;11.0;0.75;1.25;-0.1875;0.030273;0.994141;-0.56;-3.71;0.91;238.0;0.287134;0.075794;0.25;2.5;1.5;3.5;2.75;6.25;0.0;3.5;0.75;0.0;0.0;0.25;0.75;5.25;0.25;0.0;-0.20752;0.030273;0.989258;-1.12;-0.91;0.35;326.0;-0.057932;-0.139587
2.01;0.0;0.0;0.0;0.25;0.25;0.5;0.25;1.0;3.25;1.75;0.75;0.75;0.75;11.0;1.5;1.25;-0.182129;0.025391;0.993652;-0.56;-3.5;1.05;250.0;0.285753;0.055946;0.25;2.25;1.5;3.75;2.75;6.25;0.0;3.5;0.5;0.0;0.0;0.25;0.75;5.25;0.0;0.25;-0.20459;0.026855;0.984863;-1.05;-1.05;0.35;322.0;-0.06298;-0.146087
2.02;0.0;0.0;0.0;0.25;0.5;0.5;0.25;1.0;3.5;1.75;0.75;1.0;0.75;10.5;1.5;1.25;-0.163086;0.036621;0.995117;-0.28;-3.5;0.91;255.0;0.277291;0.052874;0.25;2.75;1.25;3.75;2.5;6.0;0.0;3.5;0.5;0.0;0.0;0.25;0.75;5.25;0.0;0.25;-0.202637;0.02832;0.985352;-1.19;-1.12;0.28;318.0;-0.065222;-0.149437
2.03;0.0;0.0;0.25;0.25;0.5;0.5;0.25;1.0;3.25;1.75;0.75;1.0;0.75;10.25;1.25;1.25;-0.182129;0.026367;0.99707;-0.42;-3.5;0.91;249.0;0.26818;0.050531;0.25;3.0;1.5;3.75;2.75;6.0;0.0;3.25;0.75;0.0;0.0;0.25;0.75;5.0;0.0;0.0;-0.207031;0.02832;0.991699;-1.19;-1.12;0.35;322.0;-0.072947;-0.139102
2.04;0.0;0.0;0.25;0.25;0.25;0.5;0.25;1.0;3.25;1.75;1.0;0.75;0.75;10.25;1.25;1.25;-0.179688;0.026855;0.994141;-0.21;-3.22;0.98;246.0;0.273203;0.052523;0.25;3.0;1.5;3.75;2.75;6.0;0.0;2.75;0.5;0.0;0.0;0.0;0.5;5.0;0.25;0.0;-0.204102;0.027832;0.989258;-1.26;-1.19;0.42;308.0;-0.078429;-0.132606
2.05;0.0;0.0;0.25;0.25;0.75;0.5;0.25;1.25;3.5;1.75;1.25;0.75;0.75;10.25;2.0;1.0;-0.178711;0.032715;0.999023;-0.28;-2.87;0.98;270.0;0.26304;0.044742;0.25;2.75;1.5;3.75;2.75;6.25;0.0;3.0;0.75;0.0;0.0;0.0;0.5;4.75;0.0;0.0;-0.201172;0.026855;0.983398;-1.26;-1.12;0.42;311.0;-0.079808;-0.135249
2.06;0.0;0.0;0.25;0.25;1.0;0.5;0.25;1.0;3.25;1.75;1.0;0.75;0.75;9.75;1.5;1.25;-0.17627;0.032715;0.992676;-0.28;-2.59;0.98;253.0;0.258016;0.04902;0.25;3.0;1.5;3.75;2.75;6.25;0.0;3.0;0.75;0.0;0.0;0.25;0.25;4.75;0.0;0.0;-0.207031;0.031738;0.98584;-1.05;-1.26;0.28;314.0;-0.081738;-0.134517
2.07;0.0;0.0;0.25;0.25;1.25;0.75;0.5;1.5;3.5;1.5;1.0;0.75;0.75;9.5;1.25;1.25;-0.161133;0.03418;0.996094;-0.28;-2.45;1.05;267.0;0.235211;0.037975;0.25;3.25;1.5;3.5;2.5;6.25;0.0;3.0;0.25;0.0;0.0;0.25;0.5;4.25;0.25;0.0;-0.202148;0.025391;0.986816;-1.12;-1.19;0.35;304.0;-0.091012;-0.15227
2.08;0.25;0.0;0.25;0.25;1.25;1.0;0.25;1.5;3.25;1.75;0.75;0.75;0.75;9.5;1.0;1.25;-0.182617;0.027832;0.999512;-0.21;-2.66;0.98;263.0;0.224359;0.032057;0.25;3.25;1.25;3.5;2.5;6.0;0.0;3.0;0.25;0.0;0.0;0.25;0.5;3.75;0.0;0.25;-0.203613;0.02832;0.990234;-0.98;-1.12;0.35;292.0;-0.099193;-0.160325
2.09;0.25;0.0;0.5;0.25;1.25;1.25;0.5;1.5;3.25;1.25;0.75;0.75;0.75;9.0;1.0;1.25;-0.180176;0.031738;0.999512;-0.14;-3.29;1.05;262.0;0.208447;0.029301;0.25;3.25;1.25;3.75;2.5;6.0;0.0;2.75;0.25;0.0;0.0;0.25;0.25;3.5;0.0;0.0;-0.203613;0.02832;0.989258;-0.98;-0.77;0.35;284.0;-0.111252;-0.157082
2.1;0.25;0.0;0.5;0.5;1.5;1.5;0.5;1.75;3.25;1.25;1.0;0.75;1.0;8.5;1.0;1.25;-0.183594;0.025879;0.994629;-0.07;-3.43;1.19;276.0;0.188638;0.009099;0.25;3.25;1.25;3.5;2.5;5.5;0.0;2.5;0.25;0.0;0.0;0.0;0.25;3.5;0.25;0.0;-0.202637;0.02832;0.993164;-0.91;-0.42;0.28;271.0;-0.107835;-0.147927
2.11;0.25;0.0;0.75;0.5;1.75;1.5;0.5;1.75;3.0;1.25;1.25;1.0;1.0;9.25;1.0;1.0;-0.174316;0.025391;0.994629;0.14;-3.36;1.33;290.0;0.184845;0.008646;0.25;3.25;1.25;3.75;2.5;5.5;0.0;2.5;0.25;0.0;0.0;0.0;0.25;3.5;0.0;0.0;-0.200195;0.026367;0.984863;-0.77;-0.56;0.35;271.0;-0.115269;-0.149472
2.12;0.25;0.0;0.75;0.5;1.75;2.0;0.5;2.25;2.75;1.5;1.25;1.25;1.25;8.75;0.75;1.25;-0.172852;0.04248;0.993652;-0.14;-3.01;1.33;303.0;0.16781;-0.020402;0.25;3.0;1.25;3.5;2.25;5.25;0.0;2.25;0.25;0.0;0.0;0.0;0.25;3.0;0.0;0.0;-0.206543;0.026855;0.983887;-0.98;-0.7;0.42;251.0;-0.121102;-0.15149
2.13;0.25;0.25;0.75;0.5;1.75;2.25;0.5;2.25;2.75;1.25;1.0;0.75;1.25;8.5;0.75;1.25;-0.178711;0.033203;0.995117;-0.14;-2.73;1.19;294.0;0.155597;-0.020257;0.25;2.75;1.25;3.5;2.0;5.0;0.0;2.0;0.0;0.0;0.0;0.25;0.25;2.75;0.0;0.0;-0.202148;0.028809;0.989258;-0.91;-0.84;0.28;235.0;-0.126382;-0.159738
2.14;0.25;0.25;0.75;0.5;2.0;2.5;0.5;2.25;2.75;0.75;1.0;0.75;1.25;8.25;1.0;1.25;-0.173828;0.033691;0.999023;-0.14;-2.94;1.05;295.0;0.148428;-0.025754;0.25;2.75;1.25;3.5;2.0;5.0;0.0;2.0;0.25;0.0;0.0;0.0;0.25;2.0;0.0;0.0;-0.204102;0.025879;0.987793;-0.7;-0.7;0.35;229.0;-0.14101;-0.161512
2.15;0.5;0.25;1.25;0.75;2.25;2.75;0.5;2.5;3.0;1.25;0.75;0.75;1.0;8.0;0.75;1.25;-0.17627;0.031738;0.99707;-0.07;-3.71;1.19;316.0;0.121541;-0.02245;0.25;2.75;1.0;3.0;1.75;5.0;0.0;2.0;0.25;0.0;0.0;0.0;0.25;2.0;0.0;0.0;-0.20459;0.027832;0.991699;-0.49;-0.7;0.42;217.0;-0.135429;-0.166367
2.16;0.5;0.25;1.5;1.0;2.75;3.25;0.5;2.75;2.75;1.5;0.75;0.75;1.5;7.5;0.5;1.0;-0.179688;0.026367;0.990234;0.21;-3.92;1.26;333.0;0.095982;-0.040464;0.25;2.75;1.25;2.75;1.5;4.5;0.0;2.0;0.25;0.0;0.0;0.25;0.0;1.75;0.0;0.0;-0.205078;0.028809;0.990723;-0.14;-0.21;0.42;206.0;-0.139647;-0.164273
2.17;0.5;0.25;1.5;1.25;2.75;3.5;0.5;3.0;2.5;1.75;1.25;0.75;1.5;8.0;0.75;1.0;-0.174805;0.027832;1.002441;0.21;-3.85;1.26;356.0;0.09769;-0.049105;0.25;2.25;0.75;2.25;1.0;4.25;0.0;1.75;0.25;0.0;0.0;0.0;0.0;1.75;0.0;0.0;-0.204102;0.024902;0.992188;-0.0;-0.14;0.35;173.0;-0.131168;-0.169354
2.18;0.75;0.5;1.75;1.5;3.5;3.5;0.75;3.0;2.5;1.5;1.25;1.25;1.5;7.0;1.0;1.25;-0.175781;0.032227;0.998047;0.28;-3.78;1.12;378.0;0.075287;-0.054635;0.25;2.25;0.75;2.25;1.0;3.75;0.0;1.5;0.0;0.0;0.0;0.0;0.0;1.5;0.0;0.0;-0.200195;0.027832;0.993164;0.14;-0.28;0.42;157.0;-0.150374;-0.174764
2.19;1.25;0.5;1.75;1.5;3.75;3.75;0.75;3.25;2.5;1.25;1.0;0.75;1.5;6.75;0.75;1.25;-0.166504;0.029785;0.995117;-0.0;-3.64;1.26;377.0;0.054755;-0.054669;0.25;2.25;0.75;2.25;0.75;3.75;0.0;1.25;0.0;0.0;0.0;0.0;0.25;1.0;0.0;0.0;-0.202637;0.032715;0.984375;0.28;-0.42;0.42;148.0;-0.167376;-0.189092
2.2;1.0;0.5;2.0;1.5;4.0;4.0;0.75;3.5;2.5;1.25;0.75;0.75;1.5;6.75;0.75;1.25;-0.172852;0.035645;0.997559;-0.07;-3.29;1.05;385.0;0.050583;-0.058704;0.0;2.0;0.75;1.75;0.75;3.5;0.0;1.25;0.0;0.0;0.0;0.0;0.25;0.75;0.0;0.0;-0.205078;0.028809;0.983887;0.28;-0.42;0.49;131.0;-0.162609;-0.198915
2.21;0.75;0.5;2.25;1.75;4.25;4.25;0.75;3.5;3.0;1.5;1.0;0.75;1.5;6.75;0.75;1.25;-0.168945;0.032227;1.0;-0.14;-2.87;0.91;407.0;0.052273;-0.054357;0.0;2.25;0.25;1.75;0.75;3.0;0.0;1.0;0.0;0.0;0.0;0.0;0.25;0.5;0.0;0.0;-0.204102;0.027344;0.991211;0.56;-0.42;0.42;115.0;-0.180302;-0.210271
2.22;1.0;0.75;2.5;2.25;4.5;4.75;0.75;3.5;2.5;1.5;1.25;1.25;1.75;6.75;1.0;1.25;-0.174805;0.032227;0.998047;-0.07;-2.45;1.05;437.0;0.038552;-0.068804;0.25;2.25;0.25;1.75;0.5;3.0;0.0;1.0;0.0;0.0;0.0;0.0;0.25;0.5;0.25;0.0;-0.205078;0.030762;0.986816;0.63;-0.14;0.42;118.0;-0.172748;-0.20641
2.23;1.75;1.0;2.5;2.25;4.5;5.25;0.75;3.75;2.5;1.75;1.25;1.25;2.0;7.0;1.0;1.5;-0.164551;0.035156;0.999023;-0.07;-2.24;0.98;467.0;0.029958;-0.072303;0.0;1.75;0.25;1.25;0.25;2.5;0.0;1.0;0.0;0.0;0.0;0.0;0.0;0.5;0.25;0.0;-0.200684;0.034668;0.992188;0.49;0.14;0.56;93.0;-0.15655;-0.214941
2.24;1.75;0.75;2.75;2.5;4.5;5.5;0.75;4.0;3.0;1.75;1.0;1.25;2.0;6.75;1.0;1.25;-0.171387;0.030762;0.994141;-0.21;-2.17;1.05;478.0;0.026269;-0.070785;0.0;1.5;0.25;1.25;0.0;1.75;0.0;0.75;0.0;0.0;0.0;0.0;0.0;0.25;0.0;0.0;-0.206543;0.021973;0.995605;0.35;0.49;0.49;69.0;-0.200397;-0.229324
2.25;1.5;0.75;2.75;2.75;4.75;5.5;0.75;4.0;2.5;1.5;0.75;1.25;2.0;7.0;1.0;1.0;-0.164551;0.037598;0.997559;-0.35;-2.17;0.98;469.0;0.020725;-0.075812;0.25;1.25;0.25;1.25;0.25;2.0;0.0;0.5;0.0;0.0;0.0;0.0;0.0;0.25;0.0;0.0;-0.205566;0.024902;0.992676;-0.07;0.91;0.56;71.0;-0.20665;-0.198068
2.26;1.5;1.25;2.75;2.75;5.25;5.5;0.75;4.0;2.75;1.5;1.25;0.75;2.0;7.25;0.5;1.25;-0.173828;0.027344;0.998047;-0.42;-2.45;0.98;482.0;0.014609;-0.069734;0.0;1.25;0.25;0.75;0.0;1.5;0.0;0.5;0.0;0.0;0.0;0.0;0.0;0.25;0.0;0.0;-0.206055;0.033203;1.0;-0.91;1.33;0.7;53.0;-0.197738;-0.217642
2.27;2.0;1.5;2.75;3.0;5.25;5.75;0.75;4.25;3.0;1.75;1.25;1.0;2.0;7.0;0.75;1.25;-0.168457;0.032227;0.997559;-0.35;-2.31;0.91;510.0;0.009321;-0.072269;0.0;1.25;0.25;0.5;0.0;1.0;0.0;0.5;0.0;0.0;0.0;0.0;0.0;0.25;0.0;0.0;-0.202637;0.026367;0.993164;-1.75;1.82;0.77;44.0;0.0;0.0
2.28;2.0;1.25;2.75;3.0;5.5;5.75;1.0;4.5;3.25;1.5;1.0;1.25;2.0;7.25;0.75;1.5;-0.171875;0.032715;0.995117;-0.28;-1.68;0.84;524.0;0.01411;-0.070052;0.0;1.0;0.0;0.5;0.25;1.0;0.0;0.25;0.0;0.0;0.0;0.0;0.0;0.25;0.0;0.0;-0.204102;0.033203;0.986328;-2.94;2.66;0.91;37.0;0.0;0.0
2.29;1.75;1.0;3.0;3.0;5.75;5.75;1.0;4.5;3.25;1.75;1.25;1.25;1.75;7.5;0.75;1.5;-0.157715;0.032715;1.004883;-0.28;-1.19;0.77;530.0;0.0194;-0.065593;0.0;0.5;0.0;0.5;0.0;0.5;0.0;0.0;0.0;0.0;0.0;0.0;0.0;0.25;0.0;0.0;-0.202637;0.029297;0.979492;-3.5;3.01;0.98;19.0;0.0;0.0
2.3;2.25;1.25;3.0;3.0;6.0;5.75;1.0;4.5;3.25;1.75;1.25;1.25;2.25;7.5;0.75;1.5;-0.166992;0.03418;0.997559;-0.21;-0.91;0.7;546.0;0.013509;-0.066969;0.0;0.5;0.0;0.25;0.0;0.25;0.0;0.0;0.0;0.0;0.0;0.0;0.0;0.25;0.0;0.0;-0.208984;0.029785;0.990234;-4.27;3.22;0.98;13.0;0.0;0.0
2.31;2.25;1.5;2.75;3.0;6.0;5.75;1.0;4.5;3.25;1.75;1.25;1.25;2.25;7.75;1.0;1.5;-0.17041;0.028809;0.99707;-0.21;-0.77;0.77;550.0;0.016823;-0.067336;0.0;0.5;0.0;0.0;0.0;0.25;0.0;0.0;0.0;0.0;0.0;0.0;0.0;0.25;0.0;0.0;-0.214355;0.026367;0.995117;-5.04;3.15;0.98;10.0;0.0;0.0
2.32;1.75;1.5;3.0;3.25;6.0;5.75;1.0;4.75;3.5;1.75;1.5;1.5;2.5;8.0;1.0;1.25;-0.160645;0.033203;0.99707;-0.35;-0.56;0.7;568.0;0.022562;-0.070705;0.0;0.25;0.0;0.25;0.0;0.25;0.0;0.0;0.0;0.0;0.0;0.0;0.0;0.25;0.0;0.0;-0.219727;0.026855;0.989746;-6.02;2.87;2.38;11.0;0.0;0.0
2.33;1.5;1.5;3.0;3.25;6.0;6.25;1.0;4.75;3.5;1.75;1.5;1.25;2.25;8.25;1.0;1.25;-0.168945;0.036133;1.000977;-0.42;-0.35;0.56;568.0;0.022897;-0.06994;0.0;0.25;0.0;0.0;0.25;0.25;0.0;0.0;0.0;0.0;0.0;0.0;0.0;0.25;0.0;0.0;-0.266602;-0.004883;0.99707;-4.55;4.06;8.4;11.0;0.0;0.0
2.34;1.5;1.5;3.0;3.0;6.0;6.25;1.25;4.5;3.5;1.75;1.75;1.25;2.25;8.5;0.75;1.5;-0.166504;0.033203;0.999023;-0.42;-0.21;0.63;569.0;0.026759;-0.064295;0.0;0.25;0.0;0.25;0.0;0.0;0.0;0.0;0.0;0.0;0.0;0.0;0.0;0.25;0.0;0.0;-0.374512;0.005859;1.007324;-5.53;2.24;22.049999;8.0;0.0;0.0
2.35;1.5;1.25;3.25;3.0;5.75;5.75;1.25;4.75;3.5;1.75;2.0;1.25;2.0;8.5;0.75;1.75;-0.171875;0.035645;1.0;-0.42;0.21;0.7;566.0;0.03084;-0.063157;0.0;0.0;0.0;0.0;0.0;0.0;0.0;0.0;0.0;0.0;0.0;0.0;0.0;0.0;0.0;0.0;-0.391113;0.030273;0.970215;-7.35;0.49;41.860001;0.0;0.0;0.0
2.36;1.5;1.25;3.0;3.0;5.5;5.75;1.0;4.75;3.5;2.0;1.75;1.5;2.0;8.5;1.25;1.75;-0.166504;0.030273;0.996582;-0.21;0.42;0.63;565.0;0.037705;-0.067344;0.0;0.0;0.0;0.0;0.0;0.25;0.0;0.0;0.0;0.0;0.0;0.0;0.0;0.0;0.0;0.0;-0.445801;0.001465;1.033691;-8.61;-2.17;63.420002;3.0;0.0;0.0
2.37;1.5;1.25;3.0;3.0;5.5;5.75;1.0;4.75;3.5;1.75;1.5;1.5;2.5;8.5;1.25;1.75;-0.161133;0.029297;0.996582;-0.07;0.35;0.56;564.0;0.03683;-0.071054;0.0;0.0;0.0;0.25;0.0;0.25;0.0;0.0;0.0;0.0;0.0;0.0;0.0;0.0;0.0;0.0;-0.45166;-0.008301;1.091309;1.4;-7.91;80.220001;6.0;0.0;0.0
2.38;1.75;1.25;3.0;3.0;5.5;6.25;1.25;4.75;3.5;1.75;1.25;1.75;2.25;8.5;1.0;1.75;-0.16748;0.032715;1.004883;0.07;0.49;0.7;571.0;0.030505;-0.069247;0.0;0.0;0.0;0.0;0.0;0.25;0.0;0.0;0.0;0.0;0.0;0.0;0.0;0.0;0.0;0.0;-0.496582;-0.218262;1.000977;14.63;-14.14;85.82;3.0;0.0;0.0
2.39;2.25;1.25;2.75;3.0;5.5;6.25;1.25;4.75;3.5;1.75;1.5;1.5;2.5;8.5;0.75;1.75;-0.164551;0.030762;1.0;-0.07;0.91;0.56;573.0;0.02657;-0.068975;0.0;0.0;0.0;0.0;0.0;0.25;0.0;0.0;0.0;0.0;0.0;0.0;0.0;0.0;0.0;0.0;-0.597168;-0.558594;0.957031;22.75;-24.08;61.32;3.0;0.0;0.0
2.4;1.5;1.0;2.75;3.0;5.25;6.25;1.0;4.75;3.25;1.75;1.5;1.75;2.5;8.75;1.0;1.75;-0.163086;0.03125;1.001465;0.07;0.77;0.49;560.0;0.038516;-0.076628;0.0;0.0;0.0;0.0;0.0;0.25;0.0;0.0;0.0;0.0;0.0;0.0;0.0;0.0;0.0;0.0;-0.652344;-0.697266;0.849609;23.17;-22.540001;30.73;3.0;0.0;0.0
2.41;1.5;1.25;2.75;3.0;5.25;6.25;1.0;4.75;3.5;2.0;1.5;1.75;2.5;8.75;1.0;2.0;-0.164551;0.03125;0.999023;0.07;0.84;0.63;570.0;0.039712;-0.074737;0.0;0.25;0.0;0.0;0.0;0.25;0.0;0.0;0.0;0.0;0.0;0.0;0.0;0.0;0.0;0.0;-0.677734;-0.691406;0.827637;18.969999;-19.18;-2.17;5.0;0.0;0.0
2.42;1.5;1.25;2.75;3.0;5.5;6.25;1.0;4.75;3.5;2.0;1.5;1.75;2.5;8.75;1.0;2.0;-0.163574;0.037109;0.994141;0.07;0.7;0.56;573.0;0.038849;-0.074025;0.0;0.0;0.0;0.0;0.0;0.0;0.0;0.0;0.0;0.0;0.0;0.0;0.0;0.0;0.0;0.0;-0.698242;-0.59375;0.942383;3.29;-13.65;-30.799999;0.0;0.0;0.0
2.43;1.5;1.25;3.0;3.0;5.25;6.0;1.0;4.75;3.5;2.0;1.5;1.75;2.5;8.5;1.0;1.75;-0.166504;0.037109;1.0;0.14;0.63;0.56;567.0;0.03671;-0.073224;0.0;0.25;0.0;0.0;0.0;0.25;0.0;0.0;0.0;0.0;0.0;0.0;0.0;0.0;0.0;0.0;-0.666016;-0.533203;0.888672;-18.129999;-11.55;-50.259998;5.0;0.0;0.0
2.44;1.75;1.25;2.75;3.0;5.5;5.75;1.25;4.75;3.5;1.75;1.75;1.75;2.75;8.5;0.5;1.75;-0.167969;0.030273;0.99707;0.21;0.63;0.56;567.0;0.033328;-0.071561;0.0;0.0;0.0;0.0;0.0;0.0;0.0;0.0;0.0;0.0;0.0;0.0;0.0;0.0;0.0;0.0;-0.63916;-0.37207;0.861816;-29.889999;-8.68;-60.130001;0.0;0.0;0.0
2.45;1.5;1.25;2.75;3.0;5.25;5.75;1.0;4.75;3.25;2.25;1.25;1.75;2.75;8.75;0.5;1.75;-0.168945;0.033203;0.997559;0.21;0.63;0.56;556.0;0.036342;-0.074868;0.0;0.0;0.0;0.0;0.0;0.0;0.0;0.0;0.0;0.0;0.0;0.0;0.0;0.0;0.0;0.0;-0.623047;-0.211426;0.813965;-36.049999;-0.14;-65.870003;0.0;0.0;0.0
2.46;2.0;1.25;2.75;3.0;5.25;6.0;1.0;5.0;3.5;1.75;1.25;1.75;2.75;8.5;1.0;1.75;-0.170898;0.030762;1.0;0.28;0.49;0.7;570.0;0.032187;-0.076687;0.0;0.25;0.0;0.0;0.0;0.0;0.0;0.0;0.0;0.0;0.0;0.0;0.0;0.0;0.0;0.0;-0.599609;-0.127441;0.810059;-36.889999;7.98;-64.050003;3.0;0.0;0.0
2.47;1.75;1.25;2.75;3.0;5.25;6.25;1.0;4.75;3.5;1.75;1.25;1.75;2.5;8.75;1.0;1.5;-0.165039;0.039062;0.996582;0.14;0.7;0.7;564.0;0.033857;-0.073053;0.0;0.25;0.0;0.0;0.0;0.0;0.0;0.0;0.0;0.0;0.0;0.0;0.0;0.0;0.0;0.0;-0.589355;-0.046387;0.816895;-40.880001;17.08;-58.450001;3.0;0.0;0.0
2.48;1.75;1.25;2.75;3.0;5.5;6.5;1.0;5.0;3.5;1.75;1.5;1.75;2.75;8.75;1.0;1.75;-0.166504;0.033691;1.001953;-0.0;0.56;0.63;581.0;0.034079;-0.078063;0.0;0.25;0.0;0.0;0.0;0.0;0.0;0.0;0.0;0.0;0.0;0.0;0.0;0.0;0.0;0.0;-0.544434;0.008789;0.838379;-45.709999;26.530001;-50.330002;3.0;0.0;0.0
2.49;2.0;1.25;2.75;3.0;5.25;6.5;1.0;5.0;3.5;1.75;2.0;1.75;2.75;8.5;1.0;2.0;-0.162598;0.032715;1.00293;-0.07;0.63;0.56;586.0;0.03398;-0.079852;0.0;0.25;0.0;0.25;0.0;0.25;0.0;0.0;0.0;0.0;0.0;0.0;0.0;0.0;0.0;0.0;-0.443848;0.062988;0.875977;-48.23;35.490002;-39.689999;8.0;0.0;0.0
2.5;1.5;1.25;2.75;3.25;5.25;6.25;1.0;5.0;3.5;1.75;1.75;1.5;3.0;9.0;0.75;2.0;-0.163574;0.034668;1.000977;-0.14;0.7;0.56;579.0;0.037471;-0.07968;0.0;0.0;0.0;0.0;0.0;0.0;0.0;0.0;0.0;0.0;0.0;0.0;0.0;0.0;0.0;0.0;-0.305176;0.098633;0.907715;-51.869999;42.84;-26.6;0.0;0.0;0.0
2.51;1.5;1.0;2.75;3.0;5.0;7.25;1.0;5.0;3.25;1.75;1.75;1.75;2.75;8.5;0.75;1.5;-0.162109;0.036133;1.000488;-0.28;0.7;0.42;571.0;0.032307;-0.085909;0.0;0.0;0.0;0.0;0.0;0.0;0.0;0.0;0.0;0.0;0.0;0.0;0.0;0.0;0.0;0.0;-0.075684;0.117188;1.016113;-55.860001;46.200001;-5.04;0.0;0.0;0.0
2.52;1.5;1.0;2.75;3.0;5.25;7.0;0.75;5.0;3.5;1.75;1.5;1.5;2.75;8.5;1.0;1.75;-0.164551;0.035156;0.998047;-0.35;0.56;0.49;570.0;0.03438;-0.083632;0.0;0.25;0.0;0.0;0.0;0.0;0.0;0.0;0.0;0.0;0.0;0.0;0.0;0.0;0.0;0.0;-0.007812;0.144531;1.091797;-58.52;40.110001;6.09;3.0;0.0;0.0
2.53;1.5;1.25;2.75;3.0;5.25;6.5;1.0;5.0;3.5;1.75;1.5;1.5;3.0;8.5;1.0;1.75;-0.169922;0.02832;0.994141;-0.28;0.63;0.49;573.0;0.035222;-0.081237;0.0;0.25;0.0;0.0;0.0;0.0;0.0;0.0;0.0;0.0;0.0;0.0;0.0;0.0;0.0;0.0;0.018066;0.196289;1.081543;-56.490002;31.639999;12.67;3.0;0.0;0.0
2.54;1.5;1.5;2.75;3.0;5.25;7.0;1.0;5.0;3.25;2.0;1.5;1.75;2.75;8.5;1.0;2.0;-0.166016;0.040527;0.998535;-0.35;0.49;0.56;582.0;0.032132;-0.085151;0.0;0.0;0.0;0.0;0.0;0.0;0.0;0.0;0.0;0.0;0.0;0.0;0.0;0.0;0.0;0.0;0.19043;0.370605;0.998535;-11.9;18.620001;21.98;0.0;0.0;0.0
2.55;2.0;1.5;2.75;3.25;5.25;6.5;1.0;5.0;3.25;2.0;1.5;1.75;3.0;8.5;1.0;2.0;-0.168457;0.035645;0.994141;-0.56;0.56;0.42;587.0;0.028726;-0.083603;0.0;0.0;0.0;0.0;0.0;0.0;0.0;0.0;0.0;0.0;0.0;0.0;0.0;0.0;0.0;0.0;0.063477;0.220215;0.998047;-17.08;6.37;17.219999;0.0;0.0;0.0
2.56;1.75;1.25;2.75;3.25;5.25;7.0;1.0;5.0;3.5;2.0;2.0;1.75;3.0;8.5;1.0;1.75;-0.167969;0.037109;1.009766;-0.7;0.49;0.56;596.0;0.03329;-0.083648;0.0;0.0;0.0;0.0;0.0;0.0;0.0;0.0;0.0;0.0;0.0;0.0;0.0;0.0;0.0;0.0;0.02002;0.234863;0.884766;-17.290001;5.04;17.360001;0.0;0.0;0.0
2.57;1.5;1.25;2.75;3.0;5.25;7.0;1.0;5.0;3.25;2.0;1.5;1.5;2.75;8.5;1.0;1.75;-0.168457;0.03125;1.002441;-0.7;0.49;0.56;575.0;0.032374;-0.083155;0.0;0.0;0.0;0.0;0.0;0.0;0.0;0.0;0.0;0.0;0.0;0.0;0.0;0.0;0.0;0.0;0.080566;0.449707;0.894043;2.66;7.84;13.3;0.0;0.0;0.0
2.58;2.0;1.5;2.75;3.0;5.5;7.0;1.0;5.0;3.25;2.0;1.25;1.5;2.75;8.5;1.0;1.5;-0.162598;0.032715;0.992188;-0.7;0.56;0.49;582.0;0.023602;-0.080157;0.0;0.0;0.0;0.0;0.0;0.0;0.0;0.0;0.0;0.0;0.0;0.0;0.0;0.0;0.0;0.0;0.072754;0.51123;0.850586;29.889999;10.71;6.65;0.0;0.0;0.0
2.59;2.0;1.5;3.0;3.25;5.75;7.25;1.0;5.0;3.5;1.75;1.75;1.75;3.0;8.5;1.25;1.75;-0.165039;0.035156;0.99707;-0.7;0.28;0.56;610.0;0.025344;-0.082258;0.0;0.0;0.0;0.0;0.0;0.0;0.0;0.0;0.0;0.0;0.0;0.0;0.0;0.25;0.0;0.0;0.199707;0.503418;0.962402;55.16;16.17;2.31;2.0;0.0;0.0
2.6;1.5;1.5;2.75;3.25;5.5;7.0;1.0;5.0;3.5;1.75;1.75;1.75;2.75;8.5;1.25;1.75;-0.162598;0.038086;1.001465;-0.56;0.21;0.63;593.0;0.032005;-0.083227;0.0;0.0;0.0;0.0;0.0;0.0;0.0;0.0;0.0;0.0;0.0;0.0;0.0;0.25;0.0;0.0;0.286621;0.489746;1.151367;70.559998;13.440001;-1.54;2.0;0.0;0.0
2.61;1.25;1.5;2.75;3.25;5.5;7.25;1.0;5.0;3.5;2.0;1.75;1.75;2.5;8.5;1.25;1.75;-0.165039;0.036133;1.000488;-0.49;0.28;0.56;594.0;0.033607;-0.082888;0.25;0.0;0.0;0.0;0.0;0.0;0.0;0.0;0.0;0.0;0.0;0.0;0.0;0.5;0.0;0.0;0.301758;0.322754;1.258301;49.84;-11.13;-8.96;7.0;0.0;0.0
2.62;1.5;1.5;2.75;3.25;5.75;7.25;1.25;5.25;3.5;2.25;1.75;2.25;3.0;8.5;1.25;2.0;-0.15918;0.031738;0.995117;-0.49;0.63;0.56;623.0;0.035222;-0.085945;0.0;0.0;0.0;0.0;0.0;0.0;0.0;0.0;0.0;0.0;0.0;0.0;0.0;0.75;0.0;0.0;0.338867;0.34375;1.206055;28.35;-21.77;-13.02;7.0;0.0;0.0
2.63;1.5;1.5;2.75;3.0;6.0;7.0;1.25;5.25;3.5;2.0;1.75;2.25;2.75;8.25;1.0;2.0;-0.166504;0.043457;1.000977;-0.63;0.7;0.63;610.0;0.032268;-0.083893;0.0;0.25;0.0;0.0;0.0;0.0;0.0;0.0;0.0;0.0;0.0;0.0;0.0;0.75;0.0;0.0;0.337891;0.298828;1.114258;16.24;-26.950001;-19.32;9.0;0.0;0.0
2.64;1.5;1.25;3.0;3.25;6.0;7.0;1.0;5.25;3.5;2.0;1.5;2.0;2.5;8.5;0.75;1.75;-0.165039;0.032227;1.000977;-0.63;0.84;0.56;599.0;0.027265;-0.081385;0.0;0.0;0.0;0.0;0.0;0.0;0.0;0.0;0.0;0.0;0.0;0.0;0.0;1.0;0.0;0.0;0.181152;0.189941;1.174805;18.690001;-29.4;-28.98;9.0;0.0;0.0
2.65;1.5;1.25;3.0;3.25;6.0;7.0;1.25;5.0;3.5;2.0;1.75;1.75;3.0;8.5;1.0;1.75;-0.164062;0.038086;0.996582;-0.56;0.91;0.49;606.0;0.030881;-0.079156;0.0;0.0;0.0;0.0;0.0;0.0;0.0;0.0;0.0;0.0;0.0;0.0;0.0;1.0;0.0;0.0;-0.141602;0.04541;1.018066;16.450001;-27.719999;-33.459999;9.0;0.0;0.0
2.66;1.5;1.5;3.0;3.0;6.0;7.0;1.0;5.0;3.5;2.25;1.75;1.75;2.5;8.5;1.5;1.75;-0.16748;0.036621;0.997559;-0.7;0.63;0.56;606.0;0.033731;-0.077367;0.0;0.0;0.0;0.0;0.0;0.0;0.0;0.0;0.0;0.0;0.0;0.0;0.0;1.0;0.0;0.0;-0.202637;0.092773;1.055176;13.440001;-22.4;-33.25;9.0;0.0;0.0
2.67;2.0;1.5;3.0;3.25;6.0;6.5;1.0;5.0;3.5;1.75;1.5;1.75;2.5;8.25;1.25;1.75;-0.169922;0.033691;0.997559;-0.49;0.63;0.56;595.0;0.023629;-0.07652;0.0;0.0;0.0;0.0;0.0;0.0;0.0;0.0;0.0;0.0;0.0;0.0;0.0;1.0;0.0;0.0;-0.250977;0.072266;1.042969;13.65;-19.950001;-39.41;9.0;0.0;0.0
2.68;1.75;1.5;3.0;3.25;6.0;7.0;1.25;5.0;3.5;1.75;1.5;1.75;2.5;7.5;0.75;1.75;-0.166504;0.030273;1.0;-0.49;0.77;0.63;589.0;0.01596;-0.080112;0.0;0.0;0.0;0.0;0.0;0.25;0.0;0.0;0.0;0.0;0.0;0.0;0.0;1.0;0.0;0.0;-0.291504;0.061035;1.023438;18.48;-16.379999;-52.009998;12.0;0.0;0.0
2.69;1.5;1.5;3.25;3.25;6.0;7.0;1.0;5.0;3.5;2.0;1.5;1.75;2.5;7.5;0.5;1.75;-0.167969;0.037109;1.001953;-0.35;0.84;0.77;585.0;0.015236;-0.081704;0.0;0.0;0.0;0.0;0.0;0.0;0.0;0.0;0.0;0.0;0.0;0.0;0.0;1.0;0.0;0.0;-0.276367;-0.04541;1.016113;16.73;-13.86;-54.25;9.0;0.0;0.0
2.7;1.5;1.25;3.25;3.25;6.0;7.0;1.0;5.0;3.25;1.75;1.5;2.0;2.5;7.5;0.75;1.75;-0.172363;0.033203;0.999512;-0.28;0.7;0.77;582.0;0.017412;-0.085299;0.0;0.0;0.0;0.0;0.0;0.0;0.0;0.0;0.0;0.0;0.0;0.0;0.0;1.25;0.0;0.0;-0.211914;0.004395;1.003418;15.4;-11.41;-51.799999;12.0;0.0;0.0
2.71;1.5;1.5;3.25;3.25;6.0;7.25;1.0;5.0;3.25;1.75;1.25;2.0;2.5;7.25;0.75;1.75;-0.165039;0.032227;0.998535;-0.35;0.91;0.77;582.0;0.012066;-0.087505;0.0;0.0;0.0;0.0;0.0;0.0;0.0;0.0;0.0;0.0;0.0;0.0;0.0;1.0;0.0;0.0;-0.161621;-0.064941;1.00293;14.14;-9.1;-48.16;9.0;0.0;0.0
2.72;1.75;1.5;3.5;3.5;6.0;7.0;1.0;4.75;3.25;1.75;1.25;1.25;2.5;7.25;0.75;1.75;-0.170898;0.033203;0.992188;-0.28;0.77;0.7;575.0;0.005074;-0.080032;0.0;0.0;0.0;0.0;0.0;0.0;0.0;0.0;0.0;0.0;0.0;0.0;0.0;1.0;0.0;0.0;-0.144531;-0.09668;1.01123;12.95;-7.0;-42.91;9.0;0.0;0.0
2.73;2.25;1.5;3.25;3.5;6.0;7.0;1.0;4.75;3.25;1.75;1.25;1.25;2.5;7.0;1.0;1.75;-0.161621;0.036133;0.99707;-0.28;0.63;0.77;578.0;0.002868;-0.080122;0.25;0.0;0.0;0.0;0.0;0.0;0.0;0.0;0.0;0.0;0.0;0.0;0.0;1.0;0.0;0.0;-0.172363;-0.075195;1.003418;9.03;-4.9;-32.970001;12.0;0.0;0.0
2.74;1.5;1.75;3.25;3.5;5.5;7.25;0.75;5.0;3.25;1.25;1.25;1.25;2.5;6.5;1.0;1.75;-0.165039;0.035645;0.998535;-0.21;0.63;0.77;559.0;0.001186;-0.094221;0.25;0.0;0.0;0.0;0.0;0.0;0.0;0.0;0.0;0.0;0.0;0.0;0.0;1.25;0.0;0.0;-0.214844;-0.072266;0.992188;7.35;-4.48;-26.18;14.0;0.0;0.0
2.75;2.25;1.75;3.25;4.0;6.0;7.25;0.75;5.0;3.25;1.25;1.75;1.25;2.5;6.5;0.75;1.75;-0.162109;0.033691;1.000977;-0.21;0.7;0.7;583.0;-0.008771;-0.091278;0.0;0.0;0.0;0.0;0.0;0.0;0.0;0.0;0.0;0.0;0.0;0.0;0.0;1.25;0.0;0.0;-0.203125;-0.111328;0.969238;5.67;-3.5;-19.530001;12.0;0.0;0.0
2.76;2.25;1.5;3.0;4.25;5.75;7.25;0.75;5.0;3.0;1.75;1.5;1.5;2.5;6.25;0.75;1.5;-0.168945;0.040527;1.000977;-0.28;0.77;0.77;575.0;-0.008385;-0.095553;0.0;0.0;0.0;0.0;0.0;0.0;0.0;0.0;0.0;0.0;0.0;0.0;0.0;1.75;0.0;0.0;-0.197266;-0.116211;0.991211;4.55;-2.8;-11.76;16.0;0.0;0.0
2.77;2.0;1.5;3.25;4.0;5.5;7.25;0.75;5.0;2.75;1.5;1.5;1.5;1.5;6.25;0.75;1.5;-0.161133;0.033691;0.995605;-0.21;0.77;0.77;554.0;-0.011655;-0.092709;0.0;0.25;0.0;0.0;0.0;0.25;0.0;0.0;0.0;0.0;0.0;0.0;0.0;1.75;0.0;0.0;-0.186523;-0.126465;0.988281;2.87;-2.1;-3.5;22.0;0.0;0.0
2.78;1.75;1.75;3.5;4.0;5.5;7.25;0.75;5.0;2.75;1.25;1.5;1.25;2.0;6.25;0.75;1.5;-0.168457;0.036621;0.999023;-0.21;0.91;0.84;555.0;-0.013786;-0.095947;0.0;0.0;0.0;0.0;0.0;0.0;0.0;0.0;0.0;0.0;0.0;0.0;0.0;2.0;0.0;0.0;-0.213379;-0.005859;0.972656;2.45;-2.45;1.33;19.0;0.0;0.0
2.79;1.5;1.75;3.0;4.5;5.5;7.5;0.75;4.75;2.75;1.5;1.25;1.25;2.5;6.0;0.75;1.25;-0.166016;0.033203;0.996582;-0.07;0.77;0.84;552.0;-0.013904;-0.101924;0.0;0.0;0.0;0.0;0.0;0.0;0.0;0.0;0.0;0.0;0.0;0.0;0.0;2.75;0.0;0.0;-0.212402;-0.003906;0.979004;3.57;-2.59;2.03;26.0;0.0;0.0
2.8;1.75;1.75;3.5;4.25;5.5;7.25;0.75;5.0;2.25;1.25;1.25;2.0;2.5;6.0;0.75;1.25;-0.166992;0.038574;0.998047;-0.21;0.98;0.84;558.0;-0.01773;-0.108022;0.0;0.25;0.0;0.0;0.0;0.25;0.0;0.0;0.0;0.0;0.0;0.0;0.0;2.75;0.0;0.0;-0.208496;0.017578;0.974609;4.48;-2.24;2.45;31.0;0.0;0.0
2.81;2.0;1.75;3.5;4.25;5.5;7.25;0.75;4.75;2.25;1.5;1.25;1.75;2.5;6.0;0.75;1.25;-0.164062;0.033691;0.994629;-0.21;0.84;0.7;557.0;-0.01958;-0.10295;0.0;0.25;0.0;0.0;0.0;0.0;0.0;0.0;0.0;0.0;0.0;0.0;0.0;3.0;0.0;0.0;-0.21582;0.02002;0.979492;4.83;-2.24;2.17;30.0;0.0;0.0
2.82;2.0;1.75;3.25;4.5;5.5;7.75;0.75;5.0;2.25;1.5;1.25;1.75;2.5;6.0;0.75;1.25;-0.160156;0.039062;0.993652;-0.35;0.63;0.7;567.0;-0.021013;-0.108536;0.0;0.0;0.0;0.0;0.0;0.0;0.0;0.0;0.0;0.0;0.0;0.0;0.0;3.5;0.0;0.0;-0.216309;0.020996;0.992188;4.83;-2.31;1.75;32.0;0.0;0.0
2.83;2.25;1.75;3.25;4.75;5.5;7.75;0.75;5.0;2.25;1.25;1.25;1.25;2.25;6.0;0.75;1.25;-0.162109;0.031738;0.995605;-0.35;0.49;0.7;562.0;-0.028836;-0.105536;0.0;0.0;0.0;0.0;0.0;0.0;0.0;0.0;0.0;0.0;0.0;0.0;0.0;3.5;0.25;0.0;-0.229004;0.01416;0.978027;4.34;-3.08;1.33;35.0;0.0;0.0
2.84;2.25;2.0;3.25;4.75;5.5;7.5;0.75;5.0;2.25;1.25;1.25;1.5;2.5;6.0;0.75;1.25;-0.165527;0.037598;0.991211;-0.56;0.42;0.56;566.0;-0.027882;-0.107374;0.0;0.0;0.0;0.0;0.0;0.0;0.0;0.0;0.0;0.0;0.0;0.0;0.0;3.75;0.25;0.0;-0.210938;0.021973;0.990723;3.43;-3.85;1.4;38.0;0.0;0.0
2.85;2.0;2.0;3.25;4.5;5.5;7.5;0.75;4.75;2.25;1.25;1.25;1.75;2.25;6.0;0.75;1.25;-0.166504;0.033203;0.99707;-0.77;0.56;0.42;557.0;-0.024309;-0.105188;0.0;0.0;0.0;0.0;0.0;0.25;0.0;0.0;0.0;0.0;0.0;0.0;0.0;4.25;0.0;0.0;-0.220215;0.015137;0.979492;2.66;-4.69;1.12;42.0;0.0;0.0
2.86;2.0;1.75;3.5;4.5;5.75;7.5;0.75;4.75;2.25;1.5;1.25;1.75;2.5;6.0;0.75;1.25;-0.166504;0.033203;0.999512;-0.77;0.28;0.42;566.0;-0.022259;-0.103618;0.25;0.25;0.0;0.0;0.0;0.0;0.0;0.0;0.25;0.0;0.0;0.0;0.0;4.5;0.0;0.0;-0.217773;0.024414;0.979492;1.89;-5.11;1.26;51.0;0.315277;0.163747
2.87;2.25;2.0;3.25;4.75;5.75;7.75;0.75;4.75;2.5;1.25;1.25;1.5;2.5;6.0;0.75;1.25;-0.169922;0.035645;0.996582;-0.77;0.35;0.28;572.0;-0.027376;-0.10289;0.0;0.25;0.0;0.0;0.0;0.0;0.0;0.0;0.25;0.0;0.0;0.0;0.0;4.5;0.0;0.0;-0.211426;0.014648;0.984863;1.54;-5.25;1.33;48.0;0.0;0.0
2.88;2.0;2.0;3.5;4.75;5.5;7.75;0.75;4.75;2.5;1.25;1.25;1.25;2.0;5.75;0.75;1.5;-0.155273;0.028809;0.993164;-0.7;0.35;0.35;560.0;-0.029917;-0.101506;0.0;0.0;0.0;0.0;0.25;0.0;0.0;0.0;0.25;0.0;0.0;0.0;0.0;4.5;0.0;0.0;-0.206543;0.013672;0.984863;1.54;-5.39;1.54;48.0;0.0;0.0
2.89;1.75;2.25;3.25;4.5;5.5;7.5;0.75;4.75;2.0;1.25;1.25;1.5;2.0;5.25;0.75;1.25;-0.165039;0.038574;0.99707;-0.77;0.63;0.49;541.0;-0.033722;-0.110178;0.25;0.0;0.0;0.25;0.25;0.0;0.0;0.0;0.25;0.0;0.0;0.0;0.0;4.5;0.0;0.0;-0.208496;0.016113;0.989258;1.4;-5.39;1.61;54.0;0.291563;0.151913
2.9;2.25;2.25;3.5;4.75;5.5;7.25;0.75;4.75;2.25;1.25;1.25;1.5;2.0;5.25;0.75;1.25;-0.164551;0.041504;0.997559;-0.84;0.84;0.56;553.0;-0.037643;-0.104097;0.0;0.0;0.0;0.0;0.0;0.25;0.0;0.0;0.25;0.0;0.0;0.0;0.0;5.0;0.25;0.0;-0.207031;0.022949;0.991211;1.19;-5.11;1.61;56.0;0.372717;0.146692
2.91;2.5;2.25;3.5;4.5;5.25;7.25;0.75;4.75;1.75;1.5;1.25;1.5;2.0;5.25;0.75;1.25;-0.161621;0.035645;0.998047;-0.98;1.4;0.49;546.0;-0.040089;-0.107326;0.0;0.0;0.0;0.0;0.0;0.0;0.0;0.0;0.0;0.0;0.0;0.0;0.0;5.25;0.0;0.0;-0.208496;0.021484;0.992188;0.63;-4.48;1.33;49.0;0.0;0.0
2.92;2.25;2.25;3.5;4.75;5.5;7.25;0.75;4.75;2.0;1.25;1.25;1.25;2.0;5.75;0.75;1.25;-0.163086;0.036133;0.996094;-1.05;1.47;0.42;551.0;-0.037042;-0.10318;0.25;0.25;0.0;0.0;0.0;0.25;0.0;0.0;0.0;0.0;0.0;0.0;0.0;5.25;0.0;0.0;-0.212402;0.016113;0.98584;0.63;-4.13;1.19;57.0;0.306538;0.135764
2.93;2.25;2.25;3.5;4.5;5.5;7.25;0.75;4.75;2.0;1.25;0.75;1.5;2.0;5.5;0.75;1.25;-0.164551;0.034668;0.999512;-0.98;1.54;0.42;543.0;-0.039051;-0.104594;0.0;0.0;0.0;0.25;0.0;0.0;0.0;0.0;0.0;0.0;0.0;0.0;0.0;5.25;0.0;0.0;-0.208008;0.020996;0.987305;0.49;-3.92;0.98;52.0;0.372556;0.154543
2.94;2.25;2.0;3.5;4.25;5.5;7.0;0.75;4.75;2.0;1.25;1.0;1.25;2.0;5.75;0.5;1.25;-0.167969;0.041016;1.003906;-0.98;1.54;0.35;534.0;-0.035592;-0.100615;0.0;0.0;0.0;0.0;0.0;0.0;0.0;0.0;0.0;0.0;0.0;0.0;0.0;5.75;0.0;0.0;-0.208008;0.021973;0.988281;0.56;-3.78;0.98;53.0;0.413185;0.177899
2.95;2.25;2.0;3.5;4.0;5.5;7.0;0.75;4.5;2.0;1.0;1.25;1.75;1.75;5.25;0.5;1.25;-0.160645;0.034668;0.995605;-0.98;1.61;0.42;526.0;-0.036617;-0.101549;0.0;0.25;0.0;0.0;0.0;0.0;0.0;0.0;0.25;0.0;0.0;0.0;0.0;5.5;0.0;0.0;-0.199707;0.019531;0.98584;0.77;-3.71;1.05;57.0;0.366749;0.168756
2.96;2.25;2.0;3.25;4.0;5.0;7.0;0.75;4.25;2.0;1.0;1.25;1.25;1.75;5.25;0.75;1.25;-0.16748;0.036621;0.994629;-1.05;1.54;0.35;510.0;-0.03467;-0.099936;0.0;0.0;0.0;0.25;0.0;0.25;0.0;0.25;0.25;0.0;0.0;0.0;0.0;5.5;0.0;0.0;-0.20752;0.01709;0.987793;0.91;-3.64;1.05;65.0;0.318725;0.107219
2.97;2.5;1.75;3.25;4.25;5.0;6.5;0.75;4.5;1.5;1.25;0.75;1.25;1.75;5.0;0.5;1.25;-0.169434;0.039551;1.001953;-0.98;1.4;0.42;496.0;-0.045041;-0.105217;0.25;0.0;0.0;0.25;0.0;0.25;0.0;0.25;0.25;0.0;0.0;0.0;0.0;5.25;0.0;0.0;-0.208008;0.020996;0.984863;0.91;-3.5;1.12;65.0;0.284075;0.104783
2.98;2.25;2.0;3.0;3.75;5.0;6.5;0.75;4.25;1.75;0.75;0.75;1.5;1.75;5.0;0.5;1.25;-0.15918;0.041992;0.996094;-1.05;1.47;0.42;483.0;-0.040381;-0.104375;0.0;0.0;0.0;0.25;0.0;0.25;0.0;0.25;0.0;0.0;0.0;0.0;0.25;5.25;0.0;0.0;-0.199219;0.019043;0.980957;0.84;-3.64;1.12;61.0;0.313071;0.072891
2.99;2.25;1.75;3.0;3.75;5.0;6.5;0.75;4.25;2.0;0.75;0.75;1.25;1.5;5.0;0.25;1.0;-0.164551;0.04248;0.99707;-1.05;1.54;0.49;475.0;-0.042654;-0.097742;0.0;0.0;0.0;0.25;0.0;0.25;0.0;0.25;0.0;0.0;0.0;0.25;0.25;5.25;0.0;0.0;-0.203125;0.019043;0.984375;0.91;-3.5;1.05;64.0;0.308281;0.056292
3.0;2.25;2.0;3.0;4.0;5.0;6.0;0.5;4.0;1.75;0.75;0.75;1.25;1.5;5.0;0.25;1.0;-0.162109;0.036133;1.001953;-0.91;1.26;0.49;462.0;-0.048553;-0.099947;0.0;0.25;0.0;0.25;0.25;0.25;0.0;0.25;0.0;0.0;0.0;0.0;0.0;5.0;0.0;0.0;-0.206055;0.018555;0.985352;1.05;-3.78;1.19;62.0;0.263932;0.078983
3.01;2.25;2.25;3.25;4.0;5.0;5.75;0.5;4.0;1.75;0.75;0.75;1.25;1.5;5.0;0.25;0.75;-0.169434;0.037109;1.001465;-0.84;1.19;0.56;463.0;-0.052624;-0.097269;0.0;0.25;0.0;0.25;0.25;0.25;0.0;0.25;0.0;0.0;0.0;0.25;0.0;5.25;0.25;0.0;-0.199219;0.019043;0.988281;0.98;-3.85;1.05;70.0;0.272405;0.060247
3.02;2.0;2.0;3.5;4.0;5.0;6.25;0.5;4.0;1.75;0.75;0.75;1.25;1.5;4.5;0.25;0.75;-0.169922;0.015137;0.999023;-0.84;0.91;0.56;462.0;-0.055854;-0.101944;0.0;0.25;0.0;0.0;0.25;0.5;0.0;0.5;0.0;0.0;0.0;0.0;0.0;5.5;0.25;0.0;-0.203613;0.02002;0.994141;0.98;-3.85;1.19;74.0;0.268962;0.050501
3.03;2.0;2.0;3.5;4.25;5.0;6.25;0.5;4.0;1.5;0.75;0.75;0.75;1.5;4.5;0.25;0.75;-0.165527;0.04248;0.999512;-0.84;0.91;0.56;456.0;-0.063162;-0.103258;0.0;0.5;0.0;0.25;0.25;0.5;0.0;0.5;0.0;0.0;0.0;0.0;0.0;5.75;0.25;0.0;-0.205078;0.019043;0.98877;0.63;-3.99;1.19;82.0;0.231406;0.0373
3.04;2.25;2.0;3.5;4.25;5.0;6.25;0.5;4.0;1.5;0.75;0.5;0.75;0.75;4.5;0.25;1.0;-0.16748;0.036621;1.000977;-0.98;1.05;0.49;450.0;-0.069391;-0.096916;0.0;0.5;0.25;0.25;0.25;0.5;0.0;0.75;0.25;0.0;0.0;0.25;0.0;5.5;0.25;0.0;-0.204102;0.017578;0.987305;0.35;-3.92;1.33;93.0;0.199821;0.015045
3.05;2.25;2.25;3.25;4.25;4.75;6.0;0.5;3.75;1.25;0.75;0.5;0.5;1.0;4.5;0.5;0.75;-0.165039;0.035156;0.992676;-1.05;1.12;0.49;437.0;-0.071157;-0.098558;0.0;0.25;0.25;0.25;0.25;0.5;0.0;0.5;0.0;0.0;0.0;0.0;0.0;5.5;0.25;0.0;-0.198242;0.023926;0.98584;-0.07;-4.06;1.4;80.0;0.227584;0.041628
3.06;2.75;2.25;3.25;4.25;4.75;6.0;0.5;3.75;1.0;0.5;0.75;0.5;1.25;4.0;0.5;0.75;-0.166504;0.036621;1.000977;-1.19;1.47;0.28;437.0;-0.082066;-0.104987;0.0;0.5;0.25;0.5;0.25;1.25;0.0;1.0;0.0;0.0;0.0;0.0;0.0;5.5;0.25;0.0;-0.200195;0.02002;0.994629;-0.35;-4.13;1.4;102.0;0.144128;-0.033871
3.07;2.5;1.75;3.25;4.25;4.75;5.75;0.5;3.5;1.25;0.5;0.5;0.75;1.25;4.0;0.25;0.75;-0.168945;0.024414;0.989746;-1.12;1.54;0.21;423.0;-0.076682;-0.099851;0.0;0.5;0.25;0.5;0.5;1.25;0.0;1.0;0.0;0.0;0.0;0.0;0.0;5.25;0.25;0.0;-0.205566;0.027832;0.991211;-0.84;-3.99;1.26;103.0;0.13025;-0.035862
3.08;2.25;1.75;3.0;4.25;4.75;5.75;0.25;3.5;1.0;0.5;0.5;0.75;1.0;4.0;0.25;0.75;-0.171387;0.02832;0.99707;-1.19;1.89;0.35;407.0;-0.078939;-0.107384;0.0;0.5;0.25;0.5;0.5;1.25;0.0;1.0;0.0;0.0;0.0;0.25;0.0;5.25;0.25;0.0;-0.201172;0.026855;0.991211;-1.05;-3.78;1.05;106.0;0.132345;-0.042923
3.09;2.25;1.75;3.0;4.0;4.5;5.75;0.25;3.5;1.5;0.5;0.5;0.75;1.0;4.0;0.5;0.75;-0.166016;0.036621;0.996094;-1.26;2.1;0.28;411.0;-0.067842;-0.100935;0.0;0.75;0.25;0.25;0.5;1.25;0.0;1.0;0.0;0.0;0.0;0.25;0.0;5.5;0.25;0.0;-0.200684;0.019531;0.990723;-1.26;-3.5;0.91;108.0;0.137225;-0.035999
3.1;2.25;1.75;3.0;3.5;4.5;5.5;0.25;3.0;1.5;0.75;0.75;1.25;1.0;4.0;0.5;0.75;-0.163086;0.038086;0.993164;-1.4;2.24;0.14;405.0;-0.056941;-0.093571;0.0;1.0;0.25;0.25;0.5;1.5;0.0;1.0;0.25;0.0;0.0;0.25;0.0;5.25;0.25;0.0;-0.197754;0.014648;0.992676;-1.26;-3.43;0.98;115.0;0.115676;-0.039652
3.11;2.0;1.5;3.0;3.5;4.25;5.25;0.25;3.0;1.0;0.75;0.75;1.25;1.0;3.75;0.5;0.5;-0.165039;0.030273;0.995605;-1.33;2.24;0.28;383.0;-0.061056;-0.102083;0.0;1.0;0.25;0.5;0.75;1.5;0.0;1.0;0.25;0.0;0.0;0.0;0.25;5.0;0.25;0.0;-0.19873;0.020508;0.990723;-1.12;-3.22;0.98;118.0;0.092259;-0.048247
3.12;2.0;1.5;2.75;3.25;4.25;5.5;0.25;3.0;1.25;0.75;0.75;0.75;1.0;3.75;0.25;0.5;-0.163574;0.037598;1.000488;-1.54;2.45;0.28;374.0;-0.063003;-0.097596;0.0;1.25;0.5;0.75;0.5;1.75;0.0;1.0;0.25;0.0;0.0;0.25;0.25;5.5;0.25;0.0;-0.198242;0.022461;0.992188;-0.91;-3.15;1.12;134.0;0.079063;-0.056228
3.13;2.0;1.5;2.75;3.25;4.0;5.25;0.25;3.0;1.0;0.75;0.5;0.25;1.0;3.75;0.25;0.75;-0.171875;0.041992;0.993652;-1.68;2.24;0.07;358.0;-0.06986;-0.098749;0.0;1.25;0.5;0.75;0.75;2.0;0.0;1.0;0.25;0.0;0.0;0.25;0.25;5.75;0.25;0.0;-0.194824;0.021484;0.989258;-0.56;-2.94;1.19;142.0;0.075364;-0.054461
3.14;2.0;1.5;2.75;3.25;3.75;5.25;0.25;2.75;1.0;0.75;0.5;0.25;1.0;3.75;0.25;0.75;-0.169922;0.029297;0.995605;-1.68;2.31;0.14;351.0;-0.07007;-0.096639;0.0;1.5;0.5;1.0;1.0;2.25;0.0;1.25;0.25;0.0;0.0;0.25;0.25;5.5;0.0;0.0;-0.195312;0.023926;0.992188;-0.42;-2.52;1.33;153.0;0.037971;-0.073844
3.15;2.0;1.5;2.75;3.0;3.75;5.25;0.25;2.75;1.0;0.25;0.25;0.25;0.75;3.75;0.25;0.5;-0.174316;0.035156;0.993652;-1.75;2.45;0.07;335.0;-0.079501;-0.094527;0.0;1.5;0.75;1.25;1.0;2.25;0.0;1.25;0.25;0.0;0.0;0.25;0.0;5.25;0.0;0.0;-0.199707;0.020508;0.995605;-0.35;-2.52;1.47;154.0;0.01796;-0.071416
3.16;1.75;1.5;2.75;2.75;3.5;4.75;0.25;2.5;1.0;0.25;0.25;1.25;1.0;3.75;0.25;0.25;-0.16748;0.038086;1.0;-1.75;2.52;0.14;329.0;-0.06404;-0.098208;0.0;1.75;0.75;1.25;1.25;2.5;0.0;1.25;0.25;0.0;0.0;0.25;0.25;5.5;0.25;0.0;-0.190918;0.016602;0.983398;-0.28;-2.38;1.54;170.0;0.020078;-0.076187
3.17;1.5;1.25;2.75;2.75;3.5;4.25;0.25;2.5;1.0;0.25;0.25;1.0;0.75;3.75;0.25;0.5;-0.168457;0.031738;0.998535;-1.82;2.52;0.14;314.0;-0.058728;-0.092692;0.0;1.5;1.0;1.5;1.75;2.75;0.0;1.75;0.25;0.0;0.0;0.25;0.25;5.5;0.0;0.0;-0.195801;0.023926;0.991211;-0.28;-2.45;1.4;188.0;0.001686;-0.087277
3.18;1.5;0.75;2.25;2.5;3.0;3.75;0.25;2.25;1.0;0.25;0.25;0.75;0.75;3.75;0.25;0.5;-0.169434;0.034668;0.998047;-1.82;2.73;0.07;281.0;-0.045381;-0.086866;0.0;1.75;1.0;1.75;1.75;2.75;0.0;1.75;0.25;0.0;0.0;0.25;0.25;5.5;0.0;0.0;-0.194336;0.030273;0.987793;-0.35;-2.52;1.26;194.0;-0.008241;-0.090437
3.19;1.75;1.0;2.25;2.5;3.0;3.75;0.25;2.0;1.0;0.25;0.25;0.5;0.75;3.5;0.0;0.5;-0.167969;0.033691;0.998047;-1.96;2.94;0.07;274.0;-0.064307;-0.081029;0.0;2.0;0.75;1.75;1.75;3.0;0.0;1.75;0.5;0.0;0.0;0.25;0.25;5.5;0.25;0.0;-0.20166;0.02002;0.990234;-0.35;-2.52;1.26;202.0;-0.000998;-0.090207
3.2;1.5;1.0;2.25;2.0;2.75;3.5;0.25;1.75;1.0;0.5;0.25;0.5;0.5;3.5;0.25;0.75;-0.174316;0.029297;0.998535;-1.96;2.87;0.14;260.0;-0.045725;-0.070534;0.0;2.0;1.25;2.0;2.0;3.25;0.0;1.75;0.25;0.0;0.0;0.25;0.25;5.5;0.25;0.0;-0.195801;0.02002;0.989746;-0.21;-2.59;1.26;214.0;-0.020707;-0.093486
3.21;0.75;0.75;2.25;2.0;2.75;3.5;0.25;1.75;1.0;0.5;0.25;0.5;0.25;3.75;0.25;0.5;-0.173828;0.028809;0.99707;-1.89;3.01;0.07;247.0;-0.029834;-0.068205;0.0;2.0;1.5;2.5;1.75;3.25;0.0;2.0;0.25;0.0;0.0;0.25;0.25;5.5;0.0;0.0;-0.193359;0.023438;0.990723;-0.21;-2.59;1.26;221.0;-0.035289;-0.102387
3.22;1.0;0.75;2.0;1.75;2.75;3.5;0.5;1.75;1.25;0.5;0.25;0.25;0.25;3.75;0.5;0.5;-0.16748;0.032227;1.000977;-1.82;3.01;0.14;251.0;-0.019965;-0.053845;0.0;1.75;1.5;2.25;2.25;3.5;0.0;2.0;0.5;0.0;0.0;0.25;0.25;5.75;0.25;0.0;-0.191406;0.016602;0.993164;-0.21;-2.66;1.19;233.0;-0.017373;-0.089287
3.23;1.0;0.5;1.75;1.5;2.5;3.25;0.25;1.25;1.0;0.75;0.25;0.25;0.5;3.75;0.5;0.75;-0.170898;0.027832;1.000977;-1.61;3.36;0.0;228.0;-0.00439;-0.053516;0.0;1.75;1.25;2.25;2.5;3.5;0.0;2.0;0.25;0.0;0.0;0.25;0.25;5.5;0.25;0.0;-0.196777;0.021484;0.992676;-0.14;-2.52;1.33;228.0;-0.024159;-0.098134
3.24;1.25;0.5;1.5;1.25;2.25;2.75;0.25;1.25;1.25;0.5;0.5;0.75;0.5;4.0;0.5;0.5;-0.169434;0.035156;0.998047;-1.68;3.71;0.0;226.0;0.014704;-0.046048;0.0;2.25;1.25;2.25;2.5;3.75;0.0;2.25;0.25;0.0;0.0;0.25;0.25;5.75;0.25;0.0;-0.195801;0.01709;0.989746;-0.14;-2.31;1.33;242.0;-0.029511;-0.104105
3.25;1.0;0.5;1.5;1.0;2.25;2.5;0.25;1.25;1.5;0.75;0.5;0.75;0.25;4.0;0.5;0.5;-0.176758;0.032227;0.997559;-1.54;4.2;0.14;221.0;0.031573;-0.031517;0.0;2.25;1.5;2.75;2.75;4.0;0.0;2.5;0.25;0.0;0.25;0.25;0.25;5.75;0.25;0.0;-0.193848;0.021973;0.991699;0.07;-2.24;1.19;264.0;-0.037528;-0.1093
3.26;0.75;0.25;1.25;0.75;2.0;2.0;0.25;1.0;1.75;0.75;0.5;0.25;0.25;4.0;0.25;0.75;-0.168457;0.034668;0.992188;-1.54;5.04;0.07;193.0;0.058364;-0.004775;0.0;2.75;1.75;2.75;2.75;4.25;0.0;2.5;0.5;0.25;0.0;0.25;0.25;5.5;0.25;0.25;-0.192871;0.02002;0.990723;0.21;-2.1;1.19;278.0;-0.045864;-0.10661
3.27;0.75;0.25;1.0;0.75;2.0;1.75;0.25;1.0;1.5;0.5;0.25;0.25;0.5;4.25;0.25;0.5;-0.178223;0.024902;1.000977;-1.47;5.74;0.07;181.0;0.061398;-0.00787;0.0;2.5;1.75;3.25;2.75;4.5;0.0;2.5;0.5;0.0;0.0;0.25;0.25;5.5;0.25;0.0;-0.195801;0.027832;0.990723;0.42;-2.31;1.33;280.0;-0.053887;-0.111011
3.28;0.25;0.0;0.75;0.5;1.25;1.5;0.25;0.75;2.0;0.75;0.25;0.25;0.25;5.0;0.25;0.25;-0.172363;0.029297;1.002441;-1.26;6.16;0.14;163.0;0.135763;0.034309;0.0;2.5;1.5;3.0;2.75;5.0;0.0;2.75;0.25;0.0;0.0;0.25;0.25;5.5;0.25;0.0;-0.194824;0.023438;0.996094;0.49;-2.45;1.26;280.0;-0.054512;-0.124489
3.29;0.0;0.0;0.75;0.25;1.0;1.0;0.25;0.75;2.25;0.75;0.5;0.0;0.0;5.0;0.25;0.5;-0.177246;0.024414;1.00293;-1.12;6.93;0.28;151.0;0.175574;0.063026;0.0;3.25;1.5;3.0;2.75;5.0;0.0;3.0;0.25;0.25;0.0;0.25;0.5;5.75;0.25;0.0;-0.196289;0.029785;0.992676;0.63;-2.66;1.47;300.0;-0.054883;-0.127777
3.3;0.25;0.0;0.25;0.25;0.75;0.75;0.25;0.5;2.0;1.0;0.5;0.25;0.25;5.0;0.25;0.25;-0.181152;0.03125;1.001953;-0.98;8.12;0.49;141.0;0.199809;0.065883;0.25;3.25;1.5;3.75;3.0;5.25;0.0;3.0;0.25;0.25;0.0;0.25;0.25;5.75;0.25;0.0;-0.196289;0.024902;0.992676;0.63;-2.8;1.4;315.0;-0.067915;-0.1255
3.31;0.25;0.0;0.25;0.0;0.25;0.5;0.0;0.25;2.0;0.75;0.5;1.25;0.25;5.0;0.25;0.25;-0.179688;0.027344;1.003906;-0.91;10.15;0.49;129.0;0.244624;0.057503;0.25;3.25;1.75;4.0;3.25;5.75;0.0;3.25;0.25;0.25;0.0;0.25;0.25;5.25;0.25;0.0;-0.193848;0.026855;0.990234;0.7;-2.87;1.4;330.0;-0.079851;-0.133008
3.32;0.25;0.0;0.25;0.25;0.25;0.25;0.0;0.0;1.75;0.5;0.75;1.0;0.25;5.0;0.25;0.5;-0.184082;0.03418;1.000488;-0.98;11.9;0.63;120.0;0.251688;0.067365;0.0;3.5;2.0;4.25;3.25;6.25;0.0;3.5;0.25;0.25;0.0;0.25;0.75;5.25;0.0;0.0;-0.193359;0.022949;0.989746;0.7;-3.43;1.47;347.0;-0.084156;-0.144433
3.33;0.0;0.0;0.0;0.25;0.25;0.25;0.25;0.0;2.0;0.5;0.25;0.5;0.25;5.0;0.25;0.25;-0.170898;0.03418;0.995605;-1.26;13.51;0.49;109.0;0.279065;0.113055;0.0;3.5;2.0;5.0;3.75;6.25;0.0;3.75;0.5;0.0;0.0;0.25;0.75;5.25;0.0;0.0;-0.188477;0.020508;0.987793;0.91;-3.78;1.54;367.0;-0.08819;-0.14338
3.34;0.0;0.0;0.0;0.0;0.25;0.0;0.0;0.0;1.75;0.5;0.25;0.25;0.25;5.25;0.25;0.25;-0.193848;0.026855;1.012695;-1.26;15.33;0.42;95.0;0.325442;0.138151;0.0;4.25;2.5;5.0;4.0;6.75;0.0;4.0;0.5;0.0;0.0;0.25;0.75;5.25;0.25;0.0;-0.190918;0.026855;0.992676;1.12;-3.92;1.61;397.0;-0.094035;-0.142796
3.35;0.25;0.0;0.0;0.0;0.0;0.25;0.0;0.0;2.0;0.5;0.25;0.25;0.25;5.0;0.25;0.25;-0.191406;0.030762;1.012207;-2.45;20.440001;0.14;99.0;0.299359;0.131276;0.0;4.5;2.5;5.25;4.25;7.25;0.0;4.25;0.75;0.0;0.0;0.25;1.25;5.25;0.25;0.0;-0.19043;0.025391;0.994141;1.19;-4.06;1.68;424.0;-0.091671;-0.146367
3.36;0.25;0.0;0.0;0.0;0.25;0.0;0.0;0.0;1.75;0.5;0.25;0.25;0.0;5.0;0.25;0.25;-0.192871;0.02832;1.006348;-3.71;21.49;0.49;93.0;0.305043;0.151449;0.25;5.0;2.5;5.75;4.25;8.25;0.0;4.5;0.5;0.0;0.0;0.25;1.25;5.25;0.25;0.25;-0.19043;0.029297;0.996582;1.33;-4.06;1.68;452.0;-0.101988;-0.155508
3.37;0.0;0.0;0.0;0.25;0.0;0.0;0.0;0.0;1.75;0.5;0.25;0.25;0.0;5.0;0.25;0.25;-0.211914;0.003418;1.019531;-6.65;24.639999;0.63;90.0;0.321859;0.143267;0.25;5.25;2.5;5.75;4.5;8.75;0.0;4.75;0.5;0.0;0.25;0.5;1.5;5.25;0.5;0.25;-0.185059;0.028809;0.995117;1.47;-3.92;1.68;478.0;-0.095413;-0.159395
3.38;0.0;0.0;0.0;0.0;0.0;0.0;0.0;0.0;1.5;0.5;0.0;0.25;0.0;5.0;0.25;0.25;-0.205078;0.012695;1.062012;-6.86;29.4;1.47;81.0;0.350773;0.160305;0.5;5.5;2.75;5.75;4.75;9.0;0.25;5.0;0.75;0.0;0.0;0.25;1.5;5.5;0.25;0.0;-0.190918;0.02832;0.992676;1.61;-3.71;1.61;497.0;-0.101175;-0.149087
3.39;0.0;0.0;0.0;0.0;0.0;0.25;0.0;0.0;1.0;0.25;0.25;0.25;0.0;4.5;0.25;0.25;-0.206543;0.026367;1.041992;-3.85;34.16;1.75;72.0;0.334751;0.122771;0.5;5.75;3.0;5.5;4.75;9.0;0.25;5.5;0.75;0.25;0.0;0.25;1.5;5.5;0.25;0.0;-0.186523;0.031738;0.998535;1.54;-3.5;1.54;510.0;-0.099267;-0.150076
3.4;0.0;0.0;0.0;0.0;0.0;0.0;0.0;0.0;0.25;0.25;0.0;0.25;0.0;3.5;0.25;0.25;-0.228516;0.015625;1.032227;-3.01;32.759998;2.17;46.0;0.0;0.0;0.75;5.75;2.75;5.75;4.75;9.0;0.25;5.5;0.5;0.25;0.0;0.5;1.5;5.5;0.25;0.25;-0.192383;0.03125;0.989258;1.47;-3.08;1.4;514.0;-0.100477;-0.154746
3.41;0.0;0.0;0.0;0.0;0.0;0.0;0.0;0.0;0.25;0.25;0.0;0.25;0.0;2.75;0.0;0.0;-0.21875;0.046387;1.056152;-6.86;27.16;3.22;35.0;0.0;0.0;0.5;5.5;3.0;5.5;4.75;9.25;0.25;5.5;0.5;0.25;0.0;0.25;1.75;5.75;0.25;0.0;-0.19043;0.025391;0.992188;1.26;-2.87;1.26;512.0;-0.096939;-0.153623
3.42;0.0;0.0;0.0;0.0;0.0;0.0;0.0;0.0;0.25;0.25;0.25;0.0;0.0;1.5;0.0;0.0;-0.206543;0.047852;1.116699;-17.57;21.91;5.95;23.0;0.0;0.0;0.5;5.75;3.0;5.5;5.5;9.0;0.0;5.5;0.5;0.25;0.0;0.5;1.75;5.75;0.25;0.0;-0.191895;0.033203;0.992188;0.91;-2.59;0.98;519.0;-0.098376;-0.153203
3.43;0.0;0.0;0.0;0.0;0.0;0.0;0.0;0.0;0.0;0.25;0.25;0.0;0.0;1.0;0.0;0.0;-0.201172;0.270508;1.170898;-35.0;9.03;7.91;15.0;0.0;0.0;0.75;6.0;3.0;5.5;4.75;9.5;0.0;5.5;0.75;0.25;0.0;0.5;2.0;5.75;0.25;0.0;-0.194336;0.032227;0.995117;0.63;-2.1;0.84;527.0;-0.098079;-0.155348
3.44;0.0;0.0;0.0;0.0;0.25;0.0;0.0;0.0;0.0;0.0;0.25;0.0;0.0;0.5;0.0;0.0;-0.219727;0.898438;1.222168;-58.310001;-11.2;26.110001;10.0;0.0;0.0;0.75;5.75;2.75;5.75;4.75;9.5;0.25;5.5;0.25;0.25;0.0;0.25;1.75;5.75;0.0;0.0;-0.191895;0.027344;0.994141;0.35;-2.17;0.84;514.0;-0.1059;-0.158166
3.45;0.0;0.0;0.0;0.0;0.25;0.0;0.0;0.0;0.25;0.0;0.0;0.0;0.0;0.25;0.0;0.0;-0.166992;0.993652;0.851562;-73.57;-28.84;66.290001;9.0;0.0;0.0;1.0;6.0;2.75;5.75;4.75;9.25;0.0;5.5;0.25;0.25;0.25;0.25;2.0;5.75;0.25;0.25;-0.187012;0.031738;0.991211;0.42;-1.96;0.77;522.0;-0.103011;-0.160428
3.46;0.0;0.0;0.0;0.0;0.0;0.0;0.0;0.0;0.0;0.0;0.0;0.0;0.0;0.25;0.0;0.0;-0.256836;1.047363;0.70459;-70.07;-26.110001;113.82;2.0;0.0;0.0;1.0;6.0;2.75;5.75;5.0;9.5;0.0;5.75;0.5;0.0;0.25;0.5;2.25;5.75;0.25;0.25;-0.19043;0.028809;0.996582;0.49;-1.89;0.63;538.0;-0.099268;-0.16194
3.47;0.0;0.0;0.0;0.0;0.0;0.0;0.0;0.0;0.0;0.0;0.0;0.0;0.0;0.25;0.0;0.0;-0.273926;0.850098;0.856445;-48.650002;-23.379999;151.759995;2.0;0.0;0.0;0.75;6.0;2.75;5.75;4.75;9.5;0.25;5.75;0.5;0.0;0.25;0.75;2.5;5.75;0.25;0.25;-0.189941;0.032227;1.000488;0.35;-1.68;0.56;541.0;-0.093361;-0.163528
3.48;0.0;0.0;0.0;0.0;0.0;0.25;0.0;0.0;0.0;0.0;0.0;0.0;0.0;0.25;0.0;0.0;-0.214844;0.566406;1.067383;-3.64;-28.84;171.149994;5.0;0.0;0.0;1.0;6.25;2.75;5.75;5.0;9.5;0.25;5.75;0.75;0.25;0.25;0.5;2.5;5.75;0.25;0.25;-0.185547;0.030762;0.997559;0.28;-1.47;0.56;553.0;-0.094187;-0.156242
3.49;0.0;0.0;0.0;0.0;0.0;0.0;0.0;0.0;0.0;0.0;0.0;0.0;0.0;0.25;0.0;0.0;-0.21875;0.172363;0.896484;11.34;-38.5;172.619995;2.0;0.0;0.0;1.0;5.75;3.0;5.5;5.0;9.5;0.25;5.75;0.75;0.0;0.25;0.5;2.5;5.75;0.25;0.25;-0.191406;0.030762;0.999023;0.14;-1.19;0.35;545.0;-0.092846;-0.155547
3.5;0.0;0.0;0.0;0.0;0.0;0.0;0.0;0.0;0.0;0.0;0.0;0.0;0.0;0.25;0.0;0.0;-0.274414;0.046387;0.788574;7.14;-39.830002;161.139999;2.0;0.0;0.0;1.0;6.25;3.0;5.75;5.0;9.5;0.25;5.75;0.75;0.0;0.25;0.75;2.5;5.75;0.5;0.25;-0.189453;0.033203;0.991211;-0.14;-1.05;0.42;559.0;-0.092691;-0.156358
3.51;0.0;0.0;0.0;0.0;0.0;0.0;0.0;0.0;0.0;0.0;0.0;0.0;0.0;0.25;0.0;0.0;-0.249023;0.102051;0.840332;8.19;-36.470001;149.589996;2.0;0.0;0.0;1.25;6.0;3.0;5.5;4.75;9.5;0.25;5.75;0.5;0.25;0.25;1.0;2.5;5.5;0.5;0.25;-0.192383;0.028809;1.000488;-0.21;-0.91;0.42;553.0;-0.092668;-0.159544
3.52;0.0;0.0;0.0;0.0;0.0;0.0;0.0;0.0;0.0;0.0;0.0;0.0;0.0;0.25;0.0;0.0;-0.222168;0.160645;0.875977;17.85;-37.310001;139.720001;2.0;0.0;0.0;1.0;5.75;3.0;5.5;4.75;9.25;0.25;5.75;0.5;0.0;0.25;0.5;2.5;5.5;0.5;0.25;-0.1875;0.033203;1.001953;-0.35;-0.84;0.42;536.0;-0.094178;-0.160026
3.53;0.0;0.0;0.0;0.0;0.0;0.0;0.0;0.0;0.0;0.0;0.0;0.0;0.0;0.25;0.0;0.0;-0.249023;0.110352;0.874023;27.51;-38.57;130.550003;2.0;0.0;0.0;1.0;5.75;2.75;6.0;4.75;9.25;0.0;6.25;0.25;0.0;0.25;0.5;2.5;5.75;0.25;0.25;-0.188965;0.030273;0.990234;-0.42;-0.77;0.35;539.0;-0.098237;-0.170652
3.54;0.0;0.0;0.0;0.0;0.0;0.0;0.0;0.0;0.0;0.0;0.0;0.0;0.0;0.0;0.0;0.0;-0.253418;0.064453;0.787598;32.48;-37.099998;120.889999;0.0;0.0;0.0;1.0;5.75;2.75;6.0;4.75;9.0;0.0;6.25;0.25;0.0;0.25;0.5;2.5;5.75;0.25;0.25;-0.188477;0.033691;0.994629;-0.42;-0.84;0.42;536.0;-0.097938;-0.170085
3.55;0.0;0.0;0.0;0.0;0.0;0.0;0.0;0.0;0.0;0.0;0.0;0.0;0.0;0.0;0.0;0.0;-0.232422;-0.032227;0.704102;35.77;-32.130001;107.940002;0.0;0.0;0.0;0.75;5.75;2.75;5.75;4.75;9.25;0.0;5.75;0.5;0.25;0.25;0.75;2.5;5.5;0.5;0.25;-0.194824;0.030273;0.992676;-0.49;-0.98;0.42;535.0;-0.090586;-0.16587
3.56;0.0;0.0;0.0;0.0;0.0;0.0;0.0;0.0;0.0;0.0;0.0;0.0;0.0;0.0;0.0;0.0;-0.361816;-0.126953;-0.07666;44.310001;-26.389999;84.209999;0.0;0.0;0.0;1.0;5.75;2.75;5.75;4.75;9.0;0.0;5.75;0.5;0.25;0.0;1.0;2.5;5.5;0.5;0.0;-0.1875;0.033203;0.99707;-0.42;-0.91;0.42;533.0;-0.093234;-0.164374
3.57;0.0;0.0;0.0;0.0;0.0;0.0;0.0;0.0;0.0;0.0;0.0;0.0;0.0;0.0;0.0;0.0;-0.246094;-0.725098;0.371094;-86.379997;28.35;63.279999;0.0;0.0;0.0;1.25;5.75;3.0;5.75;4.75;9.0;0.0;5.75;0.5;0.25;0.25;1.0;2.5;5.5;0.25;0.25;-0.190918;0.030762;0.995117;-0.49;-0.7;0.49;541.0;-0.095553;-0.162101
3.58;0.0;0.0;0.0;0.0;0.0;0.0;0.0;0.0;0.0;0.0;0.0;0.0;0.0;0.0;0.0;0.0;-0.604004;-0.283203;1.366211;-88.340004;72.029999;45.360001;0.0;0.0;0.0;1.0;5.75;3.0;5.75;4.75;9.25;0.0;5.75;0.5;0.0;0.25;1.0;2.5;5.5;0.75;0.25;-0.193848;0.037109;0.991699;-0.56;-0.7;0.42;544.0;-0.090713;-0.164455
3.59;0.0;0.0;0.0;0.25;0.0;0.0;0.0;0.0;0.0;0.0;0.0;0.0;0.0;0.25;0.0;0.0;-0.360352;-1.322266;2.737305;-12.74;62.93;22.75;5.0;0.0;0.0;1.25;6.0;3.0;5.75;4.5;9.0;0.0;5.75;0.25;0.25;0.0;0.75;2.5;5.5;0.25;0.5;-0.190918;0.03418;0.992188;-0.56;-0.63;0.35;532.0;-0.101373;-0.166259
3.6;0.0;0.0;0.0;0.25;0.0;0.0;0.0;0.0;0.0;0.0;0.0;0.0;0.0;0.25;0.0;0.0;-0.152832;-1.214355;1.09668;-2.66;-3.01;-5.67;5.0;0.0;0.0;1.25;6.0;2.75;5.75;4.5;9.0;0.0;5.75;0.5;0.0;0.0;1.0;2.5;5.5;0.25;0.25;-0.192383;0.031738;0.99707;-0.56;-0.56;0.28;532.0;-0.099459;-0.16628
3.61;0.0;0.0;0.25;0.25;0.25;0.25;0.0;0.0;0.0;0.0;0.0;0.0;0.0;0.25;0.0;0.0;-0.104004;-0.259277;0.947266;-10.43;-6.51;-12.95;14.0;0.0;0.0;1.0;5.75;2.75;5.75;4.5;9.25;0.0;5.75;0.25;0.0;0.25;0.75;2.5;5.0;0.0;0.25;-0.19043;0.029785;0.99707;-0.42;-0.91;0.49;518.0;-0.106328;-0.173989
3.62;0.25;0.0;0.25;0.25;0.25;0.25;0.0;0.0;0.0;0.0;0.0;0.0;0.0;0.25;0.0;0.0;-0.161133;0.056641;0.959961;-2.24;6.3;0.7;17.0;0.0;0.0;1.0;5.75;2.75;6.0;4.5;9.25;0.0;5.75;0.25;0.0;0.25;1.0;3.0;5.0;0.25;0.25;-0.187988;0.030762;0.999512;-0.35;-0.7;0.49;532.0;-0.100428;-0.176987
3.63;0.5;0.0;0.25;0.25;0.25;0.25;0.0;0.0;0.0;0.0;0.0;0.0;0.0;0.25;0.0;0.0;-0.16748;0.002441;1.013184;2.31;3.57;2.73;20.0;0.0;0.0;1.25;5.75;2.75;5.5;4.25;9.0;0.0;5.75;0.25;0.25;0.0;1.0;2.5;4.75;0.0;0.25;-0.188477;0.032227;0.996094;-0.42;-0.42;0.49;512.0;-0.107042;-0.174212
3.64;0.5;0.25;0.5;0.25;0.25;0.25;0.0;0.0;0.0;0.0;0.0;0.0;0.0;0.5;0.0;0.0;-0.173828;0.024902;1.016113;3.5;4.76;0.84;28.0;0.0;0.0;1.25;5.75;2.5;5.75;4.25;9.0;0.0;5.75;0.25;0.0;0.0;1.0;2.5;4.75;0.0;0.0;-0.192383;0.026367;0.997559;-0.49;-0.14;0.63;508.0;-0.110462;-0.177019
3.65;0.5;0.25;0.5;0.5;0.25;0.25;0.0;0.0;0.0;0.0;0.0;0.0;0.0;0.25;0.0;0.0;-0.17041;0.040039;1.023926;3.92;5.53;0.21;29.0;0.0;0.0;1.0;5.5;2.5;5.5;4.25;9.0;0.0;5.75;0.25;0.0;0.0;0.75;2.5;5.0;0.25;0.0;-0.18457;0.035645;0.994629;-0.63;0.14;0.56;502.0;-0.102671;-0.17554
3.66;0.75;0.25;0.5;0.5;0.25;0.5;0.0;0.0;0.25;0.0;0.0;0.0;0.0;0.25;0.0;0.0;-0.176758;0.030273;1.026367;4.27;5.6;0.0;38.0;0.0;0.0;1.0;5.5;2.5;5.5;4.25;9.0;0.0;5.5;0.25;0.0;0.0;0.75;2.5;5.0;0.25;0.25;-0.186523;0.026855;0.991211;-0.77;0.21;0.56;499.0;-0.102052;-0.174145
3.67;0.75;0.25;0.75;1.0;0.5;0.5;0.0;0.0;0.0;0.0;0.0;0.0;0.0;0.25;0.0;0.0;-0.166016;0.020996;1.003418;5.18;6.02;-0.28;46.0;0.0;0.0;0.75;5.5;2.5;5.75;3.75;9.0;0.0;5.5;0.25;0.0;0.0;0.75;2.5;5.0;0.5;0.25;-0.19043;0.035156;0.993652;-0.77;0.28;0.49;496.0;-0.098232;-0.178379
3.68;0.75;0.25;0.5;1.0;0.5;0.5;0.0;0.25;0.0;0.0;0.0;0.0;0.0;0.5;0.0;0.0;-0.171387;0.018066;1.020508;5.25;4.62;-0.7;50.0;0.0;0.0;0.75;5.5;2.5;5.75;3.75;8.75;0.0;5.5;0.25;0.25;0.25;1.0;2.25;4.75;0.25;0.25;-0.19043;0.036133;0.993164;-0.91;0.35;0.49;494.0;-0.098904;-0.177617
3.69;0.5;0.25;0.5;0.75;0.5;0.5;0.0;0.25;0.0;0.0;0.0;0.0;0.0;0.5;0.0;0.0;-0.18457;0.024902;1.005371;5.46;1.47;-1.05;44.0;0.0;0.0;1.0;5.5;2.25;5.25;3.75;8.5;0.0;5.5;0.25;0.0;0.0;1.0;2.25;4.75;0.0;0.0;-0.189453;0.036133;0.994629;-1.12;0.56;0.35;475.0;-0.105404;-0.1784
3.7;0.75;0.25;0.5;1.0;0.5;0.75;0.0;0.25;0.0;0.0;0.0;0.25;0.0;0.5;0.0;0.0;-0.179688;0.03125;1.01123;4.55;0.42;-1.54;56.0;-0.164861;-0.096436;0.75;5.25;2.25;5.5;3.75;8.5;0.0;5.25;0.0;0.0;0.0;1.0;2.25;4.75;0.25;0.0;-0.189941;0.032715;0.987793;-1.26;0.49;0.21;468.0;-0.103544;-0.181472
3.71;0.75;0.25;0.75;1.0;0.5;0.5;0.0;0.25;0.0;0.0;0.0;0.25;0.0;0.75;0.0;0.0;-0.189453;0.040527;1.003418;3.15;-0.35;-1.4;58.0;-0.14772;-0.066704;0.5;5.0;2.0;5.75;3.75;8.25;0.0;5.25;0.0;0.0;0.25;1.0;2.25;4.75;0.25;0.0;-0.193359;0.032715;0.992676;-1.54;0.49;0.21;462.0;-0.097779;-0.184405
3.72;0.75;0.25;0.75;1.0;0.5;0.5;0.0;0.25;0.0;0.0;0.0;0.25;0.0;0.75;0.0;0.0;-0.183105;0.045898;1.000977;1.89;-0.35;-0.42;58.0;-0.14772;-0.066704;0.5;5.25;2.25;5.75;3.25;8.25;0.0;5.0;0.0;0.0;0.25;0.5;2.0;4.5;0.25;0.0;-0.19043;0.033203;0.986328;-1.61;0.21;-0.0;447.0;-0.109145;-0.182794
3.73;0.75;0.25;0.75;1.0;0.5;0.75;0.0;0.5;0.0;0.0;0.0;0.25;0.0;0.75;0.0;0.0;-0.182129;0.038574;1.009277;0.56;-0.35;0.63;65.0;-0.139284;-0.09685;1.0;5.0;2.0;5.75;3.25;7.75;0.0;5.0;0.0;0.0;0.0;0.75;2.0;4.25;0.25;0.0;-0.189453;0.03125;0.991211;-1.61;0.0;-0.07;439.0;-0.112355;-0.18288
3.74;0.5;0.5;0.75;1.25;0.5;1.0;0.0;0.5;0.0;0.0;0.0;0.25;0.0;0.75;0.0;0.0;-0.177734;0.030273;1.000977;-0.84;-0.49;0.77;71.0;-0.145422;-0.120318;1.0;5.0;2.0;5.75;3.25;7.75;0.0;5.0;0.0;0.0;0.0;0.25;1.75;4.25;0.25;0.0;-0.191406;0.029785;0.986816;-1.4;-0.07;-0.0;431.0;-0.118183;-0.179857
3.75;1.0;0.5;0.75;1.25;0.75;1.0;0.0;0.5;0.0;0.0;0.0;0.25;0.0;0.75;0.0;0.0;-0.17627;0.033691;0.991699;-2.24;-0.84;0.63;80.0;-0.162997;-0.097174;1.0;4.75;2.25;5.75;3.75;8.25;0.0;5.0;0.0;0.0;0.0;0.5;1.75;4.25;0.25;0.0;-0.195312;0.029785;0.990723;-1.26;-0.21;0.07;447.0;-0.115945;-0.176838
3.76;1.5;0.5;1.0;1.25;0.75;0.75;0.0;0.75;0.0;0.0;0.0;0.25;0.0;1.0;0.0;0.0;-0.179199;0.033203;0.992676;-2.52;-0.98;0.56;92.0;-0.16017;-0.078996;0.5;4.75;2.0;5.5;3.25;8.25;0.0;5.0;0.0;0.0;0.0;0.75;1.75;4.0;0.25;0.25;-0.190918;0.031738;0.990723;-1.26;-0.28;0.14;431.0;-0.108832;-0.188623
3.77;1.5;0.5;1.5;1.5;1.0;1.25;0.0;0.5;0.0;0.0;0.0;0.0;0.0;0.75;0.0;0.0;-0.175293;0.03125;0.984375;-2.52;-1.26;0.49;100.0;-0.198805;-0.067176;1.0;4.75;2.0;5.5;3.25;8.25;0.0;4.75;0.0;0.0;0.0;0.75;1.75;3.75;0.25;0.25;-0.18457;0.033691;0.988281;-1.19;-0.28;-0.0;430.0;-0.116455;-0.18472
3.78;1.5;0.75;1.5;1.5;1.0;1.25;0.0;0.5;0.0;0.0;0.0;0.25;0.0;0.75;0.0;0.0;-0.17627;0.025391;0.990234;-2.03;-1.54;0.42;106.0;-0.192894;-0.07575;0.75;4.75;2.0;5.0;3.25;7.5;0.0;4.75;0.0;0.0;0.25;0.5;1.75;4.0;0.25;0.0;-0.188477;0.03125;0.992676;-1.33;-0.28;-0.0;413.0;-0.109867;-0.180499
3.79;1.75;0.75;1.25;1.5;1.0;1.5;0.0;0.75;0.0;0.25;0.0;0.0;0.25;0.5;0.0;0.0;-0.166016;0.02832;0.993164;-1.61;-1.68;0.35;113.0;-0.192712;-0.096593;0.5;4.5;2.0;5.25;3.25;7.5;0.0;4.75;0.25;0.0;0.0;0.75;1.5;4.0;0.5;0.0;-0.187012;0.027344;0.98584;-1.4;-0.35;0.07;415.0;-0.102244;-0.177925
3.8;1.75;0.75;1.25;1.5;1.0;1.75;0.0;0.75;0.25;0.25;0.0;0.0;0.25;0.5;0.0;0.0;-0.17041;0.025879;0.999512;-0.98;-1.26;0.28;119.0;-0.17824;-0.089868;0.5;4.5;2.0;5.5;3.25;7.5;0.0;4.75;0.0;0.0;0.0;0.5;1.5;3.75;0.25;0.0;-0.193359;0.03125;0.985352;-1.54;-0.35;0.07;406.0;-0.115513;-0.184129
3.81;1.75;1.0;1.5;1.5;1.25;1.75;0.0;0.75;0.25;0.0;0.0;0.25;0.0;1.0;0.0;0.25;-0.174316;0.024902;1.0;-0.56;-1.05;0.28;132.0;-0.163513;-0.077988;0.75;5.0;2.0;5.0;3.25;7.5;0.0;4.5;0.0;0.0;0.25;0.25;1.5;3.75;0.0;0.0;-0.195312;0.028809;0.998535;-1.4;-0.07;-0.0;401.0;-0.123459;-0.178515
3.82;1.5;0.75;1.5;1.5;1.25;1.75;0.0;1.0;0.25;0.25;0.0;0.0;0.0;1.25;0.0;0.0;-0.177246;0.026855;1.006348;0.28;-0.91;0.56;131.0;-0.143841;-0.07525;0.25;4.0;2.0;5.0;3.0;7.0;0.0;4.5;0.0;0.0;0.0;0.5;1.75;3.5;0.0;0.0;-0.192383;0.02832;0.995605;-1.47;-0.07;0.07;376.0;-0.11252;-0.188919
3.83;1.75;1.0;1.75;1.75;1.25;1.75;0.0;1.0;0.25;0.25;0.0;0.0;0.25;1.25;0.0;0.0;-0.174805;0.027832;0.996582;0.77;-1.19;0.7;145.0;-0.154084;-0.079145;0.25;3.75;1.75;5.0;3.0;6.75;0.0;4.25;0.0;0.0;0.0;0.5;1.5;3.75;0.0;0.0;-0.191406;0.023926;0.992676;-1.33;0.14;0.14;364.0;-0.108426;-0.184295
3.84;1.75;1.25;1.75;1.75;1.25;1.75;0.25;1.0;0.0;0.0;0.0;0.25;0.25;1.0;0.0;0.25;-0.174316;0.026855;0.992676;0.77;-1.33;0.98;147.0;-0.166261;-0.093616;0.5;3.75;1.75;5.0;3.0;6.75;0.0;4.25;0.0;0.0;0.0;0.5;1.5;3.75;0.25;0.0;-0.199219;0.031738;0.989258;-1.26;0.21;0.21;369.0;-0.106679;-0.181259
3.85;1.5;1.25;1.75;1.75;1.25;2.25;0.0;1.0;0.25;0.0;0.0;0.25;0.25;1.25;0.0;0.25;-0.171875;0.032227;1.0;0.77;-1.54;0.84;152.0;-0.149221;-0.100698;0.5;3.75;2.0;4.5;3.25;6.75;0.0;4.25;0.25;0.0;0.0;0.5;1.5;4.0;0.25;0.25;-0.194824;0.031738;0.993164;-1.19;0.28;0.28;377.0;-0.096754;-0.170426
3.86;1.75;1.0;1.75;1.75;1.5;2.0;0.0;1.25;0.25;0.0;0.0;0.25;0.25;1.25;0.0;0.25;-0.17627;0.029785;0.998535;0.56;-1.47;0.7;157.0;-0.145354;-0.097227;0.25;3.5;2.0;4.5;2.75;6.75;0.0;4.25;0.0;0.0;0.0;0.5;1.75;4.0;0.25;0.25;-0.188477;0.025879;0.989258;-1.12;0.49;0.14;364.0;-0.093437;-0.182692
3.87;2.25;1.25;1.75;2.0;1.75;2.5;0.0;1.5;0.25;0.0;0.0;0.0;0.25;2.0;0.0;0.25;-0.169434;0.03418;1.005859;0.35;-0.98;0.63;185.0;-0.140652;-0.090207;0.25;3.75;2.0;4.5;2.75;6.75;0.0;4.25;0.25;0.25;0.25;0.5;1.5;4.0;0.0;0.25;-0.194336;0.03125;0.994141;-1.12;0.42;0.21;371.0;-0.092781;-0.174772
3.88;1.75;1.5;1.75;2.0;1.75;2.75;0.0;1.5;0.25;0.0;0.0;0.25;0.25;2.0;0.25;0.25;-0.174805;0.035645;1.00293;0.42;-0.91;0.7;191.0;-0.123166;-0.10295;0.25;3.25;1.5;4.5;2.75;6.75;0.0;4.25;0.0;0.0;0.0;0.75;1.5;4.0;0.25;0.25;-0.189453;0.021484;0.988281;-0.98;0.42;0.21;356.0;-0.087499;-0.186533
3.89;1.75;1.25;1.75;2.0;1.75;2.75;0.0;1.5;0.25;0.0;0.0;0.25;0.25;2.0;0.0;0.25;-0.174316;0.032227;1.0;0.21;-0.56;0.7;185.0;-0.127386;-0.102411;0.25;3.0;1.75;4.25;2.75;6.5;0.0;4.25;0.0;0.0;0.0;0.75;1.5;3.5;0.25;0.25;-0.193848;0.028809;0.994141;-0.91;0.42;0.35;346.0;-0.091093;-0.188059
3.9;1.75;1.25;1.75;2.0;1.75;3.0;0.0;1.5;0.25;0.0;0.0;0.0;0.25;2.0;0.0;0.25;-0.171387;0.030273;0.999512;0.21;-0.49;0.77;185.0;-0.133008;-0.102146;0.25;3.25;1.75;4.25;2.5;6.5;0.0;4.25;0.0;0.0;0.0;0.75;1.25;3.75;0.0;0.0;-0.193848;0.024902;0.983398;-0.98;0.56;0.28;341.0;-0.097717;-0.18606
3.91;2.0;1.25;1.75;2.5;1.75;3.0;0.25;1.75;0.25;0.25;0.0;0.0;0.5;2.0;0.25;0.25;-0.17627;0.03125;0.998535;-0.0;-0.7;0.7;211.0;-0.118693;-0.103301;0.25;3.25;1.5;3.75;2.5;6.25;0.0;4.25;0.25;0.0;0.0;0.75;1.25;4.0;0.25;0.0;-0.194824;0.03125;0.987793;-0.91;0.56;0.35;338.0;-0.080815;-0.178841
3.92;2.0;1.25;2.0;2.25;1.75;3.0;0.25;1.75;0.25;0.25;0.0;0.0;0.25;2.0;0.25;0.25;-0.169922;0.030762;0.995605;-0.0;-0.7;0.7;208.0;-0.121671;-0.094677;0.25;2.75;1.5;3.75;2.5;6.0;0.0;4.0;0.0;0.0;0.0;0.5;1.25;4.0;0.25;0.0;-0.194336;0.033691;0.989258;-0.98;0.56;0.21;319.0;-0.082128;-0.179415
3.93;2.0;1.25;2.0;2.75;2.0;3.25;0.25;2.0;0.25;0.0;0.0;0.25;0.25;1.75;0.0;0.25;-0.173828;0.024414;0.996582;-0.14;-0.63;0.56;219.0;-0.137529;-0.111907;0.25;2.75;1.5;3.5;2.5;6.0;0.0;4.0;0.0;0.0;0.0;0.5;1.5;4.0;0.25;0.0;-0.194336;0.03125;0.989258;-0.98;0.42;0.28;319.0;-0.078336;-0.181073
3.94;2.25;1.75;2.25;2.75;2.0;3.25;0.25;2.25;0.25;0.0;0.0;0.25;0.25;2.0;0.0;0.25;-0.175781;0.033203;0.996582;-0.14;-0.63;0.56;237.0;-0.1407;-0.109914;0.25;2.25;1.5;3.75;2.5;6.0;0.0;4.0;0.0;0.0;0.25;0.75;1.5;3.5;0.25;0.0;-0.191895;0.030273;0.991699;-0.98;0.28;0.28;318.0;-0.07678;-0.187411
3.95;2.25;1.5;2.25;2.75;2.0;3.5;0.25;2.0;0.0;0.0;0.0;0.25;0.25;2.25;0.25;0.25;-0.168457;0.03418;0.99707;-0.21;-0.56;0.63;235.0;-0.134036;-0.109048;0.25;2.25;1.5;3.5;2.25;6.25;0.0;4.0;0.0;0.0;0.25;0.75;1.5;3.75;0.25;0.0;-0.192871;0.030273;0.990234;-1.12;0.07;0.21;317.0;-0.071453;-0.187539
3.96;2.0;1.5;2.25;3.0;1.75;3.5;0.25;2.25;0.0;0.25;0.0;0.25;0.5;2.25;0.25;0.25;-0.167969;0.027344;1.0;-0.07;-0.42;0.7;241.0;-0.123412;-0.121456;0.25;2.25;1.25;3.5;2.0;6.0;0.0;3.75;0.0;0.0;0.0;0.25;1.25;3.75;0.25;0.0;-0.199707;0.029785;0.991211;-0.98;0.07;0.14;293.0;-0.079249;-0.18558
3.97;2.25;1.75;2.25;3.0;1.75;3.5;0.25;2.25;0.25;0.0;0.0;0.25;0.25;2.0;0.25;0.25;-0.169922;0.025879;1.001465;-0.14;-0.42;0.77;242.0;-0.136366;-0.115127;0.25;1.5;1.25;3.25;2.0;5.75;0.0;3.75;0.0;0.0;0.0;0.5;1.25;4.0;0.25;0.0;-0.196777;0.022949;0.98877;-1.19;0.0;0.21;285.0;-0.060401;-0.182914
3.98;2.5;1.75;2.25;3.25;2.0;3.75;0.25;2.0;0.25;0.0;0.0;0.25;0.25;2.0;0.25;0.0;-0.171387;0.03418;0.992676;-0.07;-0.28;0.63;249.0;-0.146318;-0.107846;0.25;2.0;1.25;2.75;2.0;6.0;0.0;3.75;0.0;0.0;0.0;0.25;1.0;3.75;0.25;0.25;-0.192383;0.02832;0.993652;-1.12;-0.14;0.21;280.0;-0.069307;-0.182848
3.99;2.75;1.75;2.25;3.0;2.0;3.75;0.25;2.25;0.0;0.0;0.0;0.25;0.5;2.0;0.25;0.25;-0.174805;0.030273;0.996582;-0.07;-0.28;0.7;253.0;-0.145099;-0.118614;0.0;2.25;1.25;3.0;2.25;6.25;0.0;3.75;0.0;0.0;0.0;0.25;1.5;3.75;0.0;0.25;-0.193848;0.023438;0.986328;-1.19;-0.28;0.21;291.0;-0.073574;-0.18988
4.0;2.75;2.0;2.75;3.5;2.0;4.0;0.25;2.5;0.25;0.25;0.0;0.25;0.5;2.0;0.0;0.25;-0.167969;0.036133;0.999023;0.07;-0.42;0.77;278.0;-0.147954;-0.115974;0.25;2.0;1.25;3.0;2.0;5.5;0.0;3.75;0.0;0.0;0.25;0.5;1.0;3.75;0.0;0.25;-0.196777;0.024414;0.991211;-1.12;-0.28;0.14;280.0;-0.068892;-0.182887
4.01;2.75;2.25;2.75;3.5;2.25;4.25;0.25;2.5;0.25;0.0;0.0;0.25;0.5;2.0;0.25;0.25;-0.167969;0.030273;0.999512;0.07;-0.07;0.77;287.0;-0.148418;-0.117633;0.25;1.75;1.5;2.75;2.0;5.25;0.0;3.75;0.0;0.0;0.0;0.5;1.0;3.75;0.25;0.0;-0.193359;0.03418;0.990723;-0.98;-0.28;0.21;273.0;-0.06499;-0.177505
4.02;3.0;2.25;2.75;3.5;2.25;4.25;0.25;2.25;0.0;0.0;0.0;0.25;0.5;1.5;0.0;0.25;-0.17041;0.035156;1.001465;-0.0;0.07;0.91;274.0;-0.1737;-0.121615;0.0;3.0;1.25;3.0;2.0;5.5;0.0;3.5;0.0;0.0;0.0;0.5;1.25;3.75;0.25;0.0;-0.196289;0.028809;0.988281;-0.98;-0.35;0.35;284.0;-0.077143;-0.183426
4.03;3.0;2.25;2.75;3.5;2.25;4.25;0.0;2.25;0.0;0.0;0.0;0.25;0.5;1.25;0.0;0.25;-0.17041;0.029785;0.999023;0.21;0.14;0.98;268.0;-0.182688;-0.129807;0.0;2.25;1.25;2.75;1.75;5.25;0.0;3.5;0.0;0.0;0.0;0.25;1.25;3.5;0.0;0.0;-0.196777;0.023926;0.987305;-0.91;-0.28;0.35;260.0;-0.076314;-0.188355
4.04;2.75;2.25;2.75;3.75;2.25;4.25;0.0;2.5;0.0;0.25;0.0;0.25;0.5;1.5;0.25;0.25;-0.172363;0.033691;1.001465;0.28;0.35;0.98;280.0;-0.163788;-0.132129;0.0;2.0;1.25;2.75;2.0;5.25;0.0;3.5;0.0;0.0;0.0;0.25;1.0;3.75;0.25;0.0;-0.192871;0.027344;0.984863;-0.84;-0.35;0.49;263.0;-0.066223;-0.178889
4.05;3.0;2.5;2.75;4.0;2.25;4.25;0.0;2.5;0.25;0.0;0.0;0.25;0.5;1.5;0.25;0.25;-0.165039;0.032715;0.995117;0.14;0.35;0.84;289.0;-0.168393;-0.127931;0.25;2.25;1.25;2.5;2.0;5.25;0.0;3.5;0.0;0.0;0.0;0.25;1.25;3.5;0.25;0.25;-0.190918;0.029297;0.987305;-0.84;-0.56;0.42;267.0;-0.070337;-0.181543
4.06;2.75;2.5;2.75;4.0;2.5;4.75;0.25;2.5;0.25;0.0;0.0;0.25;0.25;1.25;0.25;0.25;-0.164551;0.035156;0.998047;0.21;0.21;0.91;295.0;-0.169173;-0.125767;0.25;2.25;1.25;2.75;1.75;5.25;0.0;3.25;0.0;0.25;0.0;0.5;1.5;3.75;0.25;0.25;-0.191406;0.029297;0.987793;-0.91;-0.56;0.35;273.0;-0.060657;-0.17949
4.07;3.0;2.5;2.75;4.0;2.5;4.75;0.25;2.5;0.0;0.0;0.0;0.25;0.25;1.25;0.25;0.25;-0.171387;0.027344;0.997559;0.14;0.35;0.84;294.0;-0.1766;-0.128376;0.0;2.25;1.25;2.75;1.75;5.25;0.0;3.0;0.0;0.0;0.0;0.5;1.25;3.75;0.25;0.0;-0.201172;0.025391;0.992188;-0.91;-0.7;0.42;260.0;-0.065487;-0.178566
4.08;3.0;2.75;2.75;4.5;2.25;4.75;0.25;2.5;0.0;0.0;0.25;0.25;0.25;1.25;0.25;0.25;-0.166504;0.033203;1.0;0.14;0.56;0.91;302.0;-0.177502;-0.132369;0.0;1.75;1.25;2.75;1.75;5.25;0.0;3.0;0.0;0.0;0.0;0.5;1.25;3.5;0.0;0.0;-0.196777;0.030762;0.990234;-0.91;-0.91;0.42;249.0;-0.068282;-0.18324
4.09;3.0;2.75;2.75;4.75;2.25;4.75;0.25;2.5;0.0;0.0;0.0;0.25;0.25;1.25;0.0;0.25;-0.17041;0.033203;0.998047;0.07;0.63;0.84;300.0;-0.188049;-0.133931;0.25;1.75;1.25;2.75;2.0;5.25;0.0;3.25;0.0;0.0;0.0;0.5;1.25;3.0;0.0;0.0;-0.195312;0.027344;0.999023;-0.91;-0.91;0.49;255.0;-0.080528;-0.187104
4.1;3.0;2.75;2.75;4.75;2.25;4.75;0.0;2.5;0.0;0.0;0.0;0.0;0.25;1.25;0.0;0.25;-0.163086;0.033203;1.002441;0.21;0.7;0.77;293.0;-0.195731;-0.137639;0.25;2.0;1.25;2.5;1.75;5.25;0.0;3.0;0.0;0.0;0.0;0.25;1.25;3.0;0.0;0.0;-0.193359;0.025879;0.995117;-0.91;-1.05;0.49;244.0;-0.085479;-0.18471
4.11;3.0;2.75;2.75;4.75;2.25;4.75;0.0;2.5;0.0;0.0;0.0;0.0;0.5;1.25;0.25;0.25;-0.171387;0.033691;0.999023;0.14;0.63;0.77;298.0;-0.18704;-0.139667;0.0;2.25;1.25;2.75;1.5;5.25;0.0;3.0;0.0;0.0;0.0;0.25;1.0;3.25;0.25;0.0;-0.195801;0.030273;0.994141;-1.05;-1.12;0.49;247.0;-0.079205;-0.184123
4.12;3.0;2.75;2.75;4.5;2.25;4.75;0.0;2.5;0.0;0.25;0.0;0.25;0.25;1.0;0.0;0.25;-0.169922;0.029297;0.996094;0.14;0.49;0.84;293.0;-0.191403;-0.138839;0.25;2.25;1.25;2.75;1.75;5.25;0.0;3.0;0.0;0.0;0.0;0.5;0.75;3.5;0.25;0.0;-0.197266;0.025391;0.993652;-0.91;-1.12;0.56;255.0;-0.077912;-0.173397
4.13;3.5;3.0;3.0;5.0;2.25;5.25;0.0;2.5;0.0;0.25;0.0;0.25;0.5;1.0;0.0;0.25;-0.168457;0.033203;0.99707;0.07;0.49;0.7;319.0;-0.196067;-0.138982;0.25;2.25;1.25;2.75;1.75;5.25;0.0;3.0;0.0;0.0;0.0;0.5;0.75;3.25;0.25;0.0;-0.192871;0.020508;0.98877;-0.98;-1.05;0.7;253.0;-0.082414;-0.176618
4.14;3.25;3.0;3.0;5.0;2.25;5.25;0.0;2.5;0.25;0.0;0.0;0.25;0.5;1.0;0.0;0.25;-0.170898;0.035645;1.001465;0.21;0.63;0.77;317.0;-0.193023;-0.138348;0.0;2.25;1.25;2.75;1.75;5.25;0.0;3.0;0.0;0.0;0.0;0.5;0.75;3.0;0.0;0.0;-0.196777;0.027344;0.992188;-0.84;-0.91;0.63;245.0;-0.089135;-0.184373
4.15;3.5;3.0;2.75;5.0;2.0;5.25;0.0;2.5;0.0;0.0;0.0;0.25;0.25;0.75;0.0;0.25;-0.170898;0.03418;0.997559;0.28;0.56;0.77;305.0;-0.207588;-0.145042;0.0;2.0;1.25;2.75;1.75;5.25;0.0;3.0;0.0;0.0;0.0;0.5;0.75;3.0;0.25;0.0;-0.196777;0.024414;0.991699;-0.84;-0.91;0.63;245.0;-0.079966;-0.183367
4.16;3.5;3.25;2.75;5.0;2.0;5.25;0.0;2.5;0.0;0.0;0.0;0.25;0.5;0.75;0.0;0.25;-0.168457;0.036133;0.994629;0.42;0.42;0.77;310.0;-0.206424;-0.147619;0.25;2.0;1.25;2.75;1.75;5.25;0.0;3.0;0.0;0.0;0.0;0.75;1.5;3.0;0.25;0.0;-0.193848;0.026367;0.989746;-0.84;-0.84;0.7;258.0;-0.073462;-0.189031
4.17;3.75;3.25;2.75;5.25;2.0;5.5;0.0;2.5;0.25;0.0;0.0;0.25;0.5;1.0;0.0;0.25;-0.170898;0.03125;0.994629;0.21;0.56;0.77;325.0;-0.198868;-0.140273;0.25;2.25;1.0;2.75;1.5;5.0;0.0;3.0;0.0;0.0;0.0;0.25;1.25;2.5;0.0;0.0;-0.192383;0.030273;0.989258;-0.98;-0.77;0.63;236.0;-0.097711;-0.19771
4.18;3.5;3.25;2.75;5.25;2.0;5.25;0.0;2.5;0.25;0.0;0.0;0.25;0.5;1.0;0.0;0.25;-0.170898;0.035156;0.99707;0.35;0.56;0.84;319.0;-0.197489;-0.141245;0.25;1.75;1.0;2.75;1.5;5.0;0.0;3.0;0.0;0.0;0.0;0.25;1.0;3.0;0.0;0.0;-0.196777;0.029297;0.984375;-0.98;-0.77;0.63;233.0;-0.083356;-0.188254
4.19;4.0;3.25;2.75;5.5;2.25;5.5;0.0;2.5;0.25;0.0;0.0;0.25;0.5;1.0;0.0;0.25;-0.166016;0.038574;0.994141;0.28;0.49;0.91;333.0;-0.200737;-0.137107;0.0;2.0;1.0;2.75;1.5;4.75;0.0;2.75;0.0;0.0;0.25;0.5;1.0;2.75;0.25;0.0;-0.189941;0.03125;0.991699;-1.05;-0.77;0.63;232.0;-0.07493;-0.189683
4.2;4.0;3.5;2.75;5.25;2.0;5.25;0.0;2.5;0.0;0.0;0.0;0.0;0.5;1.0;0.0;0.25;-0.16748;0.035156;0.994141;0.21;0.49;0.91;321.0;-0.211561;-0.14028;0.25;2.5;1.25;2.75;1.5;4.75;0.0;2.75;0.0;0.0;0.0;0.25;0.75;2.75;0.0;0.0;-0.194336;0.027832;0.984375;-0.98;-0.7;0.63;232.0;-0.104533;-0.180032
