Time;left pressure 1[N/cm²];left pressure 2[N/cm²];left pressure 3[N/cm²];left pressure 4[N/cm²];left pressure 5[N/cm²];left pressure 6[N/cm²];left pressure 7[N/cm²];left pressure 8[N/cm²];left pressure 9[N/cm²];left pressure 10[N/cm²];left pressure 11[N/cm²];left pressure 12[N/cm²];left pressure 13[N/cm²];left pressure 14[N/cm²];left pressure 15[N/cm²];left pressure 16[N/cm²];left acceleration X[g];left acceleration Y[g];left acceleration Z[g];left angular X[dps];left angular Y[dps];left angular Z[dps];left total force[N];left center of pressure X[-0.5...+0.5];left center of pressure Y[-0.5...+0.5];right pressure 1[N/cm²];right pressure 2[N/cm²];right pressure 3[N/cm²];right pressure 4[N/cm²];right pressure 5[N/cm²];right pressure 6[N/cm²];right pressure 7[N/cm²];right pressure 8[N/cm²];right pressure 9[N/cm²];right pressure 10[N/cm²];right pressure 11[N/cm²];right pressure 12[N/cm²];right pressure 13[N/cm²];right pressure 14[N/cm²];right pressure 15[N/cm²];right pressure 16[N/cm²];right acceleration X[g];right acceleration Y[g];right acceleration Z[g];right angular X[dps];right angular Y[dps];right angular Z[dps];right total force[N];right center of pressure X[-0.5...+0.5];right center of pressure Y[-0.5...+0.5]
0.0;9.5;6.5;8.0;4.25;0.75;0.5;0.25;0.0;1.5;0.25;1.0;0.5;0.25;2.0;0.5;0.25;-0.229004;0.02002;0.98584;-0.42;0.42;0.56;410.0;-0.22428;0.005641;5.0;4.25;5.0;3.5;0.75;1.0;0.0;0.5;0.0;0.5;1.25;0.75;0.5;1.75;0.75;0.5;-0.250977;0.042969;0.976562;-0.63;-0.84;0.77;293.0;-0.182723;-0.053563
0.01;9.5;6.5;8.0;4.25;0.75;0.5;0.25;0.0;1.5;0.25;1.0;0.5;0.25;2.0;0.5;0.25;-0.229004;0.02002;0.98584;-0.42;0.42;0.56;410.0;-0.22428;0.005641;5.0;4.0;5.0;3.5;0.75;1.0;0.0;0.25;0.25;0.5;1.0;0.75;0.5;1.5;0.5;0.5;-0.24707;0.040039;0.96875;-0.63;-0.84;0.7;282.0;-0.19264;-0.044372
0.02;9.5;6.5;8.0;4.25;0.75;0.5;0.25;0.0;1.5;0.25;1.0;0.5;0.25;2.0;0.5;0.25;-0.229004;0.02002;0.98584;-0.42;0.42;0.56;410.0;-0.22428;0.005641;4.75;4.25;5.25;3.5;0.75;1.0;0.0;0.25;0.25;0.5;1.0;1.0;0.5;1.75;0.25;0.5;-0.251953;0.039551;0.972168;-0.7;-0.84;0.63;287.0;-0.190371;-0.045883
0.03;9.5;6.5;8.0;4.25;0.75;0.5;0.25;0.0;1.5;0.25;1.0;0.5;0.25;2.0;0.5;0.25;-0.229004;0.02002;0.98584;-0.42;0.42;0.56;410.0;-0.22428;0.005641;4.25;4.25;5.25;3.5;0.75;1.0;0.0;0.25;0.25;0.5;1.0;1.0;0.5;1.5;0.25;0.5;-0.251465;0.037109;0.976074;-0.63;-0.91;0.77;279.0;-0.191071;-0.050887
0.04;9.5;6.5;8.0;4.25;0.75;0.5;0.25;0.0;1.5;0.25;1.0;0.5;0.25;2.0;0.5;0.25;-0.229004;0.02002;0.98584;-0.42;0.42;0.56;410.0;-0.22428;0.005641;4.5;4.25;4.75;3.5;0.75;1.0;0.0;0.25;0.25;0.5;1.0;0.75;0.5;1.5;0.25;0.5;-0.249512;0.041504;0.975586;-0.7;-0.84;0.7;273.0;-0.195836;-0.049777
0.05;9.5;6.5;7.75;4.25;0.75;0.5;0.25;0.0;1.75;0.25;1.0;0.5;0.25;1.75;0.5;0.25;-0.23291;0.022949;0.984863;-0.49;0.49;0.56;408.0;-0.223383;0.006392;4.5;4.0;5.0;3.5;0.75;0.75;0.0;0.25;0.25;0.5;1.25;0.5;0.25;1.5;0.25;0.5;-0.250488;0.035156;0.967773;-0.77;-0.91;0.7;268.0;-0.198098;-0.039056
0.06;9.25;6.5;7.75;4.5;0.75;0.5;0.25;0.0;2.0;0.5;0.5;0.5;0.25;2.25;0.75;0.5;-0.236816;0.022949;0.986816;-0.42;0.42;0.56;418.0;-0.208067;0.008556;4.25;3.75;4.75;3.25;0.75;0.75;0.0;0.25;0.0;0.5;1.25;0.75;0.25;1.75;0.0;0.5;-0.24707;0.037109;0.975586;-0.77;-0.84;0.63;255.0;-0.19483;-0.043628
0.07;9.25;6.5;8.0;4.25;0.75;0.75;0.25;0.0;2.0;0.25;0.75;0.25;0.25;2.25;0.25;0.25;-0.233887;0.020508;0.983398;-0.42;0.35;0.56;411.0;-0.221143;0.012131;4.25;4.25;4.75;3.25;0.75;1.0;0.0;0.25;0.0;0.5;1.25;1.0;0.5;1.75;0.0;0.5;-0.252441;0.04541;0.972168;-0.77;-0.91;0.63;268.0;-0.190993;-0.054845
0.08;9.5;6.5;8.0;4.25;0.75;0.5;0.25;0.0;1.75;0.25;0.5;0.25;0.25;2.25;0.25;0.25;-0.233398;0.022949;0.978516;-0.35;0.49;0.63;405.0;-0.230304;0.01349;4.5;4.25;5.0;3.25;0.75;0.5;0.0;0.25;0.0;0.5;1.0;0.75;0.25;1.75;0.0;0.5;-0.250977;0.042969;0.970703;-0.7;-0.91;0.7;260.0;-0.207334;-0.03937
0.09;9.25;6.5;8.0;4.25;0.75;0.5;0.25;0.0;1.75;0.5;0.5;0.5;0.25;2.0;0.0;0.25;-0.231445;0.019043;0.988281;-0.42;0.49;0.49;402.0;-0.230869;0.010693;4.75;3.75;4.75;3.0;0.75;0.5;0.0;0.0;0.0;0.5;1.0;0.75;0.5;1.75;0.25;0.5;-0.251953;0.041504;0.972168;-0.7;-0.91;0.63;253.0;-0.196438;-0.033153
0.1;9.0;6.25;8.0;4.5;0.75;0.5;0.25;0.0;1.75;0.5;0.5;0.5;0.25;2.0;0.25;0.25;-0.234863;0.016113;0.988281;-0.49;0.56;0.56;403.0;-0.224375;0.008696;4.75;3.75;4.75;3.25;0.75;0.5;0.0;0.0;0.25;0.5;1.0;1.0;0.5;1.75;0.5;0.5;-0.251953;0.041992;0.973633;-0.84;-0.84;0.7;265.0;-0.180435;-0.034557
0.11;9.25;6.25;7.75;4.25;0.75;0.5;0.25;0.0;1.75;0.5;0.5;0.25;0.0;2.0;0.25;0.25;-0.236816;0.019043;0.986328;-0.42;0.49;0.49;394.0;-0.230377;0.0156;4.25;3.75;4.75;3.25;0.75;0.75;0.0;0.25;0.25;0.5;1.0;1.0;0.5;1.75;0.5;0.5;-0.249512;0.039551;0.973145;-0.63;-0.84;0.63;267.0;-0.172771;-0.045831
0.12;9.25;6.25;8.0;4.25;0.75;0.5;0.25;0.0;1.75;0.5;0.75;0.5;0.0;2.5;0.5;0.25;-0.237793;0.01709;0.983887;-0.49;0.42;0.63;411.0;-0.212658;0.014196;4.25;3.75;4.75;3.25;0.75;1.0;0.0;0.25;0.0;0.5;1.0;1.0;0.5;1.75;0.25;0.5;-0.248047;0.039551;0.970215;-0.77;-0.84;0.63;263.0;-0.184685;-0.052349
0.13;9.0;6.25;7.75;4.25;0.75;0.5;0.25;0.0;1.75;0.5;0.5;0.25;0.0;2.25;0.5;0.25;-0.237793;0.023926;0.984863;-0.56;0.42;0.49;397.0;-0.220774;0.015178;4.25;3.75;5.0;3.25;0.75;0.75;0.0;0.25;0.0;0.5;1.0;0.75;0.5;1.75;0.0;0.5;-0.255859;0.039551;0.973633;-0.7;-0.91;0.7;258.0;-0.197008;-0.045072
0.14;8.75;6.0;7.75;4.25;0.75;0.5;0.25;0.0;1.75;0.5;0.5;0.25;0.0;2.25;0.5;0.25;-0.237305;0.022949;0.985352;-0.63;0.35;0.49;391.0;-0.218194;0.015667;4.25;3.75;4.5;3.25;0.75;1.0;0.0;0.25;0.0;0.5;1.0;0.75;0.5;1.75;0.0;0.5;-0.250977;0.04248;0.96875;-0.77;-0.77;0.56;255.0;-0.194843;-0.050955
0.15;9.0;6.0;8.0;4.5;0.75;0.5;0.25;0.0;1.75;0.5;0.5;0.25;0.0;2.0;0.5;0.25;-0.23291;0.016602;0.990234;-0.63;0.42;0.56;398.0;-0.224074;0.014137;4.25;3.75;4.75;3.25;0.75;0.75;0.0;0.25;0.0;0.5;1.25;0.75;0.5;1.75;0.25;0.5;-0.253906;0.037598;0.977539;-0.77;-0.77;0.63;260.0;-0.184901;-0.047833
0.16;9.0;6.0;7.75;4.25;0.75;0.5;0.25;0.0;1.75;0.5;0.5;0.25;0.25;2.0;0.5;0.25;-0.238281;0.021484;0.982422;-0.63;0.49;0.56;394.0;-0.220921;0.012533;4.25;4.0;4.75;3.25;0.75;0.75;0.0;0.25;0.0;0.5;1.25;0.75;0.5;1.75;0.0;0.5;-0.250977;0.038574;0.969238;-0.84;-0.77;0.63;260.0;-0.193681;-0.048601
0.17;9.0;6.25;7.75;4.25;0.75;0.5;0.25;0.0;2.0;0.5;0.75;0.25;0.0;2.25;0.25;0.0;-0.234863;0.015137;0.98584;-0.7;0.49;0.56;399.0;-0.219967;0.018482;4.0;3.75;4.75;3.25;0.75;1.0;0.0;0.25;0.0;0.5;1.25;1.0;0.5;2.5;0.0;0.5;-0.251465;0.038086;0.973145;-0.7;-0.7;0.63;267.0;-0.168777;-0.048424
0.18;9.0;6.25;7.75;4.25;0.75;0.5;0.25;0.0;2.0;0.5;1.0;0.25;0.0;1.75;0.25;0.25;-0.230469;0.021973;0.98584;-0.7;0.49;0.49;399.0;-0.221979;0.014428;4.25;3.75;4.75;3.25;0.75;0.75;0.0;0.25;0.0;0.5;1.0;1.0;0.25;1.75;0.0;0.5;-0.254395;0.037598;0.973633;-0.7;-0.84;0.7;255.0;-0.194987;-0.045665
0.19;9.0;6.25;7.75;4.25;0.75;0.5;0.25;0.0;2.0;0.25;0.75;0.25;0.0;2.0;0.5;0.25;-0.236816;0.018555;0.983398;-0.56;0.49;0.56;398.0;-0.220264;0.015268;4.0;3.5;4.5;3.25;0.75;0.75;0.0;0.25;0.0;0.5;1.25;1.0;0.25;1.75;0.25;0.5;-0.24707;0.037598;0.969727;-0.84;-0.84;0.7;252.0;-0.177977;-0.049034
0.2;9.25;6.0;7.75;4.25;0.75;0.5;0.25;0.0;2.25;0.25;0.5;0.25;0.0;2.25;0.5;0.25;-0.22998;0.019531;0.991211;-0.56;0.49;0.49;401.0;-0.215594;0.021249;4.0;3.5;4.5;2.75;0.75;0.5;0.0;0.25;0.25;0.5;1.25;1.0;0.25;1.75;0.5;0.5;-0.249023;0.040039;0.973145;-0.77;-0.7;0.7;250.0;-0.162723;-0.037904
0.21;8.75;6.0;7.75;4.25;0.75;0.5;0.25;0.0;2.25;0.25;0.5;0.25;0.0;2.0;0.5;0.0;-0.234375;0.025391;0.98291;-0.56;0.49;0.56;392.0;-0.218782;0.020322;4.25;3.25;4.5;2.5;0.75;0.75;0.0;0.25;0.25;0.5;1.25;1.0;0.25;1.75;0.5;0.5;-0.249512;0.043945;0.973633;-0.77;-0.91;0.63;250.0;-0.161265;-0.035506
0.22;8.75;6.0;7.75;4.25;0.75;0.5;0.25;0.0;2.0;0.5;0.75;0.25;0.0;2.25;0.25;0.25;-0.237793;0.021484;0.983887;-0.7;0.56;0.49;395.0;-0.215223;0.017766;4.0;3.5;4.5;2.75;0.75;0.75;0.0;0.25;0.25;0.5;1.25;0.75;0.5;2.25;0.0;0.5;-0.254883;0.035645;0.973145;-0.77;-0.91;0.63;251.0;-0.166128;-0.036706
0.23;8.75;6.0;7.75;4.25;0.75;0.5;0.25;0.0;2.0;0.5;1.0;0.5;0.0;2.25;0.5;0.25;-0.234375;0.017578;0.98877;-0.63;0.56;0.56;404.0;-0.204645;0.01387;4.0;3.75;4.5;3.0;0.75;1.0;0.0;0.25;0.25;0.5;1.25;1.25;0.5;1.75;0.0;0.5;-0.254395;0.041992;0.967773;-0.84;-0.91;0.56;261.0;-0.171803;-0.052348
0.24;9.0;6.0;7.75;4.25;0.75;0.5;0.25;0.0;2.25;0.25;1.0;0.5;0.25;2.0;0.5;0.25;-0.23877;0.019043;0.984375;-0.56;0.56;0.56;407.0;-0.206439;0.012785;4.0;3.5;4.5;3.25;0.75;0.75;0.0;0.25;0.25;0.5;1.25;1.0;0.5;2.25;0.25;0.5;-0.250977;0.035156;0.970703;-0.77;-0.91;0.56;263.0;-0.158536;-0.044329
0.25;9.0;6.0;7.75;4.25;0.75;0.5;0.25;0.0;2.25;0.25;0.75;0.5;0.25;2.25;0.5;0.25;-0.23584;0.019531;0.985352;-0.63;0.35;0.56;407.0;-0.205946;0.014632;4.25;3.75;4.5;3.0;0.75;0.75;0.0;0.25;0.25;0.5;1.25;0.75;0.5;2.5;0.5;0.5;-0.250977;0.041016;0.967773;-0.77;-0.98;0.63;268.0;-0.155045;-0.037608
0.26;9.0;6.0;8.0;4.0;0.75;0.5;0.25;0.0;2.0;0.5;0.75;0.5;0.0;2.25;0.25;0.25;-0.239746;0.016113;0.976562;-0.77;0.49;0.49;401.0;-0.213342;0.018513;4.0;3.5;4.5;2.75;0.75;0.75;0.0;0.5;0.25;0.5;1.25;0.75;0.25;2.25;0.5;0.5;-0.254883;0.039551;0.969727;-0.84;-1.05;0.7;259.0;-0.153998;-0.039559
0.27;9.0;6.0;8.0;4.0;0.75;0.5;0.25;0.0;1.75;0.5;0.75;0.5;0.0;2.25;0.25;0.25;-0.23291;0.018066;0.985352;-0.63;0.63;0.56;397.0;-0.217571;0.01621;4.0;3.5;4.5;2.75;0.75;0.75;0.0;0.5;0.0;0.5;1.25;0.75;0.5;2.25;0.25;0.5;-0.254883;0.038086;0.970703;-0.77;-0.91;0.63;255.0;-0.163089;-0.047388
0.28;9.0;5.75;8.0;4.25;0.75;0.5;0.25;0.0;2.25;0.5;0.75;0.25;0.25;2.0;0.25;0.25;-0.237305;0.020996;0.98877;-0.63;0.56;0.49;402.0;-0.212842;0.018654;4.0;3.5;4.75;2.75;0.75;0.75;0.0;0.5;0.0;0.5;1.25;1.0;0.5;2.25;0.25;0.5;-0.251953;0.035645;0.968262;-0.63;-0.91;0.7;261.0;-0.160177;-0.048534
0.29;9.0;6.25;7.75;4.25;0.75;0.5;0.25;0.0;2.0;0.5;0.75;0.25;0.0;2.25;0.25;0.25;-0.23584;0.022949;0.98584;-0.7;0.49;0.63;400.0;-0.21782;0.017253;4.25;3.5;4.75;3.0;0.75;0.75;0.0;0.5;0.25;0.5;1.25;1.25;0.5;2.25;0.0;0.5;-0.25;0.038086;0.970703;-0.63;-0.91;0.7;270.0;-0.160712;-0.046848
0.3;9.25;6.0;7.75;4.25;0.75;0.5;0.25;0.0;1.75;0.5;0.75;0.5;0.0;2.0;0.5;0.25;-0.23291;0.023438;0.983398;-0.7;0.56;0.7;401.0;-0.21822;0.012864;4.0;3.75;4.75;3.25;0.75;0.75;0.0;0.25;0.25;0.5;1.25;1.0;0.25;2.25;0.25;0.5;-0.253418;0.037598;0.975098;-0.7;-0.84;0.77;266.0;-0.165106;-0.040261
0.31;9.25;6.0;7.75;4.25;0.75;0.5;0.25;0.0;2.0;0.25;0.75;0.5;0.0;2.25;0.25;0.25;-0.235352;0.018066;0.98291;-0.63;0.42;0.63;401.0;-0.21806;0.01647;4.0;3.75;4.5;3.0;0.75;0.75;0.0;0.25;0.25;0.5;1.25;0.75;0.25;2.5;0.5;0.5;-0.251953;0.037598;0.972656;-0.63;-0.91;0.7;262.0;-0.155281;-0.035383
0.32;9.25;5.5;7.75;4.25;0.75;0.5;0.25;0.0;2.25;0.25;0.5;0.25;0.0;2.5;0.25;0.25;-0.237793;0.025879;0.990723;-0.49;0.56;0.56;396.0;-0.213863;0.025301;4.25;3.75;4.5;3.25;0.75;0.75;0.0;0.25;0.0;0.5;1.25;1.0;0.25;2.25;0.5;0.5;-0.250488;0.039551;0.973633;-0.63;-0.84;0.84;265.0;-0.165985;-0.044854
0.33;9.25;5.75;8.0;4.25;0.75;0.5;0.25;0.0;2.0;0.25;0.75;0.5;0.0;2.5;0.25;0.0;-0.237793;0.015625;0.989746;-0.63;0.42;0.63;402.0;-0.215665;0.020314;4.25;3.75;4.5;3.0;0.75;0.75;0.0;0.5;0.0;0.5;1.0;1.25;0.5;1.75;0.0;0.5;-0.252441;0.035156;0.970703;-0.63;-0.91;0.63;258.0;-0.182317;-0.05733
0.34;9.0;6.0;8.0;4.25;0.75;0.5;0.25;0.0;2.0;0.25;0.75;0.25;0.0;2.25;0.5;0.25;-0.237305;0.02002;0.981934;-0.56;0.56;0.56;401.0;-0.215709;0.017912;4.25;3.75;4.75;2.75;0.75;0.75;0.0;0.5;0.25;0.5;1.0;0.75;0.5;1.75;0.0;0.5;-0.253906;0.043945;0.969727;-0.7;-0.84;0.7;256.0;-0.18475;-0.04364
0.35;9.0;5.5;8.0;4.25;0.75;0.5;0.25;0.0;1.75;0.25;0.75;0.25;0.0;2.25;0.25;0.25;-0.22998;0.015137;0.980957;-0.7;0.56;0.56;389.0;-0.222032;0.018676;4.25;3.75;4.75;3.25;0.75;0.75;0.0;0.25;0.25;0.5;1.0;1.0;0.5;2.0;0.5;0.5;-0.249512;0.04248;0.97168;-0.7;-0.84;0.7;269.0;-0.167721;-0.043903
0.36;9.25;6.25;8.0;4.25;0.75;0.5;0.25;0.0;2.0;0.25;0.75;0.25;0.0;2.25;0.25;0.25;-0.240723;0.027832;0.983887;-0.49;0.56;0.56;403.0;-0.22271;0.018111;4.25;3.75;4.75;3.0;0.75;1.0;0.0;0.25;0.25;0.5;1.0;1.0;0.5;2.0;0.5;0.5;-0.259766;0.040039;0.968262;-0.63;-0.91;0.7;269.0;-0.166215;-0.044418
0.37;9.25;6.25;8.0;4.25;0.75;0.5;0.25;0.0;2.0;0.0;0.75;0.25;0.0;2.25;0.25;0.25;-0.232422;0.019531;0.987305;-0.7;0.49;0.63;401.0;-0.225996;0.017786;4.25;3.75;4.5;3.0;0.75;1.0;0.0;0.5;0.25;0.5;1.0;0.75;0.5;2.25;0.5;0.5;-0.249512;0.036621;0.96582;-0.7;-0.84;0.77;270.0;-0.161739;-0.046696
0.38;9.25;6.75;8.0;4.25;0.75;0.5;0.25;0.0;1.75;0.25;0.75;0.25;0.0;2.25;0.25;0.25;-0.236328;0.018555;0.984375;-0.63;0.42;0.56;405.0;-0.229356;0.013554;4.25;3.75;4.5;3.0;0.75;1.0;0.0;0.25;0.0;0.5;1.25;0.75;0.25;1.75;0.25;0.5;-0.257324;0.037109;0.976074;-0.63;-0.98;0.7;255.0;-0.185621;-0.046195
0.39;9.0;6.25;8.0;4.0;0.75;0.5;0.25;0.0;1.75;0.25;0.75;0.25;0.0;2.0;0.25;0.0;-0.234863;0.015625;0.981934;-0.7;0.56;0.56;390.0;-0.231286;0.017282;4.0;3.5;4.75;3.0;0.75;0.75;0.0;0.5;0.25;0.5;1.0;0.75;0.25;1.75;0.25;0.5;-0.254395;0.041992;0.969238;-0.77;-0.98;0.77;254.0;-0.17784;-0.042824
0.4;9.25;6.0;8.0;4.0;0.75;0.5;0.25;0.0;2.0;0.0;0.75;0.25;0.25;2.25;0.25;0.0;-0.236816;0.018555;0.98584;-0.63;0.49;0.63;396.0;-0.224159;0.019184;4.25;3.5;4.5;3.0;0.75;0.75;0.0;0.5;0.25;0.5;1.25;0.75;0.5;1.75;0.5;0.5;-0.252441;0.042969;0.971191;-0.77;-0.98;0.7;262.0;-0.165336;-0.047709
0.41;9.25;6.25;7.25;4.25;0.75;0.5;0.25;0.0;1.75;0.0;0.75;0.25;0.0;2.5;0.5;0.25;-0.237305;0.020508;0.981934;-0.7;0.56;0.56;393.0;-0.221073;0.014004;4.25;3.5;4.5;3.0;0.75;1.0;0.0;0.5;0.25;0.5;1.25;1.0;0.5;1.75;0.25;0.5;-0.252441;0.039551;0.972168;-0.77;-0.91;0.63;265.0;-0.167316;-0.052554
0.42;9.0;6.25;7.75;4.25;0.75;0.5;0.25;0.0;2.0;0.25;0.75;0.25;0.0;2.25;0.5;0.0;-0.235352;0.02002;0.987305;-0.63;0.49;0.56;399.0;-0.218738;0.017435;4.0;3.75;4.75;3.25;0.75;0.75;0.0;0.5;0.0;0.5;1.25;1.0;0.5;2.0;0.25;0.75;-0.252441;0.038086;0.970215;-0.63;-0.98;0.77;268.0;-0.167514;-0.056999
0.43;8.75;6.25;8.0;4.25;0.75;0.5;0.25;0.0;2.25;0.25;0.5;0.25;0.0;2.25;0.5;0.0;-0.234863;0.020996;0.98584;-0.7;0.56;0.56;400.0;-0.216719;0.020587;4.0;3.5;4.75;3.25;0.75;1.0;0.0;0.5;0.0;0.5;1.25;1.0;0.5;2.25;0.5;0.5;-0.25293;0.041016;0.969238;-0.63;-0.98;0.77;273.0;-0.15692;-0.055218
0.44;9.25;6.25;7.75;4.0;0.75;0.5;0.25;0.0;2.0;0.5;0.5;0.25;0.0;2.25;0.5;0.0;-0.235352;0.019043;0.989258;-0.84;0.7;0.49;399.0;-0.219446;0.021194;4.0;3.5;4.75;3.0;0.75;1.0;0.0;0.5;0.0;0.5;1.25;0.75;0.5;1.75;0.5;0.5;-0.250488;0.041992;0.974121;-0.7;-0.91;0.7;262.0;-0.169541;-0.054758
0.45;9.25;5.75;7.75;4.25;0.75;0.5;0.25;0.0;1.75;0.25;0.75;0.25;0.0;2.25;0.5;0.0;-0.238281;0.021484;0.981445;-0.7;0.56;0.56;393.0;-0.221851;0.01811;4.0;3.5;4.75;2.75;0.75;0.75;0.0;0.5;0.0;0.5;1.25;1.0;0.5;2.0;0.5;0.5;-0.247559;0.040039;0.975586;-0.7;-0.98;0.7;261.0;-0.159037;-0.050914
0.46;9.0;6.25;7.75;4.25;0.75;0.5;0.25;0.0;1.75;0.0;0.75;0.25;0.0;2.25;0.5;0.25;-0.234375;0.02002;0.983398;-0.56;0.56;0.63;394.0;-0.224186;0.013523;4.25;3.5;4.75;3.25;0.75;0.75;0.0;0.25;0.0;0.5;1.25;1.0;0.5;2.0;0.5;0.5;-0.251465;0.038086;0.971191;-0.77;-0.91;0.7;266.0;-0.166832;-0.047799
0.47;9.25;6.25;7.75;4.0;0.75;0.5;0.25;0.0;1.75;0.25;0.75;0.25;0.0;2.0;0.25;0.25;-0.239258;0.021484;0.986328;-0.7;0.49;0.63;391.0;-0.230024;0.016131;4.5;3.5;4.75;3.25;0.75;0.75;0.0;0.25;0.0;0.5;1.25;0.5;0.5;2.0;0.5;0.5;-0.247559;0.040527;0.968262;-0.84;-0.98;0.7;263.0;-0.177609;-0.040679
0.48;9.25;6.25;7.75;4.0;0.75;0.5;0.25;0.0;1.75;0.0;0.5;0.25;0.0;2.25;0.25;0.25;-0.237793;0.020996;0.991211;-0.7;0.49;0.56;388.0;-0.232986;0.01772;4.0;3.75;4.75;3.25;0.75;0.75;0.0;0.25;0.25;0.5;1.25;0.25;0.5;2.0;0.5;0.5;-0.252441;0.044922;0.972656;-0.77;-0.98;0.7;260.0;-0.173335;-0.037995
0.49;9.0;6.0;8.0;4.0;0.75;0.5;0.25;0.0;1.75;0.25;0.5;0.25;0.25;2.5;0.25;0.25;-0.236816;0.01709;0.978027;-0.7;0.56;0.63;393.0;-0.221195;0.017206;4.25;3.75;4.75;3.25;0.75;0.75;0.0;0.25;0.0;0.5;1.0;0.75;0.5;2.0;0.5;0.5;-0.252441;0.038574;0.972168;-0.77;-0.98;0.7;263.0;-0.177626;-0.045473
0.5;9.0;6.0;7.75;4.25;0.75;0.5;0.25;0.0;1.75;0.25;0.5;0.5;0.0;2.5;0.25;0.25;-0.237793;0.019043;0.98291;-0.63;0.56;0.49;394.0;-0.220545;0.015376;4.25;4.0;4.5;3.0;0.75;1.0;0.0;0.25;0.0;0.5;1.25;0.75;0.5;2.0;0.25;0.5;-0.25293;0.036621;0.968262;-0.77;-0.91;0.7;262.0;-0.179354;-0.049098
0.51;9.25;6.25;7.75;4.0;0.75;0.25;0.25;0.0;1.75;0.5;0.5;0.5;0.25;2.5;0.0;0.25;-0.239258;0.021973;0.981445;-0.63;0.56;0.63;395.0;-0.222026;0.017094;4.25;4.0;5.0;3.25;0.75;0.75;0.0;0.25;0.0;0.5;1.25;0.5;0.5;2.0;0.0;0.5;-0.253418;0.039062;0.96582;-0.77;-0.98;0.7;262.0;-0.193573;-0.042284
0.52;9.25;6.25;7.75;4.25;0.75;0.25;0.25;0.0;1.75;0.5;0.75;0.5;0.25;2.0;0.25;0.25;-0.234863;0.02002;0.98291;-0.77;0.56;0.56;400.0;-0.222168;0.011748;4.25;3.75;5.0;3.25;0.75;1.0;0.0;0.25;0.0;0.5;1.25;0.75;0.5;1.75;0.5;0.5;-0.254395;0.04248;0.970703;-0.84;-0.98;0.63;269.0;-0.179144;-0.049132
0.53;9.25;6.25;7.75;4.25;0.75;0.25;0.25;0.0;1.75;0.25;0.5;0.5;0.0;2.0;0.25;0.25;-0.23291;0.010254;0.980957;-0.7;0.49;0.56;392.0;-0.231155;0.015148;4.25;3.5;4.75;3.0;0.75;1.0;0.0;0.25;0.0;0.5;1.25;0.75;0.25;1.75;0.0;0.5;-0.256348;0.04248;0.96582;-0.84;-0.98;0.63;253.0;-0.191014;-0.042954
0.54;9.25;6.25;7.75;4.25;0.75;0.5;0.25;0.0;2.0;0.0;0.5;0.5;0.25;2.25;0.25;0.25;-0.237305;0.018066;0.987793;-0.63;0.49;0.56;400.0;-0.223464;0.013114;4.25;3.75;4.75;3.25;0.75;1.0;0.0;0.5;0.25;0.5;1.25;0.75;0.5;2.0;0.0;0.5;-0.246094;0.038574;0.973633;-0.77;-0.98;0.7;270.0;-0.177202;-0.049043
0.55;9.25;6.25;8.0;4.0;0.75;0.5;0.25;0.0;2.0;0.25;0.5;0.25;0.25;2.25;0.0;0.0;-0.236328;0.020996;0.987793;-0.63;0.56;0.56;396.0;-0.229879;0.020036;4.25;3.5;4.75;2.75;0.75;1.0;0.0;0.25;0.0;0.5;1.0;0.75;0.5;2.25;0.25;0.5;-0.249023;0.041016;0.969727;-0.84;-0.98;0.77;257.0;-0.173613;-0.040302
0.56;9.25;6.0;8.0;4.25;0.75;0.5;0.25;0.0;1.75;0.25;0.5;0.25;0.0;2.0;0.25;0.0;-0.237793;0.021973;0.979492;-0.7;0.49;0.56;391.0;-0.235116;0.018245;4.25;3.5;4.75;2.75;0.75;1.0;0.0;0.5;0.0;0.5;1.0;0.75;0.5;2.0;0.5;0.5;-0.255859;0.037598;0.968262;-0.77;-0.98;0.77;261.0;-0.169874;-0.0483
0.57;9.25;6.25;7.75;4.25;0.75;0.5;0.25;0.0;1.75;0.25;0.5;0.25;0.0;2.0;0.25;0.0;-0.231445;0.021973;0.982422;-0.7;0.49;0.56;390.0;-0.236051;0.016499;4.25;3.5;4.75;3.25;0.75;1.0;0.0;0.5;0.0;0.5;1.0;1.0;0.25;2.25;0.5;0.5;-0.258301;0.041504;0.977051;-0.77;-0.98;0.77;270.0;-0.166399;-0.049314
0.58;9.25;6.25;7.75;4.25;0.75;0.5;0.25;0.0;1.75;0.25;0.25;0.5;0.0;1.75;0.25;0.25;-0.236816;0.020996;0.979492;-0.63;0.42;0.63;389.0;-0.237748;0.01294;4.0;3.75;4.75;3.25;0.75;0.75;0.0;0.5;0.0;0.5;1.25;1.0;0.25;1.75;0.5;0.5;-0.25;0.040527;0.969727;-0.7;-0.91;0.7;265.0;-0.172319;-0.054299
0.59;9.25;6.25;7.75;4.0;0.75;0.5;0.25;0.0;1.75;0.25;0.25;0.25;0.0;1.75;0.25;0.25;-0.23584;0.022461;0.984863;-0.7;0.49;0.56;383.0;-0.240717;0.017122;4.25;4.0;4.75;3.25;1.0;1.0;0.0;0.5;0.0;0.5;1.25;1.0;0.5;1.75;0.5;0.5;-0.251465;0.038574;0.967285;-0.77;-0.84;0.77;279.0;-0.173264;-0.058183
0.6;9.5;6.5;7.75;4.0;0.75;0.5;0.25;0.0;1.5;0.5;0.5;0.25;0.25;2.0;0.25;0.0;-0.235352;0.020996;0.985352;-0.63;0.42;0.49;394.0;-0.236625;0.012976;4.25;3.75;4.75;3.25;1.0;1.0;0.0;0.5;0.0;0.5;1.25;1.0;0.5;1.75;0.25;0.75;-0.252441;0.035645;0.963867;-0.77;-0.91;0.7;275.0;-0.174215;-0.058319
0.61;9.0;6.5;8.0;4.25;0.75;0.5;0.25;0.0;1.5;0.5;0.75;0.25;0.25;2.0;0.25;0.0;-0.23291;0.01709;0.981934;-0.84;0.56;0.56;397.0;-0.231528;0.009473;4.25;3.75;4.75;3.25;0.75;1.25;0.0;0.5;0.25;0.5;1.25;0.75;0.5;1.75;0.25;0.75;-0.253906;0.040039;0.972656;-0.77;-0.77;0.77;275.0;-0.172927;-0.055138
0.62;9.25;6.5;8.0;4.25;0.75;0.5;0.25;0.0;1.75;0.5;0.5;0.0;0.25;1.75;0.25;0.25;-0.237305;0.02002;0.987305;-0.63;0.49;0.63;397.0;-0.236405;0.013497;4.25;3.5;4.75;3.25;0.75;0.75;0.0;0.5;0.25;0.5;1.0;1.0;0.5;2.25;0.5;0.75;-0.244141;0.043945;0.980469;-0.77;-0.98;0.7;275.0;-0.155324;-0.047637
0.63;9.25;6.25;7.75;4.25;0.75;0.5;0.25;0.0;2.25;0.25;0.5;0.25;0.0;2.0;0.25;0.25;-0.23584;0.019531;0.987305;-0.56;0.49;0.49;399.0;-0.225002;0.019897;4.25;3.75;4.75;3.25;0.75;0.75;0.0;0.5;0.25;0.5;1.0;1.0;0.5;2.0;0.5;0.5;-0.253906;0.043457;0.97168;-0.84;-0.98;0.7;273.0;-0.165353;-0.049203
0.64;9.5;6.25;8.0;4.0;0.75;0.5;0.25;0.0;1.75;0.25;0.75;0.5;0.25;2.0;0.25;0.25;-0.237793;0.015625;0.981445;-0.7;0.56;0.56;403.0;-0.226032;0.012309;4.5;3.5;4.75;3.25;0.75;0.75;0.0;0.5;0.0;0.75;1.0;0.75;0.5;1.75;0.5;0.5;-0.258301;0.039551;0.967285;-0.77;-0.98;0.7;268.0;-0.175869;-0.048867
0.65;9.75;6.5;7.75;4.25;0.75;0.5;0.25;0.0;1.75;0.25;0.5;0.5;0.0;2.0;0.25;0.0;-0.233398;0.01709;0.98291;-0.63;0.63;0.49;401.0;-0.236348;0.01441;4.25;3.75;4.75;3.0;0.75;0.75;0.0;0.5;0.0;0.5;1.25;0.75;0.25;1.75;0.5;0.5;-0.256836;0.036621;0.977051;-0.77;-0.98;0.63;262.0;-0.177685;-0.04793
0.66;9.5;6.5;7.75;4.25;0.75;0.5;0.25;0.0;1.75;0.0;0.5;0.25;0.0;1.75;0.25;0.0;-0.235352;0.026855;0.98877;-0.63;0.49;0.63;390.0;-0.245758;0.014685;4.25;3.75;4.5;3.0;0.75;0.75;0.0;0.5;0.25;0.5;1.25;1.0;0.25;1.75;0.5;0.5;-0.252441;0.037109;0.969238;-0.84;-0.98;0.77;265.0;-0.166631;-0.047854
0.67;9.25;6.5;8.0;4.25;0.75;0.5;0.25;0.0;1.75;0.25;0.75;0.25;0.0;1.75;0.25;0.0;-0.236816;0.016602;0.983887;-0.63;0.49;0.63;396.0;-0.237892;0.013997;4.25;3.75;4.5;3.0;0.75;1.0;0.0;0.25;0.25;0.5;1.25;1.0;0.5;1.75;0.25;0.5;-0.24707;0.039551;0.977051;-0.91;-0.98;0.7;264.0;-0.172146;-0.048284
0.68;9.25;6.25;8.0;4.25;0.75;0.5;0.25;0.0;1.75;0.25;0.5;0.25;0.0;2.0;0.5;0.25;-0.233887;0.018555;0.985352;-0.56;0.49;0.56;398.0;-0.229413;0.015115;4.25;3.75;4.5;3.0;0.75;1.0;0.0;0.5;0.25;0.5;1.25;1.0;0.25;1.75;0.25;0.5;-0.256836;0.036621;0.970703;-0.77;-0.91;0.77;266.0;-0.172669;-0.050005
0.69;9.25;6.25;7.75;4.25;0.75;0.5;0.25;0.0;1.75;0.25;0.75;0.25;0.0;2.0;0.5;0.25;-0.236328;0.020508;0.978516;-0.77;0.56;0.56;397.0;-0.225858;0.013603;4.5;3.5;4.5;3.0;0.75;1.0;0.0;0.25;0.25;0.5;1.25;1.25;0.25;2.0;0.25;0.5;-0.255859;0.039551;0.969727;-0.63;-0.91;0.7;267.0;-0.166102;-0.042564
0.7;9.25;6.5;7.75;4.0;0.75;0.5;0.25;0.0;1.75;0.25;0.75;0.25;0.0;1.75;0.5;0.25;-0.233887;0.022461;0.988281;-0.84;0.56;0.49;395.0;-0.230365;0.013302;4.5;3.75;4.5;3.0;0.75;1.0;0.0;0.5;0.25;0.5;1.25;1.0;0.25;2.0;0.5;0.5;-0.251465;0.041016;0.973633;-0.84;-0.91;0.63;274.0;-0.164006;-0.046766
0.71;9.5;6.5;8.0;4.25;0.75;0.5;0.25;0.0;1.75;0.5;0.75;0.25;0.0;2.0;0.5;0.25;-0.233398;0.02002;0.98584;-0.7;0.56;0.56;409.0;-0.225316;0.014069;4.25;3.75;4.75;3.0;0.75;1.0;0.0;0.25;0.25;0.5;1.25;0.75;0.25;1.75;0.5;0.5;-0.257324;0.039062;0.966797;-0.84;-0.91;0.7;264.0;-0.174131;-0.040686
0.72;9.25;6.75;8.0;4.25;0.75;0.5;0.25;0.0;1.25;0.5;0.5;0.25;0.0;1.75;0.5;0.25;-0.233887;0.018555;0.981445;-0.56;0.49;0.56;396.0;-0.240964;0.007522;4.0;3.5;4.75;3.0;0.5;1.0;0.0;0.25;0.25;0.5;1.25;0.75;0.25;2.25;0.0;0.5;-0.253418;0.041016;0.974121;-0.84;-0.98;0.7;255.0;-0.172163;-0.037397
0.73;9.5;6.75;8.0;4.25;0.75;0.5;0.25;0.0;1.5;0.5;0.5;0.5;0.0;1.75;0.25;0.25;-0.234375;0.023926;0.985352;-0.7;0.49;0.49;402.0;-0.239082;0.009071;4.0;3.75;4.5;3.25;0.75;0.5;0.0;0.25;0.0;0.5;1.0;0.75;0.25;1.75;0.0;0.5;-0.256348;0.041016;0.973633;-0.84;-0.91;0.63;243.0;-0.196986;-0.043415
0.74;9.75;6.75;8.0;4.25;0.75;0.5;0.25;0.0;1.75;0.5;0.5;0.25;0.0;2.0;0.25;0.25;-0.238281;0.017578;0.98877;-0.63;0.42;0.56;408.0;-0.235337;0.0152;4.25;3.75;4.5;3.0;0.75;0.5;0.0;0.25;0.0;0.5;1.0;0.75;0.25;1.75;0.25;0.5;-0.252441;0.035645;0.972168;-0.84;-0.84;0.7;246.0;-0.191212;-0.039904
0.75;9.5;6.75;8.0;4.25;0.75;0.5;0.25;0.0;1.75;0.25;0.5;0.25;0.0;1.5;0.0;0.25;-0.237793;0.015137;0.983398;-0.63;0.49;0.56;395.0;-0.249838;0.012974;4.25;3.75;4.5;2.75;0.75;0.75;0.0;0.25;0.25;0.5;1.0;0.75;0.5;1.75;0.5;0.5;-0.249512;0.039062;0.972656;-0.84;-0.91;0.63;255.0;-0.173274;-0.040409
0.76;9.5;6.5;7.75;4.25;0.75;0.5;0.25;0.0;1.75;0.0;0.75;0.25;0.0;1.75;0.0;0.25;-0.233887;0.019531;0.985352;-0.63;0.42;0.49;392.0;-0.244802;0.013199;4.25;4.0;4.75;3.0;0.75;1.0;0.0;0.25;0.25;0.5;1.25;0.75;0.5;1.75;0.25;0.5;-0.255371;0.036621;0.974121;-0.77;-0.91;0.63;266.0;-0.179649;-0.045147
0.77;9.75;6.0;7.75;4.25;0.75;0.5;0.25;0.0;1.75;0.25;0.5;0.25;0.0;2.0;0.25;0.25;-0.237793;0.015625;0.983887;-0.63;0.42;0.56;395.0;-0.235057;0.01775;4.25;3.5;4.5;3.25;0.75;0.75;0.0;0.25;0.0;0.5;1.25;1.0;0.25;2.0;0.0;0.5;-0.25;0.040039;0.976074;-0.84;-0.98;0.77;255.0;-0.181687;-0.044842
0.78;9.0;6.5;8.0;4.25;0.75;0.5;0.25;0.0;1.75;0.25;0.5;0.0;0.0;1.75;0.25;0.25;-0.233398;0.018555;0.978027;-0.63;0.42;0.63;389.0;-0.24113;0.015309;4.25;3.5;4.75;3.25;0.75;0.5;0.0;0.25;0.25;0.5;1.25;0.75;0.5;2.0;0.0;0.5;-0.257324;0.040039;0.969727;-0.84;-0.91;0.77;258.0;-0.1781;-0.0372
0.79;9.25;6.75;8.0;4.25;0.75;0.5;0.25;0.0;1.75;0.25;0.75;0.25;0.0;2.0;0.5;0.25;-0.234863;0.02002;0.982422;-0.56;0.42;0.56;405.0;-0.228528;0.011938;4.25;3.75;4.75;3.25;0.75;0.75;0.0;0.25;0.25;0.5;1.0;1.0;0.5;1.75;0.25;0.5;-0.251465;0.037598;0.969238;-0.84;-0.98;0.7;264.0;-0.179074;-0.045436
0.8;9.75;6.75;8.0;4.25;0.75;0.5;0.25;0.0;1.5;0.25;0.5;0.25;0.0;2.0;0.25;0.0;-0.236328;0.02002;0.98584;-0.7;0.56;0.49;400.0;-0.245314;0.013756;4.25;3.75;4.75;3.25;0.75;0.75;0.0;0.5;0.25;0.75;1.25;0.75;0.5;1.75;0.0;0.5;-0.249512;0.038574;0.972168;-0.77;-1.05;0.7;268.0;-0.178158;-0.047325
0.81;9.75;6.5;8.0;4.25;0.75;0.5;0.25;0.0;1.75;0.5;0.5;0.25;0.0;2.0;0.25;0.25;-0.243652;0.023926;0.98584;-0.84;0.42;0.63;406.0;-0.234211;0.016327;4.25;3.5;4.75;3.25;0.75;0.75;0.0;0.25;0.0;0.5;1.25;1.0;0.5;1.75;0.0;0.5;-0.251953;0.039551;0.97168;-0.84;-0.98;0.7;258.0;-0.184823;-0.049065
0.82;9.5;6.75;8.0;4.25;0.75;0.5;0.25;0.0;1.5;0.25;0.5;0.25;0.0;2.0;0.25;0.25;-0.233887;0.021484;0.984863;-0.63;0.56;0.56;399.0;-0.241944;0.011865;4.25;3.75;4.75;3.25;0.75;0.75;0.0;0.25;0.0;0.5;1.0;0.75;0.5;1.75;0.5;0.5;-0.256836;0.042969;0.972168;-0.84;-0.98;0.77;260.0;-0.18289;-0.047463
0.83;9.5;6.75;8.0;4.25;0.75;0.5;0.25;0.0;1.75;0.25;0.5;0.25;0.0;1.75;0.25;0.0;-0.23584;0.018066;0.986328;-0.77;0.42;0.56;399.0;-0.243523;0.014463;4.25;3.5;4.75;3.0;0.75;0.75;0.0;0.25;0.0;0.5;1.0;0.5;0.5;2.0;0.5;0.5;-0.25293;0.039062;0.972656;-0.77;-0.84;0.77;254.0;-0.178341;-0.039325
0.84;9.75;6.75;8.0;4.25;0.75;0.5;0.25;0.0;1.75;0.0;0.75;0.25;0.0;1.75;0.25;0.25;-0.23584;0.023438;0.981934;-0.77;0.56;0.63;403.0;-0.242506;0.012647;4.25;3.5;4.75;3.25;0.75;0.75;0.0;0.25;0.0;0.5;1.0;0.5;0.5;1.75;0.0;0.5;-0.25293;0.039551;0.971191;-0.7;-0.91;0.77;249.0;-0.198642;-0.042594
0.85;9.5;6.75;8.0;4.25;0.75;0.5;0.25;0.0;1.5;0.0;0.5;0.25;0.0;1.75;0.0;0.0;-0.234375;0.016602;0.98877;-0.7;0.56;0.63;389.0;-0.256439;0.012427;4.25;3.75;4.75;3.25;0.75;0.75;0.0;0.25;0.0;0.5;1.25;0.75;0.5;1.75;0.0;0.5;-0.250488;0.044434;0.972168;-0.7;-0.84;0.63;257.0;-0.191498;-0.047451
0.86;9.75;6.75;7.75;4.25;0.75;0.5;0.25;0.0;1.75;0.25;0.5;0.25;0.0;1.75;0.25;0.0;-0.237793;0.017578;0.98291;-0.63;0.63;0.63;398.0;-0.244489;0.014562;4.25;3.75;4.75;3.0;0.75;1.0;0.0;0.25;0.25;0.5;1.0;0.5;0.5;1.75;0.0;0.5;-0.253906;0.035156;0.970703;-0.77;-0.91;0.63;255.0;-0.192834;-0.039916
0.87;9.75;6.75;8.0;4.25;0.75;0.5;0.25;0.0;1.75;0.25;0.5;0.25;0.25;1.75;0.25;0.25;-0.233887;0.019043;0.984863;-0.56;0.35;0.56;405.0;-0.240032;0.011158;4.5;3.75;4.5;2.75;0.75;1.0;0.0;0.25;0.25;0.5;1.0;0.5;0.5;1.75;0.0;0.5;-0.25293;0.037598;0.974121;-0.84;-0.84;0.63;252.0;-0.19319;-0.037608
0.88;9.5;6.75;8.0;4.25;0.75;0.5;0.25;0.0;1.75;0.0;0.25;0.25;0.25;1.75;0.5;0.25;-0.237793;0.023438;0.980957;-0.7;0.49;0.7;400.0;-0.240983;0.010331;4.25;3.75;4.5;2.75;0.75;1.0;0.0;0.25;0.25;0.5;1.0;0.75;0.5;1.75;0.25;0.5;-0.248535;0.041016;0.970215;-0.77;-0.91;0.84;255.0;-0.17956;-0.042652
0.89;9.75;6.5;8.0;4.25;0.75;0.5;0.25;0.0;1.75;0.25;0.5;0.25;0.0;2.0;0.5;0.0;-0.237305;0.022949;0.98291;-0.77;0.63;0.49;404.0;-0.235176;0.016503;4.5;3.75;4.5;3.0;0.75;0.75;0.0;0.25;0.0;0.75;1.0;0.5;0.5;1.75;0.25;0.5;-0.252441;0.041016;0.970703;-0.77;-0.84;0.77;254.0;-0.189484;-0.04082
0.9;9.5;6.5;8.0;4.5;0.75;0.5;0.25;0.0;1.5;0.25;0.5;0.25;0.0;2.0;0.25;0.0;-0.238281;0.017578;0.98584;-0.63;0.56;0.56;398.0;-0.243424;0.012421;4.0;3.75;4.75;3.0;0.75;0.75;0.0;0.5;0.0;0.5;1.0;0.5;0.25;1.75;0.5;0.5;-0.251953;0.041016;0.970703;-0.84;-0.84;0.7;253.0;-0.184117;-0.046096
0.91;9.5;6.5;8.0;4.5;0.75;0.5;0.25;0.0;1.75;0.25;0.5;0.25;0.25;1.75;0.0;0.25;-0.235352;0.021484;0.982422;-0.63;0.42;0.63;400.0;-0.242761;0.010484;4.0;3.75;4.75;3.0;0.75;0.75;0.0;0.25;0.25;0.5;1.0;0.75;0.25;1.75;0.0;0.5;-0.25293;0.038574;0.970215;-0.77;-0.91;0.77;250.0;-0.189717;-0.037804
0.92;9.75;6.5;8.0;4.5;0.75;0.5;0.25;0.0;1.75;0.25;0.5;0.25;0.0;1.75;0.25;0.25;-0.239258;0.017578;0.983887;-0.63;0.42;0.7;403.0;-0.241672;0.013271;4.25;3.75;4.75;3.25;0.75;0.75;0.0;0.25;0.0;0.5;1.0;0.75;0.25;1.75;0.0;0.5;-0.249512;0.038086;0.970703;-0.77;-0.84;0.7;252.0;-0.1996;-0.042808
0.93;9.5;6.75;8.25;4.25;0.75;0.5;0.25;0.0;1.75;0.25;0.75;0.25;0.0;1.25;0.25;0.25;-0.229492;0.015625;0.980957;-0.63;0.56;0.56;401.0;-0.245704;0.011004;4.25;3.5;4.5;3.25;0.75;0.75;0.0;0.25;0.0;0.5;1.0;0.75;0.25;1.75;0.0;0.5;-0.257324;0.039062;0.970703;-0.77;-0.98;0.63;247.0;-0.196568;-0.043181
0.94;9.25;6.5;8.0;4.25;0.75;0.5;0.25;0.0;1.75;0.0;0.5;0.25;0.0;1.25;0.25;0.25;-0.234375;0.024902;0.985352;-0.7;0.63;0.56;387.0;-0.250334;0.011374;4.25;3.5;4.5;3.25;0.75;0.75;0.0;0.25;0.0;0.5;1.25;0.75;0.25;1.75;0.25;0.5;-0.25;0.039062;0.974609;-0.77;-0.84;0.77;252.0;-0.184919;-0.044448
0.95;9.5;6.5;8.0;4.25;0.75;0.5;0.25;0.0;1.75;0.25;0.5;0.25;0.0;1.5;0.25;0.25;-0.23291;0.023438;0.980469;-0.63;0.63;0.49;395.0;-0.244008;0.013426;4.25;3.75;4.75;3.25;0.75;0.75;0.0;0.25;0.25;0.5;1.25;1.0;0.5;1.75;0.0;0.5;-0.252441;0.038574;0.966797;-0.7;-0.91;0.7;264.0;-0.181058;-0.045801
0.96;9.75;6.5;8.0;4.25;0.75;0.5;0.25;0.0;1.5;0.25;0.5;0.25;0.0;1.5;0.25;0.25;-0.234863;0.025391;0.989258;-0.49;0.42;0.63;395.0;-0.249686;0.011746;4.0;3.75;4.75;3.0;0.75;0.75;0.0;0.25;0.0;0.5;1.25;1.0;0.25;2.0;0.25;0.5;-0.252441;0.04248;0.967285;-0.7;-0.91;0.77;257.0;-0.174748;-0.044448
0.97;9.75;6.75;8.0;4.5;0.75;0.75;0.25;0.0;1.5;0.25;0.75;0.5;0.0;1.75;0.25;0.25;-0.235352;0.016113;0.984863;-0.63;0.56;0.56;411.0;-0.240018;0.004764;4.25;4.0;4.5;3.25;0.75;0.75;0.0;0.25;0.0;0.5;1.0;1.0;0.25;1.5;0.0;0.5;-0.256836;0.038574;0.974609;-0.7;-0.91;0.7;252.0;-0.201939;-0.050555
0.98;9.5;7.0;8.0;4.25;0.75;0.5;0.25;0.0;1.5;0.25;0.75;0.25;0.25;1.5;0.25;0.25;-0.231934;0.018555;0.980957;-0.56;0.35;0.56;402.0;-0.24486;0.005153;4.25;3.75;4.5;3.25;0.75;0.75;0.0;0.25;0.0;0.75;1.0;1.0;0.5;1.75;0.0;0.5;-0.25;0.043457;0.969727;-0.7;-0.91;0.7;257.0;-0.186005;-0.049861
0.99;9.5;6.75;8.0;4.25;0.75;0.5;0.25;0.0;1.5;0.25;0.5;0.0;0.0;1.5;0.25;0.25;-0.242676;0.020996;0.991699;-0.56;0.49;0.56;391.0;-0.253028;0.012164;4.25;3.5;4.75;3.0;0.75;1.0;0.0;0.25;0.25;0.5;1.25;1.0;0.5;1.75;0.0;0.5;-0.247559;0.041016;0.969727;-0.77;-0.84;0.77;261.0;-0.177237;-0.045171
1.0;10.0;6.75;8.0;4.25;0.75;0.5;0.25;0.0;1.75;0.25;0.5;0.25;0.0;1.75;0.0;0.25;-0.236816;0.021973;0.982422;-0.63;0.35;0.63;403.0;-0.248178;0.01527;4.25;3.75;4.5;3.0;0.75;0.75;0.0;0.25;0.25;0.5;1.0;1.0;0.5;1.75;0.25;0.5;-0.253418;0.040039;0.966309;-0.7;-0.98;0.63;258.0;-0.176791;-0.044943
1.01;9.5;6.75;8.0;4.25;0.75;0.5;0.25;0.0;1.75;0.25;0.5;0.25;0.25;1.75;0.25;0.25;-0.229004;0.017578;0.988281;-0.56;0.49;0.7;403.0;-0.238885;0.010471;4.5;3.75;4.75;3.25;0.75;0.75;0.0;0.25;0.0;0.5;1.25;1.0;0.25;1.75;0.25;0.5;-0.253418;0.035156;0.973633;-0.84;-0.91;0.7;264.0;-0.186105;-0.045166
1.02;9.5;6.75;8.0;4.25;0.75;0.5;0.25;0.0;1.75;0.25;0.75;0.25;0.0;1.75;0.0;0.25;-0.23877;0.020996;0.981445;-0.56;0.28;0.63;400.0;-0.242596;0.013009;4.5;3.75;4.75;3.25;0.75;0.75;0.0;0.25;0.0;0.5;1.0;0.75;0.5;1.75;0.25;0.5;-0.253906;0.040039;0.971191;-0.77;-0.91;0.7;260.0;-0.191789;-0.045382
1.03;9.75;6.75;8.0;4.25;0.75;0.75;0.25;0.0;1.5;0.0;0.75;0.25;0.0;1.75;0.0;0.25;-0.233398;0.018555;0.987793;-0.63;0.42;0.56;400.0;-0.250963;0.008859;4.5;3.75;4.75;3.0;0.75;0.75;0.0;0.25;0.0;0.25;1.0;0.75;0.5;1.75;0.25;0.25;-0.255371;0.039062;0.96875;-0.7;-0.91;0.7;253.0;-0.198744;-0.042912
1.04;9.75;6.75;8.0;4.25;0.75;0.5;0.25;0.0;1.75;0.0;0.75;0.25;0.25;1.75;0.25;0.25;-0.231445;0.016602;0.975586;-0.63;0.49;0.56;405.0;-0.240114;0.009892;4.25;3.75;4.5;3.25;0.75;1.0;0.0;0.5;0.0;0.25;1.25;1.0;0.5;1.75;0.25;0.25;-0.248535;0.040527;0.970215;-0.77;-0.91;0.77;263.0;-0.184218;-0.059842
1.05;9.5;6.75;8.0;4.25;0.75;0.5;0.25;0.0;1.75;0.25;0.75;0.25;0.25;2.0;0.25;0.25;-0.231934;0.02002;0.98584;-0.56;0.35;0.56;408.0;-0.231915;0.010537;4.5;3.5;4.75;3.0;0.75;1.0;0.0;0.5;0.0;0.5;1.0;1.0;0.5;1.5;0.25;0.5;-0.25;0.039062;0.970215;-0.84;-0.91;0.63;262.0;-0.186188;-0.054966
1.06;9.5;6.5;7.75;4.25;0.75;0.5;0.25;0.0;1.75;0.25;0.75;0.25;0.25;2.0;0.25;0.25;-0.234863;0.022949;0.98291;-0.63;0.49;0.63;402.0;-0.230503;0.011048;4.25;3.75;5.0;3.0;0.75;0.75;0.0;0.5;0.25;0.5;1.25;0.75;0.25;1.75;0.5;0.5;-0.250488;0.037598;0.969727;-0.84;-0.98;0.7;269.0;-0.172903;-0.042081
1.07;9.75;6.75;8.0;4.25;0.75;0.5;0.25;0.0;1.5;0.25;0.75;0.0;0.0;1.75;0.0;0.25;-0.234863;0.02002;0.981934;-0.56;0.49;0.56;397.0;-0.251525;0.013582;4.25;3.75;4.75;3.0;0.75;0.75;0.0;0.5;0.0;0.5;0.75;0.75;0.25;1.75;0.5;0.5;-0.25;0.037598;0.976074;-0.77;-0.91;0.7;256.0;-0.186694;-0.046413
1.08;9.75;6.75;8.0;4.25;0.75;0.5;0.25;0.0;1.75;0.25;0.75;0.25;0.0;2.0;0.0;0.25;-0.238281;0.013184;0.986816;-0.49;0.42;0.7;405.0;-0.239965;0.014622;4.25;3.75;4.5;3.0;0.75;0.75;0.0;0.25;0.0;0.25;1.0;1.0;0.25;1.75;0.5;0.5;-0.251953;0.041504;0.975098;-0.77;-0.91;0.7;252.0;-0.184233;-0.047232
1.09;10.0;6.75;7.75;4.5;0.75;0.5;0.25;0.0;2.0;0.25;0.75;0.25;0.0;1.75;0.25;0.25;-0.230957;0.02002;0.98291;-0.63;0.49;0.49;412.0;-0.23611;0.013637;4.25;4.25;4.75;2.75;0.75;1.0;0.0;0.25;0.0;0.25;1.25;1.0;0.25;1.75;0.5;0.5;-0.249023;0.03418;0.963867;-0.84;-0.84;0.7;263.0;-0.183629;-0.049203
1.1;10.0;6.5;8.0;4.5;0.75;0.5;0.25;0.0;1.75;0.25;0.75;0.0;0.0;1.75;0.25;0.25;-0.234863;0.01709;0.980957;-0.56;0.56;0.63;406.0;-0.242703;0.015221;4.25;3.75;4.75;3.25;0.75;0.75;0.0;0.25;0.25;0.5;1.0;1.0;0.25;1.75;0.25;0.5;-0.256348;0.037109;0.966797;-0.84;-0.98;0.7;262.0;-0.182212;-0.04169
1.11;9.75;6.5;8.0;4.25;0.75;0.25;0.25;0.0;1.75;0.25;0.5;0.25;0.0;1.75;0.25;0.25;-0.231934;0.02002;0.986816;-0.49;0.49;0.56;398.0;-0.241995;0.017208;4.25;3.75;4.5;3.0;0.75;0.75;0.0;0.25;0.0;0.5;1.0;0.75;0.5;1.75;0.5;0.5;-0.253906;0.036621;0.96582;-0.7;-0.91;0.7;254.0;-0.180665;-0.047011
1.12;10.0;6.75;8.25;4.25;0.75;0.25;0.25;0.0;1.5;0.25;0.5;0.25;0.0;1.75;0.25;0.0;-0.234375;0.02002;0.986816;-0.56;0.49;0.49;401.0;-0.251083;0.01618;4.25;3.75;4.5;2.75;0.75;0.75;0.0;0.25;0.0;0.5;1.25;0.75;0.5;1.75;0.5;0.5;-0.256836;0.040039;0.975098;-0.77;-1.05;0.77;254.0;-0.174828;-0.045688
1.13;9.75;6.5;8.0;4.25;0.75;0.5;0.25;0.0;1.5;0.25;0.75;0.25;0.0;1.75;0.25;0.0;-0.230957;0.020508;0.991211;-0.63;0.49;0.49;398.0;-0.24468;0.013008;4.5;3.75;4.5;3.25;0.75;0.75;0.0;0.25;0.0;0.25;1.0;0.75;0.5;1.75;0.5;0.5;-0.250488;0.039551;0.96582;-0.77;-0.84;0.7;257.0;-0.189011;-0.048596
1.14;9.5;6.75;8.0;4.25;0.75;0.5;0.25;0.0;1.75;0.25;0.5;0.25;0.25;1.75;0.25;0.25;-0.230469;0.020996;0.987305;-0.63;0.56;0.49;403.0;-0.238885;0.010471;4.25;3.75;4.75;3.25;0.75;0.75;0.0;0.25;0.0;0.25;1.0;0.75;0.5;1.75;0.25;0.5;-0.25;0.040039;0.970215;-0.77;-0.91;0.7;255.0;-0.194264;-0.048316
1.15;9.75;6.75;8.0;4.25;0.75;0.5;0.25;0.0;1.75;0.25;0.5;0.5;0.0;1.5;0.25;0.25;-0.233398;0.019043;0.981934;-0.77;0.7;0.42;404.0;-0.242968;0.010765;4.25;3.5;4.5;3.25;0.75;0.5;0.0;0.25;0.0;0.5;1.0;0.75;0.5;1.75;0.25;0.5;-0.25293;0.041016;0.970215;-0.7;-0.91;0.7;249.0;-0.186678;-0.044843
1.16;9.75;7.0;8.0;4.5;0.75;0.5;0.25;0.0;1.75;0.5;0.5;0.25;0.0;1.75;0.25;0.25;-0.23584;0.02002;0.972656;-0.63;0.49;0.56;411.0;-0.240485;0.011422;4.25;3.5;4.5;3.25;0.75;0.5;0.0;0.25;0.0;0.25;1.25;0.75;0.5;1.75;0.5;0.5;-0.253418;0.041992;0.973145;-0.77;-0.91;0.77;252.0;-0.180047;-0.047303
1.17;9.75;7.0;8.25;4.5;0.75;0.5;0.25;0.0;1.5;0.25;0.5;0.25;0.0;1.75;0.25;0.25;-0.23291;0.02002;0.987305;-0.63;0.49;0.56;408.0;-0.248377;0.009334;4.5;3.5;4.5;3.0;0.75;0.75;0.0;0.25;0.0;0.25;1.0;0.75;0.5;1.75;0.5;0.5;-0.250977;0.045898;0.973145;-0.84;-0.91;0.77;252.0;-0.185559;-0.045319
1.18;9.5;6.75;7.75;4.25;0.75;0.5;0.25;0.0;1.75;0.25;0.5;0.25;0.25;1.75;0.25;0.25;-0.23584;0.020508;0.977051;-0.56;0.49;0.63;399.0;-0.238682;0.00987;4.5;3.75;4.5;3.0;0.75;0.5;0.0;0.5;0.0;0.5;1.0;0.75;0.5;1.75;0.5;0.5;-0.25;0.044434;0.96875;-0.7;-0.98;0.7;258.0;-0.180717;-0.04826
1.19;9.75;6.75;7.75;4.25;0.75;0.5;0.25;0.0;1.75;0.25;0.5;0.0;0.0;2.0;0.25;0.25;-0.234375;0.016602;0.985352;-0.56;0.49;0.56;399.0;-0.241699;0.016533;4.25;3.75;4.5;3.25;0.75;0.75;0.0;0.25;0.25;0.75;1.0;0.75;0.5;1.75;0.5;0.5;-0.256836;0.040527;0.973145;-0.77;-0.84;0.7;264.0;-0.171414;-0.04348
1.2;9.75;6.75;8.0;4.25;0.75;0.5;0.25;0.0;1.75;0.25;0.75;0.25;0.0;2.0;0.25;0.25;-0.229492;0.021973;0.980957;-0.49;0.49;0.56;408.0;-0.235418;0.013942;4.25;3.75;4.75;3.0;0.75;1.0;0.0;0.25;0.25;0.5;1.0;0.75;0.5;1.75;0.5;0.5;-0.250488;0.038086;0.974121;-0.77;-0.91;0.77;264.0;-0.175402;-0.043627
1.21;9.5;6.75;8.0;4.25;0.75;0.5;0.25;0.0;1.5;0.5;0.75;0.25;0.0;1.5;0.25;0.25;-0.241211;0.02002;0.987793;-0.49;0.35;0.49;400.0;-0.242768;0.009397;4.25;3.75;4.5;3.0;0.75;1.0;0.0;0.25;0.0;0.5;1.0;1.0;0.5;2.0;0.5;0.5;-0.254395;0.033203;0.981445;-0.63;-0.84;0.63;262.0;-0.170819;-0.050315
1.22;9.75;6.75;8.0;4.25;0.75;0.5;0.25;0.0;1.75;0.5;0.75;0.25;0.25;1.75;0.25;0.25;-0.232422;0.015137;0.980957;-0.56;0.42;0.56;411.0;-0.233469;0.010639;4.0;3.75;4.5;3.0;0.75;1.0;0.0;0.25;0.0;0.5;1.0;0.75;0.5;1.75;0.5;0.5;-0.247559;0.036133;0.96875;-0.77;-0.91;0.7;254.0;-0.177857;-0.051386
1.23;9.5;6.5;7.75;4.25;0.75;0.5;0.25;0.0;1.75;0.25;0.5;0.25;0.0;1.75;0.0;0.25;-0.23291;0.020508;0.98584;-0.49;0.56;0.49;392.0;-0.244718;0.014509;4.25;3.75;4.5;3.0;0.75;0.75;0.0;0.25;0.0;0.5;1.25;0.75;0.5;1.75;0.5;0.5;-0.251465;0.039062;0.970215;-0.7;-0.98;0.7;257.0;-0.176142;-0.047778
1.24;9.5;6.75;7.75;4.25;0.75;0.5;0.25;0.0;1.5;0.25;0.5;0.25;0.0;2.0;0.0;0.25;-0.235352;0.019531;0.982422;-0.49;0.49;0.56;393.0;-0.246499;0.011951;4.25;3.5;4.5;3.25;0.75;0.5;0.0;0.25;0.0;0.5;1.25;0.75;0.5;1.75;0.5;0.5;-0.256348;0.035645;0.973145;-0.77;-0.91;0.7;255.0;-0.175353;-0.046062
1.25;8.75;6.75;8.0;4.25;0.75;0.5;0.25;0.0;1.75;0.25;0.5;0.25;0.25;1.75;0.25;0.25;-0.236328;0.013672;0.98584;-0.56;0.35;0.56;394.0;-0.235343;0.008351;4.25;3.5;4.5;3.0;0.75;0.75;0.0;0.25;0.25;0.5;1.25;0.75;0.5;1.75;0.5;0.5;-0.251953;0.038574;0.970215;-0.63;-0.84;0.7;258.0;-0.167804;-0.04216
1.26;9.25;6.75;8.0;4.5;0.75;0.5;0.25;0.0;1.75;0.25;0.5;0.25;0.0;1.75;0.25;0.25;-0.233887;0.01709;0.98291;-0.56;0.56;0.49;400.0;-0.240489;0.01079;4.0;3.5;4.5;3.0;1.0;0.75;0.0;0.25;0.25;0.5;1.25;1.0;0.5;1.75;0.25;0.5;-0.255859;0.037598;0.97168;-0.63;-0.91;0.63;258.0;-0.166916;-0.044996
1.27;9.5;6.5;8.0;4.25;0.75;0.5;0.25;0.0;1.75;0.25;0.5;0.25;0.0;2.0;0.0;0.25;-0.235352;0.016113;0.984375;-0.63;0.35;0.56;397.0;-0.241036;0.016037;4.0;3.5;4.5;2.75;0.75;0.75;0.0;0.25;0.25;0.5;1.25;1.0;0.5;1.75;0.0;0.5;-0.250488;0.039551;0.970215;-0.63;-0.84;0.63;250.0;-0.172568;-0.043686
1.28;9.75;6.5;8.25;4.25;0.75;0.5;0.25;0.0;1.5;0.25;0.5;0.0;0.0;2.0;0.25;0.25;-0.231934;0.021973;0.990234;-0.56;0.42;0.49;399.0;-0.245418;0.016488;4.25;3.75;4.5;3.0;0.75;0.75;0.0;0.25;0.25;0.75;1.0;0.75;0.5;2.0;0.25;0.5;-0.255371;0.041992;0.972656;-0.77;-0.91;0.7;260.0;-0.171244;-0.03899
1.29;9.5;6.75;8.0;4.25;0.75;0.5;0.25;0.0;1.75;0.25;0.5;0.0;0.0;2.0;0.25;0.25;-0.23584;0.016602;0.982422;-0.49;0.49;0.63;400.0;-0.240736;0.016434;4.25;3.5;4.5;3.25;0.75;0.75;0.0;0.25;0.25;0.75;1.0;1.0;0.5;2.0;0.5;0.5;-0.258789;0.039551;0.976074;-0.56;-0.84;0.63;266.0;-0.159891;-0.043121
1.3;9.25;6.75;8.0;4.25;0.75;0.5;0.25;0.0;1.75;0.0;0.5;0.25;0.0;1.75;0.25;0.25;-0.23877;0.016113;0.989746;-0.49;0.42;0.56;395.0;-0.243595;0.012198;4.0;3.5;4.5;3.0;0.5;0.75;0.0;0.25;0.25;0.5;1.25;1.0;0.5;1.75;0.25;0.75;-0.249023;0.041992;0.969727;-0.7;-0.84;0.63;254.0;-0.164824;-0.049077
1.31;9.25;6.5;8.0;4.25;0.75;0.5;0.25;0.0;1.75;0.0;0.75;0.25;0.0;2.0;0.25;0.25;-0.229004;0.02002;0.98584;-0.63;0.42;0.56;397.0;-0.235281;0.013374;4.0;3.5;4.75;2.75;0.75;1.0;0.0;0.25;0.0;0.5;1.0;1.0;0.5;1.75;0.25;0.75;-0.251465;0.039062;0.96875;-0.7;-0.84;0.77;253.0;-0.17432;-0.050461
1.32;9.5;6.5;8.0;4.25;0.75;0.5;0.25;0.0;1.75;0.25;0.75;0.5;0.0;1.75;0.25;0.25;-0.229004;0.01416;0.978027;-0.56;0.56;0.49;403.0;-0.233662;0.011245;4.0;3.5;4.5;2.75;0.75;0.75;0.0;0.25;0.0;0.5;1.0;1.0;0.5;2.25;0.5;0.5;-0.256348;0.037109;0.979004;-0.63;-0.91;0.7;253.0;-0.159274;-0.044174
1.33;9.5;6.5;8.0;4.25;0.75;0.5;0.25;0.0;1.75;0.25;0.5;0.25;0.0;1.75;0.25;0.25;-0.237305;0.019531;0.986816;-0.63;0.56;0.49;398.0;-0.240176;0.014386;4.25;3.5;4.5;2.75;0.75;1.0;0.0;0.25;0.0;0.5;1.25;1.0;0.5;2.0;0.25;0.5;-0.25293;0.040527;0.967773;-0.63;-0.84;0.77;257.0;-0.169083;-0.047516
1.34;9.5;6.5;8.0;4.25;0.75;0.5;0.25;0.0;1.75;0.25;0.5;0.25;0.0;2.25;0.25;0.25;-0.237305;0.017578;0.977539;-0.63;0.56;0.56;402.0;-0.232643;0.016271;4.0;3.5;4.5;2.75;1.0;0.75;0.0;0.25;0.25;0.5;1.25;1.0;0.5;1.75;0.25;0.5;-0.250977;0.035156;0.972656;-0.56;-0.84;0.7;255.0;-0.1655;-0.042884
1.35;9.25;6.5;8.0;4.0;0.75;0.5;0.25;0.0;1.75;0.25;0.75;0.25;0.0;2.0;0.25;0.25;-0.230469;0.02002;0.988281;-0.49;0.56;0.56;397.0;-0.231481;0.015535;4.0;3.5;4.25;2.75;0.75;0.75;0.0;0.5;0.25;0.25;1.25;1.0;0.5;1.75;0.5;0.5;-0.249512;0.038574;0.966309;-0.63;-0.91;0.7;254.0;-0.160328;-0.053079
1.36;9.5;6.5;7.75;4.25;0.75;0.5;0.25;0.0;1.75;0.25;0.5;0.25;0.0;2.0;0.25;0.0;-0.234375;0.020996;0.982422;-0.56;0.49;0.49;395.0;-0.238399;0.015996;4.0;3.5;4.25;3.0;0.75;0.75;0.0;0.25;0.0;0.25;1.25;1.0;0.5;1.75;0.5;0.5;-0.250488;0.037109;0.969727;-0.63;-0.84;0.63;249.0;-0.170329;-0.054187
1.37;9.5;6.5;8.0;4.25;0.75;0.5;0.25;0.0;1.75;0.25;0.5;0.25;0.0;2.0;0.25;0.0;-0.230957;0.019531;0.979492;-0.63;0.56;0.56;399.0;-0.238606;0.016557;4.0;3.5;4.5;2.75;0.5;0.75;0.0;0.25;0.0;0.5;1.25;1.0;0.5;2.25;0.5;0.75;-0.253906;0.04248;0.969238;-0.7;-0.77;0.7;255.0;-0.15233;-0.047788
1.38;9.25;6.5;7.75;4.25;0.75;0.25;0.25;0.0;1.75;0.0;0.5;0.25;0.0;2.0;0.5;0.25;-0.239258;0.016602;0.984863;-0.7;0.56;0.56;391.0;-0.234339;0.015205;4.25;3.5;4.5;2.75;0.75;0.75;0.0;0.5;0.0;0.5;1.25;1.0;0.5;2.25;0.25;0.5;-0.248047;0.035156;0.973633;-0.77;-0.84;0.7;260.0;-0.161584;-0.048438
1.39;9.25;6.25;8.0;4.0;0.75;0.5;0.25;0.0;1.75;0.0;0.5;0.25;0.0;2.0;0.25;0.25;-0.240234;0.015137;0.989258;-0.63;0.56;0.63;389.0;-0.237095;0.017326;4.25;3.5;4.5;2.5;0.75;0.75;0.0;0.25;0.25;0.5;1.0;1.0;0.5;2.0;0.25;0.5;-0.249023;0.039062;0.970215;-0.77;-0.91;0.7;252.0;-0.166314;-0.037389
1.4;9.5;6.25;8.25;4.0;0.75;0.5;0.25;0.0;1.75;0.0;0.5;0.25;0.0;2.0;0.25;0.0;-0.237305;0.019043;0.98291;-0.7;0.49;0.49;393.0;-0.240763;0.01979;4.0;3.5;4.5;2.75;0.75;0.75;0.0;0.25;0.25;0.5;1.25;1.0;0.5;2.0;0.5;0.5;-0.24707;0.040039;0.971191;-0.7;-0.98;0.7;258.0;-0.15438;-0.042548
1.41;9.25;6.5;8.0;4.25;0.75;0.5;0.25;0.0;1.75;0.0;0.5;0.25;0.0;2.0;0.25;0.0;-0.230469;0.01416;0.98877;-0.63;0.42;0.56;393.0;-0.240886;0.015549;4.0;3.5;4.5;2.75;0.75;0.75;0.0;0.5;0.25;0.5;1.25;1.0;0.5;2.0;0.5;0.5;-0.253418;0.041992;0.969727;-0.77;-1.05;0.63;262.0;-0.15212;-0.048103
1.42;9.25;6.75;8.0;4.25;0.75;0.5;0.25;0.0;1.75;0.25;0.25;0.25;0.0;2.0;0.25;0.0;-0.239258;0.020508;0.980957;-0.63;0.63;0.56;395.0;-0.241923;0.015689;4.0;3.5;4.5;2.75;0.75;0.75;0.0;0.5;0.0;0.5;1.25;0.75;0.5;2.25;0.5;0.5;-0.253418;0.041016;0.969727;-0.7;-0.98;0.63;258.0;-0.156738;-0.047775
1.43;9.5;6.75;8.25;4.25;0.75;0.5;0.25;0.0;1.5;0.25;0.5;0.25;0.0;2.0;0.25;0.0;-0.231934;0.019531;0.984375;-0.7;0.49;0.56;400.0;-0.244351;0.013659;4.25;3.5;4.5;2.75;0.75;1.0;0.0;0.5;0.25;0.5;1.25;0.75;0.5;2.25;0.5;0.5;-0.251953;0.045898;0.973145;-0.7;-1.05;0.7;267.0;-0.153766;-0.044308
1.44;9.75;6.75;8.25;4.25;0.75;0.25;0.25;0.0;1.75;0.25;0.25;0.25;0.0;2.0;0.25;0.25;-0.23584;0.018555;0.985352;-0.63;0.49;0.63;403.0;-0.242816;0.018477;4.25;3.5;4.5;2.75;0.75;1.0;0.0;0.5;0.0;0.5;1.5;1.0;0.5;2.25;0.5;0.5;-0.25;0.039062;0.96875;-0.7;-0.91;0.7;269.0;-0.151301;-0.051995
1.45;9.5;6.5;8.0;4.25;0.75;0.5;0.25;0.0;1.75;0.25;0.5;0.0;0.0;2.0;0.25;0.25;-0.234863;0.019043;0.97998;-0.7;0.49;0.56;397.0;-0.23962;0.017593;4.0;3.75;4.5;2.75;0.75;1.0;0.0;0.25;0.0;0.5;1.5;1.0;0.5;2.0;0.5;0.75;-0.25293;0.037109;0.968262;-0.77;-0.84;0.7;264.0;-0.155417;-0.052937
1.46;9.25;6.5;8.0;4.25;0.75;0.5;0.25;0.0;2.0;0.25;0.5;0.25;0.0;2.0;0.25;0.25;-0.236816;0.01709;0.983887;-0.49;0.42;0.63;401.0;-0.230811;0.016984;4.0;3.5;4.25;2.75;0.75;1.0;0.0;0.25;0.25;0.25;1.5;1.0;0.5;2.25;0.25;1.0;-0.254395;0.040039;0.969238;-0.84;-0.91;0.63;260.0;-0.148453;-0.049386
1.47;9.25;6.25;8.0;4.25;0.75;0.5;0.25;0.0;2.0;0.25;0.5;0.25;0.0;2.0;0.25;0.0;-0.230957;0.023438;0.980957;-0.63;0.42;0.56;397.0;-0.231838;0.019382;4.0;3.5;4.5;2.75;0.75;0.75;0.0;0.5;0.25;0.25;1.25;1.0;0.5;2.25;0.5;0.5;-0.252441;0.044922;0.978027;-0.77;-0.77;0.7;261.0;-0.151373;-0.047315
1.48;9.5;6.25;8.0;4.25;0.75;0.5;0.25;0.0;2.0;0.25;0.5;0.25;0.0;2.25;0.25;0.0;-0.236328;0.021973;0.979492;-0.7;0.42;0.56;402.0;-0.229323;0.020927;4.0;3.5;4.5;2.75;0.75;0.75;0.0;0.25;0.0;0.5;1.25;1.0;0.25;2.25;0.0;0.5;-0.251953;0.041504;0.972168;-0.77;-0.84;0.63;248.0;-0.171047;-0.040164
1.49;9.25;6.5;8.0;4.25;0.75;0.5;0.25;0.0;1.75;0.5;0.75;0.25;0.0;2.25;0.25;0.25;-0.234375;0.016602;0.98291;-0.63;0.63;0.49;405.0;-0.224896;0.015025;4.25;3.25;4.5;2.75;0.75;1.0;0.0;0.25;0.0;0.5;1.25;1.0;0.25;2.25;0.0;0.5;-0.251465;0.044922;0.969238;-0.7;-0.84;0.77;252.0;-0.170975;-0.039977
1.5;9.25;6.5;8.0;4.25;0.75;0.5;0.25;0.0;1.75;0.25;0.75;0.25;0.0;2.25;0.25;0.25;-0.231934;0.012695;0.984375;-0.63;0.56;0.49;402.0;-0.228183;0.01468;4.0;3.5;4.5;2.75;0.75;0.75;0.0;0.25;0.25;0.5;1.25;1.0;0.25;2.25;0.25;0.5;-0.25293;0.038086;0.976562;-0.77;-0.91;0.7;255.0;-0.158532;-0.03622
1.51;9.25;6.5;8.0;4.25;0.75;0.5;0.25;0.0;1.75;0.0;0.5;0.25;0.0;1.75;0.25;0.25;-0.235352;0.024414;0.984375;-0.7;0.56;0.56;392.0;-0.242483;0.013344;4.0;3.5;4.5;2.75;0.75;0.75;0.0;0.5;0.25;0.5;1.25;1.0;0.5;2.0;0.5;0.5;-0.251465;0.038086;0.972656;-0.77;-0.91;0.7;262.0;-0.15212;-0.048103
1.52;9.25;6.5;8.0;4.25;0.75;0.5;0.25;0.0;1.75;0.25;0.25;0.25;0.0;1.75;0.25;0.0;-0.240234;0.018555;0.981934;-0.63;0.56;0.56;391.0;-0.244686;0.015899;4.0;3.5;4.5;2.75;0.75;1.0;0.0;0.5;0.25;0.5;1.25;1.25;0.5;2.5;0.5;0.5;-0.25293;0.038086;0.96875;-0.77;-0.91;0.77;272.0;-0.138671;-0.049329
1.53;9.25;6.5;8.25;4.25;0.75;0.5;0.25;0.0;1.75;0.25;0.5;0.0;0.0;2.0;0.25;0.0;-0.229492;0.02002;0.984863;-0.63;0.63;0.56;396.0;-0.240895;0.018732;4.25;3.5;4.5;2.75;0.75;1.0;0.0;0.5;0.25;0.5;1.25;1.0;0.5;2.5;0.25;0.5;-0.25293;0.039062;0.972168;-0.77;-0.84;0.63;269.0;-0.150981;-0.044682
1.54;9.25;6.5;8.25;4.25;0.75;0.5;0.25;0.0;1.75;0.0;0.5;0.25;0.0;2.25;0.25;0.25;-0.238281;0.02002;0.988281;-0.63;0.56;0.63;400.0;-0.235049;0.015833;4.0;3.5;4.5;2.75;0.75;0.75;0.0;0.25;0.0;0.5;1.5;1.0;0.5;2.5;0.25;0.5;-0.253906;0.036133;0.970703;-0.77;-0.91;0.63;259.0;-0.151905;-0.043348
1.55;9.25;6.75;8.0;4.25;0.75;0.5;0.25;0.0;1.75;0.0;0.5;0.25;0.0;2.25;0.25;0.25;-0.235352;0.019043;0.984863;-0.63;0.49;0.56;399.0;-0.235964;0.014123;4.0;3.5;4.5;2.75;0.75;0.75;0.0;0.5;0.0;0.5;1.25;1.0;0.25;2.5;0.5;0.5;-0.251465;0.041016;0.972168;-0.77;-0.91;0.7;260.0;-0.150569;-0.044767
1.56;9.75;6.5;8.0;4.25;0.75;0.5;0.25;0.0;1.75;0.25;1.0;0.25;0.0;1.75;0.25;0.25;-0.232422;0.029297;0.983398;-0.7;0.56;0.56;406.0;-0.234749;0.01321;4.0;3.5;4.5;2.5;0.75;0.75;0.0;0.5;0.0;0.5;1.25;1.0;0.25;2.0;0.5;0.5;-0.253906;0.038574;0.969238;-0.63;-0.77;0.77;253.0;-0.159288;-0.046717
1.57;9.5;6.5;8.0;4.25;0.75;0.5;0.25;0.0;1.75;0.25;0.75;0.25;0.0;1.75;0.25;0.25;-0.239258;0.019531;0.980469;-0.63;0.56;0.63;401.0;-0.236847;0.013455;4.0;3.5;4.25;2.75;0.75;0.75;0.0;0.5;0.0;0.75;1.25;1.0;0.5;2.0;0.5;0.5;-0.254395;0.037598;0.973633;-0.7;-0.84;0.56;258.0;-0.152117;-0.052964
1.58;9.5;6.5;8.0;4.25;0.75;0.5;0.25;0.0;2.0;0.25;0.5;0.5;0.0;2.25;0.25;0.25;-0.236328;0.020508;0.974609;-0.63;0.42;0.63;409.0;-0.225251;0.016327;4.0;3.5;4.25;2.75;0.75;0.75;0.0;0.5;0.25;0.5;1.25;1.0;0.5;2.5;0.5;0.75;-0.248047;0.039551;0.96875;-0.77;-0.91;0.7;265.0;-0.138046;-0.047211
1.59;9.5;6.75;8.0;4.25;0.75;0.5;0.25;0.0;2.0;0.25;0.75;0.25;0.0;2.0;0.25;0.25;-0.227051;0.018555;0.984863;-0.63;0.49;0.56;409.0;-0.229956;0.015563;4.25;3.5;4.5;2.75;0.75;1.0;0.0;0.5;0.25;0.5;1.25;1.0;0.25;2.5;0.5;0.5;-0.254883;0.042969;0.974121;-0.7;-0.98;0.77;270.0;-0.147843;-0.041442
1.6;9.75;6.5;8.25;4.25;0.75;0.5;0.25;0.0;2.0;0.25;0.5;0.25;0.0;2.0;0.25;0.25;-0.23584;0.018066;0.98584;-0.77;0.7;0.56;409.0;-0.233453;0.018793;4.0;3.5;4.5;2.5;0.75;1.0;0.0;0.5;0.0;0.5;1.5;1.0;0.5;2.5;0.5;0.5;-0.253418;0.041016;0.969727;-0.7;-0.91;0.7;266.0;-0.142151;-0.04975
1.61;9.25;6.25;8.0;4.25;0.75;0.5;0.25;0.0;2.0;0.25;0.5;0.25;0.0;2.0;0.25;0.25;-0.23291;0.02002;0.984375;-0.56;0.7;0.42;398.0;-0.229635;0.018143;4.25;3.25;4.5;2.75;0.75;0.75;0.0;0.25;0.0;0.5;1.25;1.0;0.5;2.5;0.25;0.5;-0.254883;0.038574;0.973633;-0.7;-0.77;0.63;256.0;-0.156296;-0.039648
1.62;9.25;6.5;8.0;4.25;0.75;0.5;0.25;0.0;1.75;0.25;0.5;0.5;0.0;1.75;0.25;0.25;-0.233398;0.02002;0.981934;-0.56;0.49;0.49;398.0;-0.23576;0.011465;4.0;3.25;4.25;2.75;0.75;0.75;0.0;0.25;0.0;0.5;1.25;1.0;0.5;2.5;0.25;0.5;-0.258301;0.041992;0.966309;-0.77;-0.98;0.63;250.0;-0.152172;-0.042899
1.63;9.25;6.5;8.0;4.25;0.75;0.5;0.25;0.0;1.5;0.25;0.25;0.25;0.0;2.0;0.25;0.25;-0.234863;0.019043;0.986816;-0.63;0.49;0.49;391.0;-0.243073;0.013246;4.25;3.25;4.25;2.5;0.75;0.75;0.0;0.25;0.0;0.5;1.25;1.0;0.5;2.5;0.5;0.5;-0.251465;0.037109;0.966309;-0.84;-0.98;0.7;253.0;-0.147031;-0.039488
1.64;9.5;6.5;8.5;4.25;0.75;0.5;0.25;0.0;1.75;0.25;0.25;0.5;0.0;2.0;0.0;0.25;-0.234375;0.016113;0.992188;-0.56;0.35;0.63;403.0;-0.241501;0.01585;4.25;3.25;4.25;2.75;0.75;0.75;0.0;0.25;0.25;0.5;1.25;1.0;0.5;2.5;0.5;0.5;-0.248047;0.03418;0.970703;-0.77;-0.98;0.7;259.0;-0.143094;-0.037305
1.65;9.5;6.75;8.0;4.25;0.75;0.25;0.25;0.0;2.0;0.25;0.25;0.25;0.0;2.0;0.25;0.25;-0.233887;0.022949;0.984863;-0.56;0.35;0.56;400.0;-0.237048;0.019585;4.25;3.25;4.25;2.5;0.75;0.75;0.0;0.5;0.25;0.5;1.25;1.0;0.5;2.25;0.75;0.5;-0.251953;0.040039;0.969727;-0.91;-1.05;0.7;261.0;-0.138246;-0.043206
1.66;9.5;6.75;8.0;4.25;0.75;0.25;0.25;0.0;2.0;0.25;0.5;0.25;0.25;2.0;0.25;0.25;-0.230469;0.020508;0.98291;-0.63;0.56;0.56;405.0;-0.231422;0.015835;4.25;3.25;4.5;2.5;0.75;0.75;0.0;0.25;0.25;0.5;1.5;1.0;0.5;2.25;0.5;0.75;-0.25;0.041504;0.975586;-0.84;-1.12;0.7;262.0;-0.140913;-0.038011
1.67;9.5;6.75;8.25;4.25;0.75;0.25;0.25;0.0;2.0;0.25;0.5;0.25;0.25;2.0;0.25;0.25;-0.228516;0.02002;0.983887;-0.63;0.49;0.63;409.0;-0.231677;0.016383;4.25;3.5;4.5;2.75;0.75;0.75;0.0;0.5;0.25;0.5;1.5;0.75;0.25;2.0;0.5;0.5;-0.247559;0.041016;0.975098;-0.77;-1.05;0.7;262.0;-0.15756;-0.040714
1.68;9.75;6.5;8.25;4.25;0.75;0.5;0.25;0.0;1.75;0.5;1.0;0.25;0.0;2.25;0.25;0.25;-0.231445;0.016113;0.983398;-0.56;0.49;0.49;417.0;-0.224522;0.015945;4.25;3.5;4.5;2.75;0.75;0.75;0.0;0.5;0.25;0.5;1.5;0.75;0.25;2.25;0.5;0.5;-0.249512;0.034668;0.972168;-0.84;-0.91;0.7;264.0;-0.152555;-0.038797
1.69;9.5;6.75;8.0;4.25;0.75;0.5;0.25;0.0;1.75;0.25;0.75;0.25;0.0;2.0;0.25;0.25;-0.237305;0.015137;0.986816;-0.49;0.56;0.63;405.0;-0.234246;0.01328;4.5;3.5;4.5;2.75;0.75;0.75;0.0;0.5;0.0;0.75;1.25;1.0;0.5;2.25;0.5;0.75;-0.253906;0.039062;0.974121;-0.84;-0.91;0.63;270.0;-0.150996;-0.047422
1.7;9.5;6.25;8.0;4.25;0.75;0.5;0.25;0.0;2.0;0.0;0.75;0.25;0.25;2.0;0.25;0.25;-0.236328;0.024414;0.987305;-0.49;0.56;0.56;403.0;-0.228606;0.014707;4.25;3.75;4.5;2.75;0.75;0.75;0.0;0.25;0.0;0.5;1.25;1.0;0.5;2.25;0.5;0.75;-0.253418;0.037109;0.973145;-0.77;-0.91;0.7;263.0;-0.157251;-0.045993
1.71;9.25;6.25;8.0;4.0;0.75;0.5;0.25;0.0;1.75;0.25;0.75;0.25;0.0;2.0;0.25;0.25;-0.237793;0.015625;0.98584;-0.63;0.63;0.63;395.0;-0.230298;0.016696;4.0;3.5;4.5;2.75;0.75;0.75;0.0;0.25;0.0;0.5;1.25;1.0;0.5;2.25;0.5;0.75;-0.248535;0.036133;0.973633;-0.77;-0.77;0.49;258.0;-0.152015;-0.046518
1.72;9.5;6.5;8.25;4.25;0.75;0.5;0.25;0.0;1.75;0.0;0.5;0.25;0.0;2.0;0.5;0.25;-0.231445;0.016113;0.976074;-0.49;0.49;0.7;403.0;-0.23539;0.014857;4.25;3.25;4.25;2.5;0.75;0.75;0.0;0.25;0.25;0.5;1.25;1.0;0.5;2.25;0.5;0.5;-0.249512;0.033203;0.967285;-0.77;-0.84;0.63;254.0;-0.146466;-0.037056
1.73;9.75;6.5;8.25;4.25;0.75;0.5;0.25;0.0;1.75;0.0;0.5;0.25;0.0;2.0;0.5;0.25;-0.23877;0.02002;0.983887;-0.56;0.49;0.56;406.0;-0.23656;0.015513;4.0;3.5;4.5;2.75;0.75;0.75;0.0;0.25;0.25;0.5;1.25;1.0;0.5;2.5;0.5;0.5;-0.258301;0.040527;0.973633;-0.77;-0.84;0.84;262.0;-0.14434;-0.038648
1.74;9.5;6.25;8.0;4.25;0.75;0.5;0.25;0.0;1.75;0.25;0.5;0.25;0.0;1.75;0.5;0.25;-0.236328;0.019043;0.990723;-0.56;0.42;0.63;398.0;-0.234393;0.014833;3.75;3.5;4.5;2.5;0.75;0.75;0.0;0.25;0.25;0.5;1.25;1.0;0.5;2.0;0.5;0.5;-0.255859;0.038086;0.97168;-0.77;-1.05;0.7;252.0;-0.149997;-0.042078
1.75;9.5;6.75;8.25;4.25;0.75;0.5;0.25;0.0;1.75;0.25;0.5;0.25;0.0;2.0;0.25;0.25;-0.23877;0.020508;0.97998;-0.49;0.35;0.63;406.0;-0.237726;0.014762;4.25;3.25;4.5;2.75;0.75;1.0;0.0;0.25;0.0;0.5;1.25;1.0;0.5;2.25;0.5;0.5;-0.254395;0.040527;0.970703;-0.77;-1.05;0.63;260.0;-0.15511;-0.044733
1.76;9.5;6.5;8.25;4.25;0.75;0.5;0.25;0.0;1.75;0.25;0.5;0.5;0.25;2.0;0.25;0.25;-0.231445;0.022461;0.986816;-0.56;0.49;0.63;408.0;-0.231121;0.010938;4.25;3.25;4.25;2.75;0.75;1.0;0.0;0.25;0.0;0.5;1.25;0.75;0.5;2.5;0.5;0.5;-0.248535;0.036621;0.972656;-0.91;-0.91;0.7;256.0;-0.152741;-0.041488
1.77;9.5;6.5;8.0;4.25;0.75;0.5;0.25;0.0;2.0;0.0;0.5;0.25;0.0;2.25;0.25;0.25;-0.234863;0.017578;0.98877;-0.49;0.56;0.56;403.0;-0.23164;0.018224;4.0;3.25;4.25;2.75;0.75;1.0;0.0;0.25;0.25;0.5;1.25;0.75;0.5;2.5;0.5;0.5;-0.250488;0.032715;0.967773;-0.91;-0.91;0.77;257.0;-0.144281;-0.038745
1.78;9.25;6.75;8.0;4.25;0.75;0.5;0.25;0.0;1.75;0.25;0.5;0.25;0.0;2.25;0.25;0.25;-0.239258;0.02002;0.984375;-0.56;0.56;0.56;402.0;-0.232595;0.014475;4.5;3.25;4.25;2.5;0.75;1.0;0.0;0.25;0.0;0.5;1.25;1.0;0.5;2.5;0.5;0.5;-0.254883;0.038086;0.975098;-0.84;-0.91;0.77;259.0;-0.149892;-0.04055
1.79;9.5;6.5;8.0;4.25;0.75;0.5;0.25;0.0;1.5;0.25;0.5;0.25;0.0;2.25;0.25;0.25;-0.23291;0.022949;0.986328;-0.63;0.42;0.56;399.0;-0.237029;0.013956;4.5;3.5;4.25;2.5;0.75;1.0;0.0;0.25;0.0;0.5;1.25;1.0;0.5;2.5;0.5;0.5;-0.251465;0.035156;0.970703;-0.7;-0.98;0.63;261.0;-0.152466;-0.041761
1.8;9.75;6.5;8.0;4.25;0.75;0.5;0.25;0.0;1.75;0.5;0.5;0.25;0.0;2.25;0.5;0.0;-0.237793;0.020996;0.986328;-0.56;0.49;0.63;409.0;-0.228201;0.017747;4.25;3.5;4.5;2.75;0.75;1.0;0.0;0.25;0.0;0.75;1.25;1.0;0.5;2.75;0.5;0.5;-0.253418;0.039062;0.973145;-0.84;-1.05;0.77;270.0;-0.143607;-0.040893
1.81;9.5;6.25;8.0;4.25;0.75;0.5;0.25;0.0;1.75;0.25;0.5;0.25;0.0;2.0;0.5;0.0;-0.235352;0.020508;0.979492;-0.7;0.49;0.56;399.0;-0.232837;0.017002;4.25;3.5;4.5;2.75;0.75;1.0;0.0;0.5;0.25;0.75;1.5;1.0;0.5;2.75;0.75;0.75;-0.250977;0.039551;0.966309;-0.77;-0.98;0.63;285.0;-0.124769;-0.044654
1.82;9.5;6.5;8.25;4.25;0.75;0.5;0.25;0.0;1.75;0.0;0.75;0.25;0.0;2.0;0.25;0.25;-0.233887;0.019531;0.979492;-0.7;0.56;0.56;403.0;-0.236689;0.014619;4.25;3.5;4.5;2.75;0.75;1.0;0.0;0.5;0.0;0.75;1.5;1.0;0.5;2.5;0.25;0.5;-0.254395;0.039551;0.970215;-0.77;-0.98;0.7;271.0;-0.148278;-0.048499
1.83;9.25;6.75;8.25;4.25;0.75;0.5;0.25;0.0;1.75;0.0;0.75;0.25;0.0;2.0;0.25;0.0;-0.239258;0.019043;0.981934;-0.63;0.63;0.56;401.0;-0.238849;0.014031;4.25;3.5;4.5;2.75;0.75;0.75;0.0;0.5;0.0;0.75;1.25;1.0;0.5;2.5;0.25;0.75;-0.253418;0.041992;0.96875;-0.84;-0.84;0.63;267.0;-0.149421;-0.046748
1.84;9.5;6.75;8.0;4.25;0.75;0.5;0.25;0.0;1.75;0.25;0.75;0.25;0.0;2.0;0.25;0.0;-0.234375;0.021973;0.988281;-0.63;0.63;0.63;404.0;-0.236428;0.014479;4.25;3.5;4.5;2.75;0.75;0.75;0.0;0.25;0.25;0.75;1.5;1.0;0.5;2.5;0.0;0.5;-0.250977;0.042969;0.970703;-0.77;-0.84;0.7;265.0;-0.150922;-0.035866
1.85;9.75;6.5;8.0;4.25;0.75;0.5;0.25;0.0;1.75;0.25;0.5;0.25;0.25;2.0;0.25;0.0;-0.233887;0.018555;0.980957;-0.63;0.56;0.56;404.0;-0.237381;0.014415;4.5;3.25;4.5;2.5;0.75;1.0;0.0;0.5;0.0;0.75;1.25;1.0;0.5;2.25;0.0;0.75;-0.250488;0.04248;0.969238;-0.7;-0.84;0.63;262.0;-0.159111;-0.04605
1.86;9.5;6.5;8.0;4.25;0.75;0.25;0.25;0.0;1.5;0.25;0.25;0.5;0.25;2.0;0.5;0.25;-0.234863;0.01709;0.991211;-0.56;0.7;0.56;399.0;-0.234506;0.010335;4.25;3.5;4.5;2.75;0.75;1.0;0.0;0.5;0.0;0.75;1.25;1.0;0.25;2.5;0.5;1.0;-0.253906;0.038086;0.978516;-0.7;-0.84;0.63;272.0;-0.143567;-0.047456
1.87;9.25;6.75;8.0;4.25;0.75;0.25;0.25;0.0;1.5;0.25;0.25;0.5;0.0;1.75;0.25;0.25;-0.23291;0.020508;0.97998;-0.63;0.49;0.56;391.0;-0.245444;0.01101;4.25;3.5;4.5;2.75;0.75;0.75;0.0;0.25;0.0;0.5;1.25;1.0;0.25;2.5;0.0;0.75;-0.250488;0.039551;0.968262;-0.77;-0.84;0.63;255.0;-0.16522;-0.038114
1.88;9.5;6.5;8.0;4.25;0.75;0.5;0.25;0.0;1.75;0.25;0.5;0.5;0.0;1.75;0.25;0.25;-0.234375;0.016602;0.986328;-0.63;0.49;0.49;401.0;-0.236944;0.012153;4.25;3.5;4.25;2.75;0.75;1.0;0.0;0.5;0.0;0.5;1.5;1.0;0.5;2.5;0.0;0.5;-0.251465;0.041504;0.969727;-0.7;-0.91;0.7;263.0;-0.15719;-0.050947
1.89;9.5;6.5;8.25;4.25;0.75;0.5;0.25;0.0;1.75;0.25;0.5;0.25;0.0;1.75;0.25;0.25;-0.234375;0.020996;0.983398;-0.63;0.42;0.56;401.0;-0.240368;0.014955;4.25;3.0;4.5;2.75;1.0;1.0;0.0;0.5;0.25;0.5;1.25;1.0;0.5;2.25;0.25;0.5;-0.252441;0.036133;0.970703;-0.7;-0.84;0.77;265.0;-0.150574;-0.043119
1.9;9.5;6.5;8.25;4.25;0.75;0.25;0.25;0.0;1.75;0.25;0.5;0.25;0.0;2.0;0.0;0.25;-0.230469;0.015137;0.976562;-0.77;0.56;0.49;397.0;-0.241888;0.018763;4.25;3.5;4.5;2.75;0.75;1.0;0.0;0.5;0.25;0.5;1.25;0.75;0.5;2.5;0.25;0.5;-0.254395;0.04248;0.969727;-0.7;-0.98;0.63;266.0;-0.154871;-0.041967
1.91;9.5;6.75;8.25;4.25;0.75;0.5;0.25;0.0;1.75;0.25;0.5;0.25;0.0;2.0;0.25;0.25;-0.235352;0.019531;0.986816;-0.7;0.56;0.49;406.0;-0.237726;0.014762;4.25;3.5;4.5;2.75;1.0;1.0;0.0;0.5;0.25;0.75;1.25;1.0;0.5;2.5;0.5;0.5;-0.255859;0.040039;0.96875;-0.7;-0.91;0.63;278.0;-0.140942;-0.042814
1.92;9.75;6.75;8.25;4.25;0.75;0.5;0.25;0.0;1.75;0.25;0.5;0.25;0.0;2.0;0.25;0.25;-0.230469;0.020508;0.982422;-0.56;0.49;0.56;408.0;-0.238874;0.015414;4.5;3.5;4.5;2.75;0.75;0.75;0.0;0.25;0.25;0.75;1.25;0.75;0.5;2.5;0.5;0.75;-0.251953;0.041016;0.973633;-0.7;-0.91;0.7;269.0;-0.146721;-0.033228
1.93;9.5;6.25;8.0;4.25;0.75;0.5;0.25;0.0;1.75;0.25;0.5;0.25;0.0;2.0;0.0;0.25;-0.22998;0.02002;0.981445;-0.63;0.56;0.49;395.0;-0.239914;0.0172;4.0;3.5;4.5;2.75;0.75;0.75;0.0;0.5;0.25;0.5;1.25;1.0;0.5;2.5;0.5;0.5;-0.25;0.040039;0.974121;-0.7;-0.84;0.7;266.0;-0.142277;-0.044168
1.94;9.25;6.5;8.0;4.25;0.75;0.5;0.25;0.0;1.75;0.25;0.5;0.0;0.0;2.25;0.0;0.25;-0.234863;0.02002;0.979004;-0.7;0.56;0.63;394.0;-0.23931;0.018607;4.0;3.25;4.5;2.75;0.75;1.0;0.0;0.5;0.25;0.5;1.25;1.0;0.5;2.25;0.5;0.75;-0.249512;0.038086;0.975586;-0.56;-0.77;0.7;266.0;-0.141833;-0.049006
1.95;9.25;6.5;8.0;4.25;0.75;0.5;0.25;0.0;1.75;0.25;0.25;0.25;0.0;1.75;0.25;0.0;-0.233398;0.019531;0.981445;-0.56;0.56;0.49;391.0;-0.244686;0.015899;4.0;3.5;4.5;2.75;0.75;0.75;0.0;0.25;0.25;0.5;1.25;1.0;0.5;2.25;0.5;0.75;-0.251465;0.042969;0.974609;-0.7;-0.84;0.7;261.0;-0.146428;-0.042128
1.96;9.5;6.25;8.25;4.25;0.75;0.5;0.25;0.0;2.0;0.25;0.25;0.25;0.0;2.0;0.25;0.0;-0.22998;0.017578;0.981934;-0.63;0.49;0.63;400.0;-0.236584;0.021516;4.25;3.5;4.25;2.5;0.75;0.75;0.0;0.5;0.25;0.75;1.25;1.0;0.5;2.75;0.5;0.75;-0.250977;0.040527;0.978027;-0.63;-0.91;0.7;270.0;-0.13044;-0.040495
1.97;9.5;6.25;8.0;4.25;0.75;0.5;0.25;0.0;2.0;0.0;0.5;0.25;0.0;2.0;0.25;0.25;-0.237793;0.021484;0.982422;-0.49;0.49;0.49;398.0;-0.234224;0.018461;4.25;3.25;4.25;2.5;0.75;0.75;0.0;0.5;0.25;0.75;1.25;1.0;0.5;2.5;0.5;0.75;-0.246582;0.037109;0.968262;-0.63;-0.98;0.7;265.0;-0.132476;-0.041212
1.98;9.25;6.25;8.0;4.25;0.75;0.5;0.25;0.0;2.0;0.0;0.5;0.25;0.0;2.25;0.0;0.25;-0.235352;0.019531;0.979004;-0.49;0.42;0.63;395.0;-0.233869;0.01948;4.0;3.0;4.25;2.5;0.75;1.0;0.0;0.5;0.25;0.75;1.5;1.0;0.5;2.5;0.5;0.5;-0.251465;0.043457;0.973145;-0.7;-0.91;0.63;264.0;-0.125965;-0.043519
1.99;9.25;6.25;8.0;4.25;0.75;0.5;0.25;0.0;2.0;0.25;0.75;0.5;0.0;1.75;0.25;0.25;-0.231934;0.021484;0.979492;-0.56;0.49;0.56;402.0;-0.226956;0.014013;4.0;3.25;4.5;2.5;0.75;0.75;0.0;0.5;0.25;0.75;1.5;1.0;0.5;2.5;0.5;0.5;-0.247559;0.041504;0.971191;-0.77;-0.91;0.7;267.0;-0.130017;-0.040599
2.0;9.5;6.25;8.25;4.25;0.75;0.5;0.25;0.0;2.0;0.25;0.5;0.25;0.25;2.0;0.25;0.25;-0.23584;0.023926;0.986328;-0.56;0.56;0.63;406.0;-0.228801;0.016529;4.0;3.0;4.25;2.5;0.75;0.75;0.0;0.5;0.25;0.5;1.5;1.0;0.5;2.5;0.5;0.5;-0.257812;0.038574;0.969727;-0.63;-0.84;0.7;258.0;-0.129697;-0.042059
2.01;9.25;6.25;8.0;4.25;0.75;0.5;0.25;0.0;2.25;0.0;0.5;0.25;0.0;2.0;0.0;0.25;-0.233398;0.021484;0.980469;-0.63;0.63;0.49;396.0;-0.233231;0.020853;4.0;3.0;4.25;2.5;0.75;0.75;0.0;0.5;0.25;0.5;1.5;1.0;0.5;2.5;0.5;0.75;-0.25293;0.040039;0.970215;-0.7;-0.77;0.7;260.0;-0.126902;-0.043607
2.02;9.25;6.25;7.75;4.25;0.75;0.25;0.25;0.0;2.0;0.25;0.5;0.25;0.25;2.25;0.25;0.25;-0.232422;0.013672;0.987305;-0.56;0.63;0.56;397.0;-0.223816;0.017866;4.0;3.25;4.25;2.5;0.75;1.0;0.0;0.5;0.0;0.5;1.25;1.25;0.5;2.75;0.75;0.5;-0.251465;0.037598;0.97168;-0.7;-0.77;0.7;265.0;-0.127488;-0.050561
2.03;9.25;6.25;8.0;4.25;0.75;0.25;0.25;0.0;1.75;0.25;0.5;0.25;0.25;2.25;0.25;0.25;-0.236328;0.018555;0.991211;-0.49;0.63;0.56;396.0;-0.22847;0.016101;4.0;3.0;4.25;2.5;1.0;1.0;0.0;0.25;0.0;0.5;1.25;1.0;0.5;2.75;0.5;0.75;-0.255859;0.040527;0.973145;-0.63;-0.84;0.7;257.0;-0.13341;-0.04102
2.04;9.25;6.25;8.0;4.25;0.75;0.25;0.25;0.0;1.75;0.25;0.5;0.0;0.25;2.25;0.25;0.25;-0.233887;0.021484;0.974609;-0.56;0.49;0.56;393.0;-0.231674;0.018387;4.25;3.0;4.25;2.5;0.75;0.75;0.0;0.25;0.25;0.75;1.25;1.0;0.5;2.5;0.5;0.75;-0.247559;0.044922;0.973633;-0.56;-0.91;0.63;258.0;-0.131641;-0.034341
2.05;9.25;6.0;8.0;4.25;0.75;0.5;0.25;0.0;2.0;0.0;0.75;0.25;0.0;2.0;0.25;0.25;-0.238281;0.018066;0.990723;-0.7;0.63;0.42;396.0;-0.228528;0.018019;4.25;3.25;4.25;2.5;0.75;1.0;0.0;0.5;0.25;0.5;1.25;1.0;0.5;2.5;0.5;0.75;-0.253418;0.039062;0.967285;-0.63;-0.91;0.63;265.0;-0.136697;-0.044938
2.06;9.25;6.25;8.0;4.0;0.75;0.5;0.25;0.0;2.0;0.25;0.5;0.25;0.0;2.0;0.25;0.25;-0.238281;0.016602;0.984863;-0.63;0.42;0.49;395.0;-0.229196;0.019987;4.25;3.0;4.25;2.75;0.75;0.75;0.0;0.5;0.0;0.75;1.25;1.25;0.5;2.5;0.5;0.5;-0.252441;0.038574;0.972656;-0.63;-0.91;0.7;263.0;-0.135843;-0.047647
2.07;9.25;6.25;8.0;4.0;0.75;0.5;0.25;0.0;2.0;0.5;0.5;0.25;0.0;2.0;0.5;0.25;-0.237305;0.023438;0.983887;-0.7;0.49;0.56;401.0;-0.221314;0.019568;4.0;3.0;4.25;2.75;0.75;0.75;0.0;0.25;0.0;0.5;1.25;1.0;0.5;2.5;0.25;0.5;-0.250977;0.040527;0.969727;-0.63;-0.91;0.63;248.0;-0.149481;-0.041645
2.08;9.25;6.25;8.0;4.25;0.75;0.25;0.25;0.0;2.0;0.5;0.5;0.25;0.0;2.0;0.25;0.25;-0.237305;0.018066;0.981934;-0.63;0.63;0.63;398.0;-0.226857;0.020645;4.0;3.25;4.25;2.5;1.0;0.75;0.0;0.5;0.25;0.5;1.25;1.0;0.75;2.75;0.25;0.5;-0.250977;0.044922;0.972656;-0.63;-0.91;0.63;263.0;-0.134662;-0.042645
2.09;9.25;6.25;8.0;4.25;0.75;0.25;0.25;0.0;2.25;0.5;0.75;0.25;0.25;2.25;0.0;0.25;-0.241699;0.01709;0.98584;-0.7;0.63;0.56;406.0;-0.217944;0.020745;4.25;3.0;4.5;2.5;1.0;1.0;0.0;0.25;0.25;0.5;1.5;1.0;0.5;2.75;0.25;0.5;-0.257324;0.047363;0.976074;-0.63;-0.84;0.7;265.0;-0.137281;-0.032513
2.1;9.25;6.0;8.0;4.25;0.75;0.5;0.25;0.0;2.25;0.5;0.75;0.25;0.0;2.25;0.0;0.25;-0.233398;0.020996;0.985352;-0.77;0.56;0.56;404.0;-0.218477;0.022557;4.25;3.0;4.25;2.75;0.75;1.0;0.0;0.5;0.25;0.5;1.25;1.25;0.5;2.5;0.5;0.75;-0.253418;0.044922;0.96875;-0.63;-0.98;0.7;268.0;-0.132047;-0.048502
2.11;9.25;6.25;8.0;4.25;0.75;0.5;0.25;0.0;2.0;0.5;0.5;0.25;0.0;2.25;0.25;0.25;-0.237305;0.019531;0.984863;-0.77;0.63;0.63;403.0;-0.222627;0.019384;4.25;3.25;4.25;2.75;0.75;1.0;0.0;0.5;0.25;0.5;1.5;1.25;0.5;2.5;0.5;0.75;-0.260254;0.042969;0.974121;-0.63;-0.98;0.84;274.0;-0.130927;-0.050288
2.12;9.25;6.0;8.0;4.0;0.75;0.5;0.25;0.0;2.25;0.25;0.5;0.25;0.0;2.25;0.25;0.25;-0.238281;0.016602;0.985352;-0.77;0.63;0.49;399.0;-0.219916;0.024364;4.25;3.0;4.25;2.5;0.75;1.0;0.0;0.5;0.25;0.5;1.5;1.0;0.5;2.5;0.5;0.75;-0.253906;0.041992;0.965332;-0.63;-0.91;0.7;265.0;-0.130131;-0.044552
2.13;9.25;6.0;8.0;4.0;0.75;0.25;0.25;0.0;2.0;0.0;0.25;0.25;0.25;2.0;0.25;0.25;-0.230957;0.015625;0.983887;-0.77;0.63;0.49;386.0;-0.23296;0.021203;4.25;3.0;4.5;2.75;0.75;1.0;0.0;0.5;0.25;0.5;1.25;1.0;0.75;2.5;0.5;0.5;-0.248535;0.038574;0.973633;-0.63;-0.91;0.63;269.0;-0.137271;-0.046452
2.14;9.25;6.0;8.0;4.25;0.75;0.25;0.25;0.0;2.25;0.25;0.25;0.25;0.25;2.0;0.25;0.25;-0.237793;0.018555;0.984375;-0.7;0.56;0.49;396.0;-0.225552;0.021933;4.25;3.0;4.25;2.75;1.0;1.0;0.0;0.25;0.25;0.75;1.25;1.0;0.75;2.75;0.25;0.5;-0.253418;0.040039;0.97168;-0.63;-0.77;0.7;268.0;-0.134673;-0.037917
2.15;9.25;6.25;8.0;4.25;0.75;0.5;0.25;0.0;2.0;0.25;0.5;0.25;0.25;2.0;0.25;0.25;-0.239258;0.014648;0.983887;-0.77;0.49;0.49;401.0;-0.227289;0.015323;4.25;3.5;4.25;2.5;0.75;0.75;0.0;0.5;0.0;0.75;1.5;1.25;0.75;2.5;0.0;0.5;-0.252441;0.039062;0.973145;-0.7;-0.91;0.63;265.0;-0.144615;-0.051567
2.16;9.25;6.0;8.0;4.0;0.75;0.5;0.25;0.0;2.0;0.25;0.5;0.5;0.0;2.0;0.25;0.25;-0.239258;0.020996;0.984375;-0.77;0.56;0.56;396.0;-0.224809;0.01887;4.0;3.0;4.25;2.5;0.75;0.75;0.0;0.5;0.0;0.75;1.5;1.25;0.75;2.5;0.5;0.5;-0.257324;0.039062;0.970215;-0.7;-0.91;0.63;263.0;-0.124555;-0.051764
2.17;9.25;6.0;8.0;4.0;0.75;0.25;0.25;0.0;2.25;0.25;0.5;0.25;0.0;2.0;0.25;0.25;-0.234863;0.01709;0.990234;-0.77;0.35;0.56;393.0;-0.224161;0.025707;4.0;2.75;4.25;2.5;0.75;0.75;0.0;0.5;0.25;0.75;1.5;1.25;0.75;2.75;0.25;0.75;-0.253906;0.041504;0.970703;-0.56;-0.91;0.7;265.0;-0.114966;-0.045391
2.18;9.25;6.0;7.75;4.25;0.75;0.25;0.25;0.0;2.0;0.25;0.5;0.0;0.0;2.25;0.25;0.25;-0.23877;0.019531;0.982422;-0.84;0.42;0.56;389.0;-0.228152;0.024283;4.0;3.0;4.0;2.5;0.75;1.0;0.0;0.5;0.25;0.75;1.5;1.0;0.5;2.75;0.25;0.5;-0.250977;0.037109;0.974609;-0.63;-0.84;0.77;260.0;-0.125403;-0.042677
2.19;9.25;6.0;8.0;4.0;0.75;0.25;0.25;0.0;2.5;0.25;0.5;0.0;0.0;2.25;0.25;0.25;-0.241699;0.017578;0.988281;-0.91;0.42;0.49;396.0;-0.219244;0.03118;3.75;3.0;4.25;2.5;0.75;1.0;0.0;0.5;0.0;0.75;1.5;1.25;0.5;2.5;0.5;0.5;-0.256836;0.037598;0.973633;-0.56;-0.77;0.7;260.0;-0.124502;-0.052329
2.2;9.25;6.25;8.25;4.0;0.75;0.25;0.25;0.0;2.25;0.25;0.5;0.25;0.25;2.0;0.25;0.25;-0.241699;0.018066;0.98877;-0.91;0.49;0.56;401.0;-0.223375;0.022125;3.75;3.0;4.25;2.5;0.75;0.75;0.0;0.5;0.25;1.0;1.5;1.25;0.5;2.75;0.5;0.75;-0.251953;0.032715;0.970215;-0.63;-0.77;0.63;268.0;-0.107891;-0.043731
2.21;9.25;6.25;8.0;4.0;0.75;0.5;0.25;0.0;2.25;0.25;0.5;0.25;0.0;2.25;0.25;0.25;-0.238281;0.016602;0.978516;-0.84;0.49;0.49;401.0;-0.221152;0.023167;4.0;2.25;4.25;2.25;0.75;1.0;0.0;0.5;0.25;1.0;1.5;1.25;0.5;2.75;0.0;0.75;-0.251465;0.037598;0.969727;-0.63;-0.7;0.7;257.0;-0.111975;-0.038136
2.22;9.0;6.25;8.0;4.0;0.75;0.25;0.25;0.0;2.25;0.25;0.75;0.25;0.0;2.25;0.25;0.0;-0.233887;0.015625;0.981934;-0.84;0.49;0.49;397.0;-0.219318;0.025031;4.0;2.5;4.25;2.25;0.75;0.75;0.0;0.5;0.25;0.75;1.5;1.25;0.5;2.25;0.0;0.5;-0.254883;0.035156;0.969727;-0.56;-0.7;0.63;248.0;-0.131284;-0.040188
2.23;9.25;6.25;8.0;4.0;0.75;0.25;0.25;0.0;2.5;0.25;0.75;0.5;0.0;2.0;0.5;0.0;-0.235352;0.021484;0.984375;-0.84;0.35;0.56;407.0;-0.212566;0.023904;3.75;2.75;4.25;2.25;0.75;1.0;0.0;0.5;0.25;0.75;1.5;1.25;0.75;2.25;0.25;0.5;-0.257324;0.041016;0.977539;-0.63;-0.84;0.77;256.0;-0.12252;-0.050137
2.24;9.25;6.25;8.0;4.0;0.75;0.5;0.25;0.0;2.5;0.5;0.5;0.5;0.0;2.0;0.5;0.25;-0.239746;0.023926;0.986328;-0.91;0.42;0.49;411.0;-0.209983;0.021789;3.75;2.5;4.25;2.5;0.75;1.0;0.0;0.5;0.0;0.75;1.5;1.25;0.5;2.5;0.0;0.5;-0.252441;0.039551;0.971191;-0.63;-0.91;0.77;250.0;-0.130824;-0.049346
2.25;9.25;6.25;8.0;4.0;0.75;0.5;0.25;0.0;2.5;0.75;0.5;0.5;0.25;2.0;0.5;0.25;-0.23584;0.014648;0.983398;-0.91;0.42;0.56;416.0;-0.20476;0.019342;4.0;2.75;4.0;2.25;0.75;1.0;0.0;0.5;0.25;0.75;1.25;1.0;0.5;2.5;0.0;0.75;-0.254395;0.040527;0.97168;-0.56;-0.84;0.7;248.0;-0.132824;-0.0416
2.26;9.5;6.25;8.25;4.25;0.75;0.5;0.25;0.0;2.5;0.25;0.5;0.5;0.0;2.0;0.5;0.25;-0.241211;0.019043;0.980469;-0.91;0.49;0.63;417.0;-0.215328;0.020813;4.0;2.75;4.25;2.25;0.75;0.75;0.0;0.5;0.0;0.75;1.25;1.0;0.5;2.5;0.0;0.75;-0.250977;0.039062;0.970215;-0.7;-0.91;0.7;245.0;-0.139928;-0.041775
2.27;9.0;6.25;8.25;4.0;0.75;0.5;0.25;0.0;2.25;0.0;0.5;0.5;0.0;2.25;0.5;0.25;-0.238281;0.022949;0.979492;-0.84;0.49;0.56;404.0;-0.215933;0.019757;3.75;2.75;4.0;2.5;0.75;0.75;0.0;0.5;0.0;0.5;1.25;1.25;0.5;2.5;0.25;0.75;-0.253418;0.041504;0.969727;-0.7;-0.77;0.7;245.0;-0.131031;-0.052079
2.28;9.5;6.25;8.25;4.0;0.75;0.5;0.25;0.0;2.25;0.0;0.75;0.25;0.0;2.25;0.25;0.25;-0.235352;0.013672;0.983887;-0.84;0.42;0.56;407.0;-0.222832;0.022997;3.75;3.25;4.25;2.5;0.75;0.75;0.0;0.5;0.0;0.5;1.5;1.25;0.5;2.5;0.5;0.75;-0.256348;0.038574;0.97168;-0.91;-0.98;0.7;259.0;-0.128265;-0.053674
2.29;9.5;6.0;8.0;4.0;0.75;0.5;0.25;0.0;2.5;0.25;0.75;0.25;0.0;2.25;0.5;0.25;-0.237793;0.014648;0.983398;-0.7;0.56;0.56;411.0;-0.209548;0.025403;3.75;3.0;4.25;2.5;0.75;0.75;0.0;0.5;0.25;0.75;1.25;1.25;0.5;2.0;0.5;0.75;-0.255859;0.041504;0.966797;-0.77;-0.91;0.77;255.0;-0.129732;-0.050167
2.3;9.25;6.0;8.0;4.25;0.75;0.5;0.25;0.0;2.25;0.25;0.75;0.25;0.0;2.25;0.25;0.25;-0.239258;0.019043;0.981445;-0.77;0.56;0.56;404.0;-0.217265;0.021525;4.0;3.0;4.0;2.5;0.5;0.75;0.0;0.5;0.25;0.75;1.25;1.25;0.5;2.5;0.5;0.5;-0.251953;0.038574;0.970215;-0.91;-0.98;0.77;255.0;-0.124165;-0.045704
2.31;9.25;6.25;8.25;4.0;1.0;0.25;0.25;0.0;2.25;0.25;0.5;0.25;0.0;2.0;0.0;0.25;-0.236328;0.015625;0.98877;-0.63;0.63;0.56;399.0;-0.229488;0.026024;4.0;3.0;4.0;2.5;0.75;0.75;0.0;0.5;0.25;0.75;1.5;1.25;0.5;2.25;0.5;0.5;-0.253418;0.045898;0.970215;-0.77;-0.98;0.7;259.0;-0.125125;-0.047244
2.32;9.25;6.5;8.25;4.0;0.75;0.25;0.25;0.0;2.25;0.25;0.5;0.25;0.0;2.25;0.25;0.25;-0.236328;0.018066;0.979004;-0.77;0.56;0.56;404.0;-0.223215;0.024666;4.0;3.0;4.25;2.5;0.75;0.75;0.0;0.5;0.0;0.75;1.5;1.0;0.5;2.5;0.0;0.5;-0.248047;0.038086;0.970215;-0.77;-0.91;0.7;252.0;-0.143243;-0.044444
2.33;9.25;6.25;8.5;4.25;0.75;0.5;0.25;0.0;2.0;0.25;0.25;0.5;0.0;2.0;0.25;0.25;-0.236328;0.019531;0.985352;-0.56;0.56;0.56;404.0;-0.230272;0.017925;4.0;3.0;4.25;2.5;0.75;1.0;0.0;0.5;0.0;0.75;1.5;1.0;0.5;2.5;0.0;0.5;-0.245117;0.041016;0.973145;-0.91;-0.91;0.7;255.0;-0.143348;-0.047113
2.34;9.25;6.25;8.5;4.25;1.0;0.5;0.25;0.0;2.5;0.25;0.5;0.5;0.0;2.25;0.5;0.25;-0.231934;0.019531;0.984863;-0.63;0.56;0.49;423.0;-0.210342;0.021867;4.0;3.0;4.25;2.5;0.75;1.0;0.0;0.5;0.0;0.5;1.25;1.0;0.5;2.5;0.5;0.5;-0.256836;0.04248;0.971191;-0.77;-0.84;0.63;255.0;-0.139375;-0.048368
2.35;9.25;6.0;8.5;4.25;1.0;0.5;0.25;0.0;2.25;0.25;0.5;0.25;0.0;2.25;0.5;0.25;-0.23877;0.016602;0.985352;-0.56;0.56;0.63;414.0;-0.216042;0.023045;3.75;3.0;4.25;2.5;0.75;0.75;0.0;0.5;0.25;0.5;1.25;1.0;0.5;2.5;0.25;0.5;-0.249512;0.036133;0.97998;-0.91;-1.12;0.7;250.0;-0.136843;-0.042463
2.36;9.5;6.0;8.25;4.25;0.75;0.5;0.25;0.0;2.0;0.5;0.5;0.25;0.0;2.0;0.5;0.25;-0.231445;0.021973;0.990234;-0.56;0.63;0.63;407.0;-0.222187;0.02006;3.75;3.0;4.0;2.5;0.75;1.0;0.0;0.5;0.25;0.5;1.25;1.25;0.5;2.5;0.25;0.5;-0.250977;0.039062;0.971191;-0.91;-1.05;0.7;252.0;-0.131526;-0.049661
2.37;9.25;6.25;8.25;4.25;0.75;0.5;0.25;0.0;2.5;0.5;0.5;0.25;0.0;2.0;0.25;0.0;-0.237305;0.019531;0.98291;-0.42;0.28;0.56;410.0;-0.220291;0.024661;4.0;3.0;4.0;2.5;0.75;1.0;0.0;0.5;0.0;0.5;1.25;1.0;0.75;2.5;0.25;0.5;-0.253418;0.043457;0.970703;-0.91;-0.98;0.7;251.0;-0.141191;-0.053529
2.38;9.25;6.0;8.25;4.25;0.75;0.5;0.25;0.0;2.5;0.5;0.5;0.25;0.0;2.0;0.25;0.0;-0.229492;0.018066;0.988281;-0.56;0.7;0.63;407.0;-0.219076;0.025841;4.0;2.5;4.0;2.25;0.75;0.75;0.0;0.5;0.0;0.5;1.5;1.0;0.75;2.5;0.5;0.75;-0.255859;0.041504;0.973145;-0.98;-0.98;0.7;247.0;-0.120061;-0.049129
2.39;9.5;6.0;8.25;4.25;0.75;0.5;0.25;0.0;2.25;0.25;0.5;0.25;0.0;2.25;0.25;0.25;-0.236328;0.01416;0.981934;-0.42;0.7;0.63;407.0;-0.222028;0.023603;4.0;2.75;4.25;2.25;0.75;0.75;0.0;0.5;0.25;0.5;1.25;1.25;0.5;2.5;0.5;0.75;-0.255371;0.038574;0.968262;-0.91;-1.12;0.7;254.0;-0.122301;-0.042299
2.4;9.25;6.25;8.25;4.25;0.75;0.5;0.25;0.0;2.0;0.25;0.5;0.5;0.0;2.25;0.25;0.25;-0.23877;0.016113;0.980469;-0.49;0.56;0.7;406.0;-0.223127;0.017361;4.0;2.75;4.25;2.25;0.75;1.0;0.0;0.5;0.25;0.5;1.25;1.25;0.5;2.5;0.5;0.75;-0.257324;0.04248;0.973145;-0.98;-0.98;0.63;257.0;-0.122648;-0.044967
2.41;9.25;6.25;8.25;4.25;0.75;0.5;0.25;0.0;2.0;0.0;0.5;0.5;0.0;2.25;0.0;0.25;-0.236816;0.019531;0.978516;-0.42;0.42;0.63;401.0;-0.230925;0.017742;4.0;3.25;4.25;2.25;0.75;1.0;0.0;0.25;0.25;0.5;1.25;1.0;0.75;2.25;0.5;0.75;-0.255371;0.037598;0.972168;-0.91;-0.98;0.77;255.0;-0.136171;-0.04474
2.42;9.75;6.25;8.25;4.25;0.75;0.25;0.25;0.0;2.25;0.0;0.5;0.25;0.25;2.25;0.0;0.25;-0.233398;0.016602;0.978516;-0.35;0.49;0.7;406.0;-0.230413;0.022843;3.75;3.0;4.25;2.5;0.75;0.75;0.0;0.5;0.25;0.5;1.25;1.0;0.5;2.5;0.5;0.5;-0.250488;0.036621;0.972168;-0.91;-0.98;0.7;252.0;-0.130661;-0.042913
2.43;9.5;6.25;8.25;4.25;0.75;0.25;0.25;0.0;1.5;0.25;0.5;0.25;0.25;2.25;0.25;0.25;-0.230957;0.01709;0.984863;-0.42;0.42;0.77;399.0;-0.234343;0.015002;3.75;3.0;4.25;2.25;0.75;0.75;0.0;0.5;0.25;0.5;1.25;0.75;0.5;2.5;0.25;0.5;-0.253418;0.043945;0.971191;-0.98;-0.98;0.77;244.0;-0.139074;-0.037224
2.44;9.5;6.0;8.25;4.0;0.75;0.5;0.25;0.0;2.0;0.25;0.5;0.5;0.25;2.0;0.25;0.25;-0.230957;0.023926;0.981445;-0.49;0.49;0.63;404.0;-0.224068;0.017232;3.75;3.0;4.25;2.5;0.75;1.0;0.0;0.5;0.25;0.5;1.25;1.0;0.75;2.5;0.0;0.5;-0.254395;0.042969;0.972656;-0.98;-0.98;0.7;252.0;-0.140355;-0.048646
2.45;9.75;6.0;8.25;4.0;0.75;0.25;0.25;0.0;2.25;0.25;0.5;0.5;0.0;2.0;0.0;0.25;-0.234375;0.018555;0.983398;-0.56;0.35;0.7;402.0;-0.228395;0.025823;4.0;2.5;4.25;2.5;0.75;1.0;0.0;0.5;0.0;0.75;1.25;1.0;0.75;2.25;0.0;0.75;-0.251465;0.04248;0.963379;-0.84;-0.91;0.77;248.0;-0.141281;-0.051526
2.46;9.25;6.25;8.5;4.25;0.75;0.5;0.25;0.0;2.25;0.25;0.5;0.25;0.0;2.25;0.25;0.25;-0.235352;0.02002;0.989746;-0.63;0.28;0.56;410.0;-0.222297;0.022337;4.0;2.75;4.25;2.25;0.75;0.75;0.0;0.25;0.0;0.75;1.5;1.0;0.75;2.5;0.5;0.5;-0.249023;0.039551;0.973145;-0.84;-0.98;0.77;250.0;-0.125365;-0.040065
2.47;9.25;6.5;8.25;4.25;0.75;0.5;0.25;0.0;2.25;0.0;0.75;0.25;0.0;2.25;0.25;0.25;-0.233887;0.018555;0.974609;-0.49;0.42;0.49;410.0;-0.223252;0.019426;4.0;3.0;4.25;2.25;0.75;0.75;0.0;0.25;0.0;0.75;1.5;1.0;0.5;2.5;0.5;0.5;-0.257324;0.039551;0.971191;-0.91;-0.98;0.7;250.0;-0.131072;-0.037368
2.48;9.25;6.0;8.0;4.0;0.75;0.5;0.25;0.0;2.5;0.25;0.75;0.5;0.0;2.25;0.25;0.25;-0.232422;0.018555;0.979004;-0.49;0.42;0.56;408.0;-0.209585;0.023309;3.75;3.25;4.25;2.5;0.75;0.75;0.0;0.5;0.0;0.75;1.25;0.75;0.5;2.5;0.5;0.5;-0.256836;0.040527;0.969727;-0.84;-0.91;0.7;251.0;-0.138727;-0.044557
2.49;9.25;6.0;8.0;4.0;0.75;0.5;0.25;0.0;2.25;0.0;0.75;0.25;0.0;2.0;0.25;0.25;-0.238281;0.021973;0.989258;-0.56;0.49;0.49;396.0;-0.223705;0.02217;3.75;3.0;4.25;2.5;0.75;1.0;0.0;0.5;0.0;0.75;1.25;1.0;0.5;2.5;0.5;0.75;-0.256348;0.035645;0.970703;-0.84;-0.98;0.77;256.0;-0.129358;-0.050392
2.5;9.5;6.25;8.0;4.0;0.75;0.5;0.25;0.0;2.0;0.25;0.75;0.25;0.0;2.0;0.25;0.25;-0.238281;0.018066;0.983887;-0.56;0.49;0.49;401.0;-0.227178;0.019645;3.75;3.0;4.25;2.5;0.75;1.0;0.0;0.25;0.0;0.75;1.25;0.75;0.5;2.5;0.5;0.75;-0.256836;0.041992;0.966797;-0.77;-0.91;0.63;249.0;-0.135223;-0.04185
2.51;9.5;6.5;8.0;4.25;0.75;0.5;0.25;0.0;2.25;0.0;0.5;0.25;0.0;2.0;0.25;0.25;-0.229492;0.018555;0.980957;-0.56;0.35;0.63;404.0;-0.231021;0.019574;4.0;3.0;4.25;2.25;0.75;1.0;0.0;0.25;0.0;0.75;1.25;1.0;0.5;2.5;0.25;0.75;-0.246582;0.039062;0.972656;-0.84;-0.91;0.7;249.0;-0.138705;-0.040407
2.52;9.5;6.5;8.25;4.25;0.75;0.5;0.25;0.0;2.5;0.25;0.5;0.25;0.0;2.25;0.0;0.0;-0.233887;0.017578;0.990234;-0.56;0.42;0.49;412.0;-0.226734;0.025407;4.0;3.0;4.25;2.5;0.75;0.75;0.0;0.5;0.0;0.75;1.25;1.0;0.5;2.0;0.25;0.5;-0.251465;0.036133;0.972656;-0.7;-0.98;0.77;247.0;-0.151572;-0.048229
2.53;9.25;6.5;8.5;4.25;0.75;0.5;0.25;0.0;2.0;0.25;0.5;0.25;0.0;2.0;0.25;0.0;-0.230469;0.016602;0.984863;-0.63;0.42;0.49;405.0;-0.233494;0.01928;4.0;3.0;4.25;2.5;0.75;0.75;0.0;0.5;0.25;0.75;1.5;1.0;0.5;2.5;0.5;0.5;-0.255371;0.040039;0.96875;-0.77;-0.84;0.7;261.0;-0.125666;-0.040905
2.54;9.25;6.5;8.0;4.25;0.75;0.5;0.25;0.0;2.0;0.25;0.5;0.25;0.25;2.0;0.25;0.25;-0.236816;0.016602;0.979492;-0.7;0.42;0.63;403.0;-0.228473;0.014189;4.0;3.25;4.25;2.5;0.75;1.0;0.0;0.5;0.25;0.5;1.5;1.0;0.5;2.5;0.5;0.75;-0.250488;0.033691;0.978027;-0.77;-0.91;0.7;265.0;-0.12994;-0.047345
2.55;9.0;6.25;8.25;4.25;0.75;0.5;0.25;0.0;1.75;0.0;0.5;0.5;0.0;2.25;0.25;0.25;-0.236816;0.013672;0.984863;-0.63;0.42;0.56;397.0;-0.229477;0.014062;4.0;3.0;4.25;2.5;0.75;1.0;0.0;0.5;0.25;0.75;1.25;1.0;0.75;2.25;0.25;0.75;-0.248047;0.040039;0.972656;-0.77;-0.84;0.7;260.0;-0.135092;-0.049602
2.56;9.25;6.75;8.25;4.25;0.75;0.5;0.25;0.0;2.0;0.25;0.5;0.25;0.0;2.25;0.25;0.25;-0.236328;0.019043;0.985352;-0.77;0.49;0.49;409.0;-0.228561;0.017307;4.0;3.0;4.25;2.25;0.75;0.75;0.0;0.5;0.0;0.75;1.5;1.0;0.5;2.5;0.0;0.5;-0.25293;0.040527;0.970215;-0.7;-0.98;0.77;249.0;-0.141503;-0.042269
2.57;9.5;6.25;8.25;4.0;0.75;0.5;0.25;0.0;2.25;0.25;0.75;0.25;0.0;2.25;0.5;0.0;-0.235352;0.015137;0.984375;-0.7;0.49;0.56;411.0;-0.217337;0.02376;4.0;3.0;4.25;2.25;0.75;0.75;0.0;0.5;0.25;0.75;1.5;0.75;0.5;2.5;0.0;0.5;-0.251953;0.037598;0.964844;-0.77;-0.91;0.7;249.0;-0.139843;-0.0348
2.58;9.75;6.5;8.25;4.25;0.75;0.5;0.25;0.0;2.25;0.25;0.75;0.25;0.0;2.25;0.5;0.0;-0.236816;0.02002;0.97998;-0.77;0.56;0.63;420.0;-0.22029;0.021417;4.0;3.0;4.0;2.5;0.75;0.75;0.0;0.5;0.25;0.75;1.25;1.0;0.5;2.25;0.5;0.5;-0.250977;0.041016;0.966797;-0.77;-0.98;0.7;253.0;-0.132901;-0.043635
2.59;9.5;6.5;8.25;4.25;0.75;0.5;0.25;0.0;1.75;0.25;0.75;0.25;0.0;2.25;0.5;0.0;-0.231934;0.016113;0.986328;-0.63;0.35;0.56;410.0;-0.22735;0.016396;4.0;3.0;4.0;2.25;0.75;1.0;0.0;0.5;0.0;0.75;1.25;1.0;0.5;2.5;0.5;0.5;-0.250488;0.040039;0.971191;-0.77;-0.84;0.7;251.0;-0.131786;-0.046664
2.6;9.75;6.25;8.25;4.25;0.75;0.5;0.25;0.0;2.0;0.25;0.75;0.25;0.0;2.0;0.5;0.0;-0.23291;0.02002;0.982422;-0.63;0.49;0.56;411.0;-0.226806;0.019484;4.0;3.0;4.25;2.5;0.75;0.75;0.0;0.5;0.0;0.75;1.5;1.0;0.5;2.5;0.5;0.5;-0.251953;0.039551;0.968262;-0.7;-0.84;0.7;257.0;-0.130974;-0.045285
2.61;9.75;6.5;8.25;4.25;0.75;0.5;0.25;0.0;2.25;0.5;0.5;0.25;0.0;2.0;0.25;0.0;-0.23877;0.015625;0.977539;-0.56;0.49;0.63;414.0;-0.228098;0.022496;4.25;3.0;4.25;2.5;0.75;0.75;0.0;0.25;0.25;0.75;1.5;1.0;0.5;2.5;0.5;0.5;-0.252441;0.040527;0.967773;-0.77;-0.91;0.7;260.0;-0.130508;-0.033647
2.62;9.5;6.75;8.25;4.25;0.75;0.5;0.25;0.0;2.0;0.25;0.5;0.25;0.25;2.0;0.25;0.0;-0.23584;0.016602;0.97998;-0.63;0.49;0.56;410.0;-0.23324;0.015477;4.25;2.75;4.25;2.5;0.75;1.0;0.0;0.5;0.25;0.5;1.5;1.0;0.5;2.5;0.5;1.0;-0.251465;0.046387;0.976074;-0.77;-0.91;0.7;264.0;-0.124653;-0.0449
2.63;9.75;6.5;8.25;4.25;1.0;0.5;0.25;0.0;2.0;0.25;0.5;0.25;0.25;2.25;0.25;0.0;-0.237793;0.021973;0.98291;-0.63;0.63;0.49;416.0;-0.228899;0.018452;4.0;3.0;4.25;2.5;0.75;0.5;0.0;0.5;0.25;0.5;1.5;1.0;0.5;2.5;0.5;0.5;-0.258301;0.041992;0.971191;-0.7;-0.91;0.77;255.0;-0.129435;-0.039368
2.64;10.0;6.25;8.25;4.25;0.75;0.5;0.25;0.0;2.0;0.25;0.5;0.25;0.0;2.25;0.25;0.25;-0.229492;0.022461;0.982422;-0.63;0.56;0.56;412.0;-0.22986;0.021438;4.0;3.0;4.25;2.5;0.75;0.5;0.0;0.5;0.0;0.75;1.25;1.0;0.75;2.25;0.25;0.5;-0.250488;0.038574;0.970215;-0.77;-1.05;0.63;249.0;-0.143259;-0.047348
2.65;9.5;6.5;8.25;4.25;0.75;0.5;0.25;0.0;2.0;0.25;0.5;0.25;0.0;2.25;0.25;0.25;-0.228516;0.01709;0.989258;-0.7;0.49;0.63;409.0;-0.228611;0.019072;4.0;3.0;4.25;2.5;0.75;0.75;0.0;0.5;0.25;0.5;1.25;1.25;0.5;2.25;0.25;0.5;-0.25293;0.037598;0.972168;-0.84;-0.91;0.7;253.0;-0.140929;-0.045675
2.66;9.5;6.5;8.25;4.25;0.75;0.25;0.25;0.0;2.0;0.25;0.5;0.25;0.25;2.25;0.25;0.25;-0.23291;0.018555;0.982422;-0.63;0.63;0.63;408.0;-0.226872;0.018427;3.75;3.0;4.25;2.25;0.75;0.75;0.0;0.5;0.0;0.5;1.5;1.0;0.5;2.5;0.5;0.5;-0.258789;0.04541;0.967285;-0.77;-0.98;0.63;249.0;-0.130234;-0.04612
2.67;9.5;6.5;8.25;4.25;0.75;0.25;0.25;0.0;2.25;0.25;0.5;0.25;0.25;2.0;0.25;0.25;-0.225586;0.015137;0.984375;-0.63;0.49;0.63;410.0;-0.226277;0.019759;4.0;3.0;4.25;2.25;0.75;0.75;0.0;0.5;0.0;0.5;1.25;1.0;0.5;2.5;0.5;0.5;-0.248047;0.041016;0.964844;-0.84;-0.91;0.7;249.0;-0.137435;-0.043555
2.68;10.0;6.25;8.25;4.25;0.75;0.5;0.25;0.0;2.25;0.0;0.5;0.5;0.0;2.0;0.25;0.25;-0.228516;0.018555;0.983398;-0.56;0.56;0.49;413.0;-0.229435;0.020243;4.0;3.0;4.25;2.5;0.75;0.5;0.0;0.5;0.25;0.5;1.25;0.75;0.5;2.5;0.5;0.5;-0.252441;0.043945;0.976562;-0.77;-0.98;0.7;249.0;-0.137415;-0.035528
2.69;9.75;6.25;8.25;4.25;0.75;0.25;0.25;0.0;2.25;0.25;0.5;0.25;0.0;2.0;0.25;0.25;-0.23291;0.017578;0.98291;-0.56;0.63;0.56;408.0;-0.228615;0.024308;4.0;3.0;4.25;2.5;0.75;0.5;0.0;0.5;0.25;0.75;1.25;0.75;0.5;2.5;0.0;0.5;-0.257324;0.040039;0.969238;-0.7;-0.91;0.7;247.0;-0.145733;-0.033298
2.7;9.5;6.5;8.25;4.0;0.75;0.5;0.25;0.0;2.0;0.0;0.75;0.25;0.0;2.0;0.25;0.25;-0.23584;0.020508;0.97998;-0.63;0.42;0.63;404.0;-0.231943;0.018699;4.0;3.0;4.25;2.25;0.75;0.75;0.0;0.5;0.25;0.75;1.25;1.0;0.5;2.5;0.25;0.5;-0.25293;0.044434;0.974121;-0.84;-0.91;0.7;252.0;-0.133789;-0.037399
2.71;9.5;6.5;8.0;4.0;0.75;0.25;0.25;0.0;2.0;0.25;0.75;0.25;0.0;2.25;0.5;0.25;-0.232422;0.019043;0.97998;-0.56;0.42;0.56;406.0;-0.220758;0.020822;4.0;3.0;4.25;2.5;0.75;0.75;0.0;0.5;0.0;0.75;1.25;1.0;0.5;2.5;0.25;0.5;-0.250977;0.041016;0.971191;-0.84;-0.91;0.77;252.0;-0.141164;-0.044062
2.72;9.5;6.5;8.0;4.25;0.75;0.25;0.25;0.0;2.0;0.25;0.75;0.25;0.0;2.0;0.25;0.25;-0.231934;0.013184;0.987305;-0.63;0.49;0.63;403.0;-0.229363;0.018824;4.0;3.0;4.25;2.5;0.75;0.5;0.0;0.5;0.0;0.5;1.25;1.0;0.5;2.5;0.25;0.5;-0.248535;0.037109;0.970703;-0.84;-0.98;0.77;246.0;-0.145442;-0.042542
2.73;9.5;6.25;8.25;4.25;0.75;0.5;0.25;0.0;2.0;0.25;0.75;0.25;0.0;1.75;0.25;0.25;-0.235352;0.018066;0.985352;-0.56;0.49;0.49;405.0;-0.231584;0.017451;3.75;2.75;4.25;2.5;0.75;0.5;0.0;0.5;0.0;0.75;1.25;1.0;0.5;2.5;0.25;0.5;-0.251465;0.037598;0.973633;-0.84;-0.91;0.7;243.0;-0.135129;-0.041779
2.74;9.5;6.25;8.25;4.0;0.75;0.5;0.25;0.0;2.0;0.25;0.5;0.25;0.0;1.75;0.25;0.25;-0.235352;0.012695;0.983398;-0.63;0.56;0.63;399.0;-0.234444;0.020229;4.0;3.0;4.25;2.5;0.75;0.75;0.0;0.5;0.0;0.5;1.5;1.0;0.5;2.5;0.5;0.5;-0.247559;0.036621;0.969727;-0.84;-0.91;0.7;255.0;-0.135121;-0.046503
2.75;9.5;6.5;8.25;4.0;0.75;0.5;0.25;0.0;2.0;0.25;0.5;0.5;0.0;2.0;0.25;0.25;-0.234863;0.019043;0.979004;-0.7;0.7;0.63;407.0;-0.228735;0.017731;4.0;3.0;4.25;2.5;1.0;1.0;0.0;0.5;0.25;0.5;1.5;0.75;0.5;2.5;0.5;0.5;-0.249512;0.036621;0.974609;-0.77;-0.98;0.63;261.0;-0.133634;-0.040701
2.76;9.75;6.5;8.0;4.0;0.75;0.25;0.25;0.0;1.75;0.25;0.75;0.25;0.0;2.0;0.25;0.25;-0.239258;0.026367;0.978027;-0.63;0.56;0.56;400.0;-0.234503;0.019004;4.0;3.0;4.25;2.5;0.75;0.5;0.0;0.5;0.25;0.75;1.25;0.75;0.5;2.5;0.5;0.5;-0.255859;0.043457;0.977539;-0.77;-0.98;0.63;252.0;-0.133157;-0.034408
2.77;9.75;6.5;8.5;4.0;0.75;0.5;0.25;0.0;1.75;0.25;0.75;0.25;0.0;2.0;0.25;0.25;-0.230957;0.015137;0.978027;-0.56;0.7;0.63;409.0;-0.234367;0.017928;4.0;3.0;4.25;2.25;0.75;0.75;0.0;0.25;0.25;0.75;1.25;0.75;0.5;2.5;0.25;0.75;-0.255859;0.037598;0.974121;-0.91;-0.98;0.63;247.0;-0.136872;-0.030059
2.78;9.5;6.5;8.0;4.0;0.75;0.5;0.25;0.0;1.75;0.25;0.75;0.5;0.0;2.0;0.25;0.0;-0.234375;0.016113;0.979492;-0.63;0.56;0.56;401.0;-0.231714;0.015172;4.0;3.25;4.25;2.25;0.75;0.75;0.0;0.5;0.25;0.75;1.5;1.25;0.5;2.5;0.25;0.5;-0.250977;0.041016;0.964844;-0.91;-0.91;0.7;261.0;-0.128789;-0.042364
2.79;9.5;6.5;8.5;4.0;0.75;0.25;0.25;0.0;2.0;0.25;0.75;0.25;0.0;2.0;0.25;0.0;-0.235352;0.018555;0.982422;-0.56;0.63;0.56;405.0;-0.231633;0.022904;4.25;3.5;4.25;2.5;0.75;0.75;0.0;0.25;0.25;0.75;1.25;1.0;0.5;2.75;0.5;0.5;-0.254883;0.039062;0.974609;-0.84;-0.98;0.7;264.0;-0.135054;-0.033427
2.8;9.5;6.5;8.25;4.0;0.75;0.25;0.25;0.0;2.0;0.25;0.75;0.25;0.0;2.0;0.25;0.25;-0.231934;0.022461;0.97998;-0.49;0.49;0.63;404.0;-0.229203;0.021167;4.5;3.0;4.25;2.5;0.75;0.75;0.0;0.5;0.25;0.75;1.25;1.0;0.5;2.25;0.5;0.5;-0.254883;0.043945;0.969238;-0.84;-1.12;0.7;261.0;-0.140298;-0.038784
2.81;9.75;6.5;7.75;4.25;0.75;0.5;0.25;0.0;1.75;0.5;0.5;0.25;0.0;2.0;0.25;0.25;-0.237305;0.023926;0.986816;-0.56;0.56;0.7;403.0;-0.233974;0.015774;4.25;3.0;4.25;2.75;0.75;0.75;0.0;0.5;0.25;0.5;1.25;1.0;0.5;2.25;0.5;0.5;-0.252441;0.037598;0.967773;-0.84;-1.05;0.7;259.0;-0.143311;-0.043682
2.82;9.5;6.5;8.0;4.0;0.75;0.25;0.25;0.0;1.75;0.5;0.5;0.0;0.0;2.0;0.5;0.25;-0.236328;0.019043;0.986328;-0.42;0.49;0.7;397.0;-0.231799;0.021214;4.25;3.0;4.25;2.5;1.0;0.75;0.0;0.5;0.25;0.5;1.5;1.0;0.5;2.25;0.5;0.5;-0.252441;0.038086;0.979492;-0.91;-0.91;0.63;262.0;-0.137416;-0.04119
2.83;9.5;6.5;8.25;4.25;0.5;0.5;0.25;0.0;1.75;0.25;0.5;0.25;0.0;2.0;0.25;0.0;-0.236328;0.02002;0.987793;-0.56;0.7;0.56;399.0;-0.239665;0.016775;4.25;3.0;4.25;2.5;0.75;0.75;0.0;0.5;0.25;0.75;1.5;1.0;0.5;2.5;0.5;0.5;-0.25;0.040527;0.97168;-0.77;-0.98;0.7;264.0;-0.128643;-0.039299
2.84;9.75;6.5;7.75;4.25;0.5;0.5;0.25;0.0;2.0;0.25;0.5;0.25;0.0;2.0;0.25;0.0;-0.231934;0.020508;0.978516;-0.7;0.63;0.56;399.0;-0.235983;0.01863;4.25;3.0;4.25;2.5;0.75;0.75;0.0;0.5;0.25;0.5;1.25;0.75;0.5;2.5;0.5;0.5;-0.253418;0.039551;0.973145;-0.77;-1.05;0.77;255.0;-0.140534;-0.036694
2.85;9.5;6.75;8.0;4.25;0.75;0.5;0.25;0.0;2.0;0.25;0.5;0.25;0.0;2.0;0.25;0.25;-0.235352;0.016113;0.98877;-0.63;0.42;0.63;406.0;-0.233166;0.016488;4.25;3.0;4.25;2.5;0.75;0.75;0.0;0.25;0.25;0.5;1.25;1.0;0.5;2.5;0.25;0.5;-0.253418;0.037598;0.971191;-0.84;-0.98;0.7;251.0;-0.144911;-0.03326
2.86;9.5;6.75;8.0;4.25;0.75;0.5;0.25;0.0;1.75;0.25;0.5;0.25;0.0;2.0;0.25;0.25;-0.231445;0.013672;0.981445;-0.7;0.56;0.56;403.0;-0.237516;0.014197;4.25;3.0;4.25;2.75;0.75;1.0;0.0;0.25;0.25;0.5;1.25;1.0;0.5;2.5;0.25;0.75;-0.249512;0.03418;0.970703;-0.7;-0.98;0.63;259.0;-0.143755;-0.039845
2.87;9.5;6.5;8.0;4.0;0.75;0.5;0.25;0.0;1.75;0.25;0.5;0.25;0.0;2.0;0.25;0.0;-0.235352;0.017578;0.988281;-0.7;0.49;0.63;396.0;-0.238235;0.018387;4.25;3.5;4.25;2.75;0.75;1.0;0.0;0.25;0.25;0.5;1.25;1.0;0.5;2.25;0.0;0.5;-0.259277;0.036133;0.96875;-0.7;-1.05;0.7;257.0;-0.163194;-0.042238
2.88;10.0;6.5;8.0;4.0;0.75;0.5;0.25;0.0;1.75;0.25;0.5;0.0;0.25;1.75;0.25;0.25;-0.232422;0.015625;0.983887;-0.7;0.49;0.7;400.0;-0.242955;0.016952;4.25;3.5;4.25;2.75;0.5;0.75;0.0;0.25;0.25;0.5;1.25;1.0;0.5;2.5;0.25;0.5;-0.254395;0.040039;0.96875;-0.77;-0.91;0.77;256.0;-0.152159;-0.039227
2.89;9.75;6.5;8.25;4.25;0.75;0.5;0.25;0.0;1.75;0.25;0.75;0.25;0.0;1.5;0.25;0.25;-0.23584;0.023438;0.98291;-0.7;0.63;0.63;404.0;-0.24196;0.013752;4.0;3.25;4.25;2.5;0.75;0.75;0.0;0.25;0.25;0.5;1.25;1.0;0.5;2.5;0.5;0.5;-0.251953;0.044922;0.965332;-0.7;-0.98;0.7;254.0;-0.138485;-0.036718
2.9;9.5;6.5;8.25;4.25;0.75;0.5;0.25;0.0;1.75;0.25;0.5;0.25;0.0;2.0;0.25;0.25;-0.233398;0.020996;0.986816;-0.7;0.7;0.49;403.0;-0.236608;0.015893;4.25;3.25;4.25;2.5;0.75;0.75;0.0;0.5;0.25;1.0;1.25;1.0;0.5;2.5;0.5;0.5;-0.249512;0.043945;0.969238;-0.7;-0.98;0.77;266.0;-0.131237;-0.038575
2.91;9.5;6.5;8.25;4.0;0.75;0.5;0.25;0.0;1.75;0.25;0.5;0.25;0.0;1.75;0.25;0.0;-0.236328;0.019043;0.987305;-0.63;0.49;0.63;396.0;-0.242257;0.017999;4.25;3.25;4.25;2.5;0.75;0.75;0.0;0.25;0.25;0.75;1.5;1.0;0.5;2.25;0.5;0.5;-0.255371;0.037109;0.973633;-0.7;-0.91;0.77;260.0;-0.138135;-0.03682
2.92;9.75;6.5;8.25;4.0;0.75;0.5;0.25;0.0;1.75;0.25;0.5;0.25;0.0;1.75;0.25;0.0;-0.23291;0.01416;0.984375;-0.7;0.49;0.56;399.0;-0.243399;0.018643;4.25;3.25;4.25;2.5;0.75;0.75;0.0;0.25;0.25;0.5;1.25;1.0;0.5;2.5;0.5;0.5;-0.257324;0.041016;0.969727;-0.7;-0.91;0.7;256.0;-0.141406;-0.035112
2.93;9.75;6.75;8.25;4.25;0.75;0.5;0.25;0.0;1.75;0.25;0.5;0.25;0.0;1.75;0.25;0.25;-0.234375;0.018066;0.986328;-0.63;0.56;0.56;406.0;-0.242598;0.014486;4.25;3.5;4.25;2.5;0.75;1.0;0.0;0.25;0.25;0.75;1.25;1.0;0.5;2.5;0.0;0.5;-0.25;0.041016;0.969727;-0.7;-0.91;0.63;259.0;-0.152168;-0.03699
2.94;9.75;6.5;8.0;4.0;0.75;0.5;0.25;0.0;1.75;0.25;0.5;0.25;0.0;1.75;0.25;0.25;-0.233398;0.02002;0.977051;-0.7;0.49;0.63;398.0;-0.240979;0.016863;4.25;3.25;4.25;2.75;0.75;0.75;0.0;0.5;0.25;0.75;1.25;1.0;0.5;2.5;0.0;0.5;-0.248535;0.035645;0.970703;-0.7;-0.98;0.63;261.0;-0.148934;-0.040876
2.95;9.5;6.5;8.0;4.0;0.75;0.5;0.25;0.0;2.0;0.5;0.5;0.25;0.0;1.75;0.25;0.0;-0.234375;0.015625;0.978516;-0.7;0.56;0.56;400.0;-0.234184;0.020075;4.25;3.25;4.25;2.5;0.75;0.75;0.0;0.5;0.0;0.75;1.25;1.0;0.5;2.5;0.5;0.5;-0.253418;0.039551;0.971191;-0.63;-0.84;0.7;260.0;-0.140635;-0.044001
2.96;9.5;6.5;8.25;4.0;0.75;0.5;0.25;0.0;2.0;0.25;0.5;0.25;0.0;2.25;0.25;0.0;-0.237793;0.015625;0.985352;-0.7;0.42;0.7;404.0;-0.230331;0.022099;4.25;3.25;4.25;2.5;1.0;0.75;0.0;0.5;0.0;0.5;1.25;1.0;0.5;2.5;0.5;0.5;-0.255859;0.037598;0.973145;-0.7;-0.91;0.77;260.0;-0.144623;-0.043965
2.97;9.5;6.5;8.0;4.0;0.75;0.5;0.25;0.0;1.75;0.25;0.75;0.25;0.0;2.0;0.25;0.0;-0.233887;0.018066;0.979492;-0.63;0.56;0.56;398.0;-0.234903;0.017423;4.25;3.25;4.25;2.5;0.75;1.0;0.0;0.5;0.0;0.5;1.25;1.0;0.5;2.25;0.0;0.5;-0.249023;0.040039;0.971191;-0.77;-0.91;0.63;252.0;-0.162642;-0.049094
2.98;9.5;6.5;8.0;4.0;0.5;0.25;0.25;0.0;1.5;0.25;0.5;0.5;0.0;1.75;0.25;0.0;-0.235352;0.015137;0.97998;-0.7;0.56;0.56;387.0;-0.244924;0.014626;4.0;3.5;4.25;2.5;0.75;0.75;0.0;0.25;0.0;0.5;1.25;1.0;0.25;2.0;0.0;0.5;-0.253906;0.044434;0.964355;-0.7;-1.05;0.77;240.0;-0.174038;-0.041609
2.99;9.5;6.5;8.0;4.0;0.75;0.25;0.25;0.0;1.75;0.5;0.5;0.5;0.0;1.75;0.25;0.25;-0.230957;0.019043;0.985352;-0.56;0.42;0.63;397.0;-0.233782;0.016444;4.25;3.5;4.25;2.5;0.75;0.75;0.0;0.25;0.0;0.75;1.25;1.0;0.25;2.5;0.5;0.5;-0.251465;0.039062;0.969727;-0.7;-1.05;0.7;256.0;-0.148294;-0.035703
3.0;9.75;6.5;8.25;4.0;0.75;0.25;0.25;0.0;1.75;0.25;0.5;0.25;0.0;1.75;0.0;0.25;-0.23584;0.02002;0.986328;-0.63;0.63;0.49;395.0;-0.246547;0.020325;4.25;3.25;4.5;2.75;0.75;0.75;0.0;0.25;0.0;0.75;1.25;1.0;0.5;2.5;0.5;0.5;-0.258301;0.038574;0.964844;-0.77;-1.05;0.7;262.0;-0.145813;-0.038989
3.01;9.75;6.75;8.25;4.25;0.75;0.5;0.25;0.0;1.75;0.25;0.5;0.25;0.0;1.75;0.0;0.0;-0.228027;0.017578;0.982422;-0.7;0.42;0.49;402.0;-0.249461;0.016386;4.25;3.5;4.5;2.5;0.5;0.75;0.0;0.25;0.0;0.5;1.25;1.25;0.5;2.25;0.0;0.5;-0.253906;0.034668;0.969238;-0.84;-1.05;0.7;250.0;-0.16525;-0.04439
3.02;10.0;6.5;8.25;4.25;0.75;0.25;0.25;0.0;1.75;0.25;0.5;0.25;0.0;1.75;0.0;0.0;-0.23584;0.022461;0.987305;-0.49;0.56;0.56;399.0;-0.250221;0.020351;4.25;3.5;4.25;2.75;0.5;1.0;0.0;0.5;0.25;0.75;1.5;1.0;0.5;2.25;0.0;0.75;-0.258301;0.039062;0.974121;-0.77;-0.98;0.7;265.0;-0.149812;-0.050068
3.03;9.75;6.25;7.75;4.25;0.75;0.25;0.25;0.0;1.75;0.25;0.5;0.25;0.0;1.75;0.0;0.0;-0.233398;0.01709;0.980957;-0.7;0.63;0.56;388.0;-0.247781;0.019832;4.5;3.5;4.25;2.75;0.5;1.0;0.0;0.25;0.25;0.5;1.5;1.0;0.5;2.5;0.0;0.5;-0.253906;0.040527;0.971191;-0.77;-0.84;0.77;262.0;-0.156869;-0.040648
3.04;9.75;6.5;8.0;4.0;0.75;0.25;0.25;0.0;1.75;0.25;0.5;0.25;0.0;1.5;0.25;0.0;-0.234863;0.02002;0.986328;-0.63;0.56;0.49;391.0;-0.247818;0.019366;4.5;3.5;4.25;2.75;0.75;0.75;0.0;0.25;0.25;0.5;1.5;1.0;0.5;2.5;0.25;0.5;-0.251465;0.035645;0.972656;-0.77;-0.84;0.7;265.0;-0.150453;-0.037333
3.05;9.5;6.5;8.0;4.0;0.75;0.5;0.25;0.0;1.75;0.25;0.5;0.25;0.0;1.75;0.25;0.25;-0.235352;0.01709;0.98584;-0.49;0.56;0.56;395.0;-0.239816;0.016203;4.5;3.5;4.5;2.75;0.75;0.5;0.0;0.5;0.25;0.5;1.25;1.0;0.25;2.5;0.25;0.5;-0.257812;0.038086;0.975098;-0.77;-0.98;0.7;264.0;-0.156518;-0.034169
3.06;9.5;6.25;7.75;4.0;0.75;0.5;0.25;0.0;1.75;0.25;0.5;0.0;0.0;1.75;0.25;0.25;-0.234375;0.02002;0.983887;-0.63;0.49;0.56;386.0;-0.241808;0.019145;4.0;3.5;4.25;2.5;0.75;0.75;0.0;0.25;0.25;0.5;1.25;1.0;0.25;2.5;0.5;0.5;-0.257324;0.037109;0.970703;-0.7;-0.91;0.77;254.0;-0.144104;-0.034062
3.07;9.5;6.75;8.25;4.25;0.75;0.5;0.25;0.0;1.75;0.25;0.5;0.25;0.0;1.75;0.25;0.25;-0.237793;0.019531;0.980469;-0.49;0.49;0.56;403.0;-0.24147;0.013824;4.25;3.5;4.25;2.5;0.75;0.75;0.0;0.25;0.25;0.75;1.25;1.0;0.5;2.5;0.25;0.5;-0.256348;0.037109;0.970215;-0.7;-0.98;0.77;259.0;-0.14597;-0.03478
3.08;10.0;6.75;8.25;4.25;0.75;0.5;0.25;0.0;1.75;0.0;0.5;0.25;0.0;1.75;0.25;0.25;-0.234863;0.018066;0.982422;-0.49;0.7;0.63;406.0;-0.247098;0.014798;4.5;3.0;4.25;2.5;0.75;0.75;0.0;0.5;0.25;0.75;1.5;1.0;0.5;2.5;0.25;0.75;-0.256348;0.041016;0.975098;-0.7;-0.98;0.7;265.0;-0.134637;-0.038787
3.09;9.5;6.5;8.25;4.25;0.75;0.5;0.25;0.0;1.75;0.0;0.5;0.25;0.0;1.75;0.0;0.25;-0.239746;0.019531;0.979492;-0.42;0.63;0.63;395.0;-0.248529;0.015308;4.25;3.0;4.5;2.75;0.75;0.75;0.0;0.5;0.25;0.75;1.5;1.0;0.5;2.25;0.25;0.5;-0.254395;0.038574;0.975586;-0.77;-0.91;0.7;265.0;-0.142575;-0.041358
3.1;9.5;6.75;8.0;4.0;0.75;0.5;0.25;0.0;1.5;0.25;0.5;0.25;0.0;1.75;0.25;0.0;-0.230469;0.015137;0.987305;-0.42;0.56;0.56;392.0;-0.247745;0.013923;4.25;3.5;4.5;2.5;0.75;1.0;0.0;0.5;0.25;0.75;1.5;1.0;0.5;2.25;0.5;0.5;-0.253418;0.036133;0.970703;-0.84;-0.98;0.7;273.0;-0.140368;-0.044603
3.11;9.5;6.75;8.0;4.0;0.75;0.25;0.0;0.0;1.5;0.25;0.5;0.5;0.0;1.75;0.25;0.25;-0.239746;0.019043;0.988281;-0.49;0.49;0.49;389.0;-0.24625;0.010156;4.5;3.5;4.5;2.5;0.5;1.0;0.0;0.5;0.25;0.75;1.5;1.0;0.5;2.5;0.5;0.5;-0.255371;0.040039;0.964355;-0.84;-0.91;0.7;275.0;-0.138567;-0.042301
3.12;9.75;6.75;8.0;4.0;0.75;0.5;0.25;0.0;1.5;0.25;0.5;0.25;0.0;1.75;0.25;0.25;-0.237793;0.01709;0.98584;-0.42;0.63;0.63;396.0;-0.246583;0.013377;4.25;3.5;4.25;2.5;0.75;0.75;0.0;0.5;0.25;0.75;1.5;1.0;0.5;2.25;0.5;0.5;-0.254395;0.046387;0.97168;-0.77;-0.84;0.63;267.0;-0.138803;-0.043587
3.13;9.75;6.75;8.0;4.25;0.75;0.5;0.25;0.0;1.75;0.25;0.5;0.25;0.0;2.0;0.0;0.25;-0.234863;0.020996;0.98291;-0.42;0.56;0.56;402.0;-0.243276;0.015549;4.25;3.5;4.5;2.75;0.75;1.0;0.0;0.5;0.25;0.75;1.5;1.0;0.5;2.5;0.75;0.75;-0.250977;0.037598;0.969238;-0.84;-0.98;0.77;282.0;-0.129189;-0.046483
3.14;9.5;6.75;8.0;4.25;0.75;0.5;0.25;0.0;1.5;0.25;0.5;0.25;0.0;2.0;0.0;0.25;-0.233398;0.02002;0.981934;-0.28;0.28;0.63;396.0;-0.246645;0.012546;4.5;3.5;4.5;2.75;1.0;1.0;0.0;0.5;0.25;0.75;1.5;1.0;0.5;2.5;0.5;0.75;-0.254395;0.038574;0.970215;-0.77;-0.98;0.77;285.0;-0.137262;-0.043449
3.15;9.5;6.75;8.0;4.25;0.75;0.5;0.25;0.0;1.5;0.25;0.5;0.0;0.0;1.75;0.25;0.25;-0.22998;0.019043;0.98584;-0.42;0.49;0.7;394.0;-0.249104;0.013141;4.5;3.5;4.25;2.5;0.75;1.0;0.0;0.5;0.25;0.75;1.25;1.0;0.5;2.75;0.5;0.75;-0.254883;0.04248;0.97168;-0.84;-0.91;0.77;276.0;-0.133476;-0.04147
3.16;9.75;6.75;8.0;4.25;0.75;0.5;0.25;0.0;1.75;0.25;0.5;0.0;0.0;2.0;0.25;0.25;-0.234375;0.017578;0.983398;-0.49;0.28;0.63;402.0;-0.241879;0.017084;4.25;3.25;4.25;2.5;0.75;1.0;0.0;0.5;0.25;0.75;1.25;1.0;0.5;2.5;0.5;0.75;-0.25293;0.041992;0.972656;-0.91;-0.84;0.77;268.0;-0.132696;-0.043784
3.17;9.75;6.5;8.25;4.25;0.75;0.5;0.25;0.0;2.0;0.0;0.25;0.25;0.0;1.75;0.25;0.25;-0.232422;0.023926;0.983398;-0.49;0.63;0.56;401.0;-0.243817;0.018514;4.25;3.25;4.25;2.75;0.75;0.75;0.0;0.5;0.25;0.75;1.25;1.0;0.5;2.5;0.75;0.75;-0.253418;0.041016;0.973633;-0.77;-0.91;0.7;271.0;-0.128476;-0.043678
3.18;9.25;6.25;7.75;4.0;0.75;0.5;0.25;0.0;1.75;0.25;0.25;0.25;0.0;1.75;0.25;0.25;-0.230957;0.015137;0.989746;-0.49;0.49;0.49;383.0;-0.240717;0.017122;4.5;3.5;4.5;2.75;0.75;0.75;0.0;0.5;0.25;0.75;1.25;1.0;0.5;2.5;0.25;0.75;-0.253418;0.040527;0.974609;-0.7;-0.91;0.63;273.0;-0.14674;-0.040939
3.19;9.25;6.5;7.75;4.25;0.75;0.5;0.25;0.0;1.75;0.25;0.25;0.0;0.0;1.75;0.25;0.25;-0.238281;0.02002;0.979492;-0.49;0.49;0.56;386.0;-0.245587;0.016383;4.25;3.5;4.5;2.5;0.75;0.75;0.0;0.5;0.25;0.5;1.25;1.0;0.5;2.5;0.25;0.75;-0.253906;0.031738;0.972656;-0.77;-0.98;0.77;265.0;-0.146562;-0.041582
3.2;9.75;6.5;8.0;4.0;0.75;0.5;0.25;0.0;1.75;0.25;0.25;0.25;0.0;1.75;0.25;0.0;-0.233398;0.013184;0.984375;-0.49;0.49;0.56;393.0;-0.246642;0.019074;4.25;3.5;4.25;2.5;1.0;1.0;0.0;0.5;0.25;0.5;1.25;1.0;0.5;2.5;0.5;0.75;-0.255371;0.040039;0.970215;-0.84;-0.98;0.77;271.0;-0.139177;-0.044888
3.21;9.75;6.25;8.0;4.0;0.75;0.5;0.25;0.0;1.75;0.25;0.5;0.25;0.0;1.75;0.25;0.25;-0.236328;0.015625;0.984863;-0.56;0.49;0.42;395.0;-0.239858;0.01803;4.0;3.25;4.25;2.75;1.0;0.75;0.0;0.25;0.0;0.75;1.25;1.0;0.5;2.5;0.5;0.5;-0.256348;0.039551;0.969238;-0.84;-0.91;0.77;259.0;-0.141352;-0.040953
3.22;9.5;6.25;7.75;4.0;0.75;0.5;0.25;0.0;1.75;0.5;0.5;0.0;0.0;1.75;0.25;0.25;-0.232422;0.02002;0.983887;-0.63;0.49;0.63;389.0;-0.238285;0.019472;4.25;3.25;4.5;2.5;0.75;0.75;0.0;0.25;0.25;0.75;1.5;1.0;0.25;2.5;0.5;0.5;-0.253906;0.039551;0.96582;-0.84;-0.91;0.7;263.0;-0.137505;-0.029657
3.23;9.5;6.25;7.75;4.0;0.75;0.5;0.25;0.0;1.75;0.5;0.5;0.25;0.0;1.75;0.25;0.25;-0.234863;0.02002;0.98877;-0.7;0.63;0.49;392.0;-0.234996;0.017153;4.0;3.5;4.5;2.5;0.75;0.5;0.0;0.25;0.25;0.75;1.5;1.0;0.25;2.5;0.5;0.5;-0.253906;0.038086;0.967285;-0.77;-0.84;0.56;260.0;-0.13715;-0.029705
3.24;10.0;6.5;7.75;4.0;0.75;0.25;0.25;0.0;1.75;0.25;0.5;0.25;0.0;2.0;0.5;0.25;-0.233398;0.017578;0.981934;-0.7;0.49;0.56;399.0;-0.234152;0.019344;4.25;3.5;4.5;2.5;0.75;0.5;0.0;0.5;0.25;0.5;1.25;1.0;0.5;2.5;0.5;0.5;-0.251465;0.043457;0.965332;-0.7;-0.91;0.63;263.0;-0.143315;-0.03788
3.25;10.0;6.5;8.0;4.0;0.75;0.25;0.25;0.0;1.5;0.25;0.25;0.25;0.0;2.0;0.25;0.25;-0.234863;0.015625;0.98584;-0.77;0.7;0.56;393.0;-0.24688;0.019291;4.25;3.0;4.25;2.5;0.75;0.75;0.0;0.25;0.25;0.5;1.25;0.75;0.5;2.5;0.5;0.5;-0.251953;0.040527;0.969238;-0.84;-0.84;0.77;251.0;-0.14266;-0.030805
3.26;9.75;6.25;8.0;4.25;0.75;0.5;0.25;0.0;1.75;0.25;0.25;0.25;0.0;2.0;0.25;0.25;-0.233887;0.02002;0.983887;-0.7;0.63;0.49;397.0;-0.239759;0.018095;4.25;3.25;4.25;2.5;0.75;0.75;0.0;0.25;0.25;0.75;1.25;0.75;0.5;2.5;0.0;0.5;-0.249023;0.038086;0.970703;-0.77;-0.84;0.63;251.0;-0.153656;-0.029918
3.27;9.5;6.25;8.0;4.0;0.75;0.5;0.25;0.0;1.75;0.25;0.5;0.25;0.25;2.0;0.25;0.25;-0.233887;0.019531;0.98877;-0.77;0.49;0.56;397.0;-0.232448;0.015471;4.0;3.5;4.5;2.5;0.75;0.75;0.0;0.25;0.25;0.75;1.25;1.25;0.5;2.5;0.0;0.5;-0.250977;0.038086;0.974121;-0.7;-0.84;0.63;259.0;-0.146749;-0.037266
3.28;9.75;6.5;8.0;4.0;0.75;0.5;0.25;0.0;1.75;0.25;0.5;0.25;0.0;1.75;0.0;0.0;-0.238281;0.013184;0.983398;-0.7;0.56;0.56;393.0;-0.247974;0.01883;4.0;3.5;4.5;2.75;0.75;0.75;0.0;0.25;0.25;0.75;1.25;1.25;0.5;2.5;0.5;0.5;-0.253418;0.039551;0.972168;-0.63;-0.91;0.7;268.0;-0.136463;-0.040325
3.29;9.25;6.5;7.75;4.25;0.75;0.5;0.25;0.0;1.75;0.25;0.5;0.25;0.0;1.75;0.0;0.25;-0.235352;0.019043;0.978027;-0.63;0.56;0.49;389.0;-0.243565;0.013822;4.0;3.25;4.25;2.5;0.75;0.75;0.0;0.5;0.25;0.75;1.25;1.0;0.5;2.5;0.25;0.75;-0.253906;0.037598;0.96582;-0.7;-0.91;0.56;259.0;-0.135494;-0.042396
3.3;9.5;6.5;8.0;4.0;0.75;0.5;0.25;0.0;1.75;0.25;0.75;0.25;0.0;2.0;0.25;0.25;-0.240234;0.022461;0.984375;-0.63;0.56;0.49;400.0;-0.232697;0.016196;4.25;3.25;4.25;2.5;0.75;1.0;0.0;0.5;0.0;1.0;1.5;0.75;0.5;2.5;0.5;0.5;-0.252441;0.037598;0.96582;-0.7;-0.98;0.63;266.0;-0.13653;-0.043454
3.31;9.5;6.5;7.75;4.0;0.75;0.5;0.25;0.0;1.75;0.0;0.5;0.25;0.0;1.75;0.25;0.25;-0.234863;0.013184;0.980957;-0.63;0.42;0.49;389.0;-0.243125;0.015281;4.25;3.5;4.25;2.5;0.75;0.75;0.0;0.25;0.25;0.75;1.5;1.0;0.5;2.5;0.0;0.5;-0.25293;0.039551;0.969238;-0.7;-0.91;0.77;259.0;-0.147991;-0.035151
3.32;9.75;6.25;7.75;4.0;0.75;0.5;0.25;0.0;1.75;0.25;0.5;0.0;0.0;1.75;0.25;0.25;-0.228516;0.018555;0.983398;-0.7;0.42;0.49;389.0;-0.242983;0.019798;4.25;3.5;4.25;2.5;0.75;0.75;0.0;0.25;0.25;0.75;1.5;1.0;0.5;2.5;0.0;0.5;-0.253906;0.042969;0.974609;-0.7;-0.91;0.7;259.0;-0.147991;-0.035151
3.33;9.25;6.5;8.0;4.0;0.75;0.25;0.25;0.0;1.75;0.25;0.5;0.25;0.25;2.0;0.5;0.25;-0.234375;0.013184;0.986328;-0.56;0.28;0.63;396.0;-0.228374;0.015108;4.25;3.25;4.25;2.5;0.75;0.75;0.0;0.5;0.25;0.75;1.5;1.0;0.5;2.5;0.25;1.0;-0.244629;0.039062;0.974609;-0.7;-0.91;0.7;266.0;-0.131701;-0.043087
3.34;9.5;6.5;8.0;4.0;0.75;0.25;0.25;0.0;2.0;0.25;0.5;0.25;0.0;2.0;0.25;0.25;-0.236328;0.018555;0.986816;-0.7;0.42;0.42;398.0;-0.232199;0.021631;4.0;3.0;4.25;2.25;0.75;0.75;0.0;0.25;0.0;0.75;1.5;1.0;0.5;2.5;0.5;1.0;-0.251953;0.035645;0.972168;-0.77;-0.98;0.56;253.0;-0.125325;-0.040599
3.35;9.0;6.0;8.0;4.0;0.75;0.25;0.25;0.0;1.75;0.0;0.5;0.25;0.0;2.25;0.25;0.25;-0.236816;0.018066;0.981445;-0.7;0.42;0.56;383.0;-0.231404;0.021085;4.0;3.25;4.25;2.25;0.75;0.75;0.0;0.25;0.0;0.75;1.5;1.0;0.5;2.5;0.5;0.75;-0.255859;0.040527;0.972656;-0.84;-0.91;0.7;254.0;-0.131041;-0.040254
3.36;9.5;6.0;7.75;4.0;0.75;0.5;0.25;0.0;1.75;0.0;0.25;0.5;0.0;2.0;0.25;0.0;-0.234863;0.021973;0.98584;-0.77;0.42;0.49;385.0;-0.239318;0.018549;4.0;3.5;4.25;2.5;0.75;0.75;0.0;0.25;0.0;0.75;1.5;1.25;0.5;2.5;0.25;0.75;-0.249023;0.043457;0.970215;-0.7;-0.98;0.63;260.0;-0.137794;-0.045977
3.37;9.5;6.25;8.25;4.0;0.75;0.5;0.25;0.0;2.0;0.25;0.25;0.25;0.25;2.0;0.25;0.0;-0.235352;0.020996;0.987793;-0.77;0.49;0.56;399.0;-0.233805;0.020517;4.25;3.5;4.25;2.75;0.75;0.75;0.0;0.25;0.25;0.75;1.5;1.0;0.5;2.5;0.25;0.75;-0.25;0.039551;0.972656;-0.77;-0.91;0.63;266.0;-0.140754;-0.039342
3.38;9.25;6.5;7.75;4.0;0.75;0.5;0.25;0.0;1.75;0.25;0.25;0.25;0.0;2.0;0.25;0.25;-0.229492;0.020996;0.976562;-0.84;0.42;0.49;388.0;-0.237953;0.016893;4.25;3.25;4.25;2.5;1.0;0.75;0.0;0.5;0.25;0.5;1.5;1.0;0.25;2.5;0.25;0.75;-0.250977;0.039062;0.966797;-0.84;-0.91;0.56;263.0;-0.141125;-0.037776
3.39;9.25;6.5;7.75;4.0;0.75;0.5;0.25;0.0;1.75;0.25;0.5;0.0;0.0;1.75;0.25;0.25;-0.237793;0.01123;0.989258;-0.63;0.42;0.56;386.0;-0.241766;0.017277;4.25;3.5;4.25;2.5;0.75;0.75;0.0;0.5;0.25;0.5;1.5;1.0;0.25;2.5;0.25;1.0;-0.257812;0.036621;0.973145;-0.63;-0.91;0.63;264.0;-0.141122;-0.041679
3.4;9.25;6.25;8.0;4.0;0.75;0.5;0.25;0.0;1.75;0.5;0.5;0.25;0.0;1.75;0.0;0.25;-0.234863;0.015137;0.984863;-0.7;0.49;0.49;389.0;-0.238743;0.017782;4.25;3.5;4.5;2.75;0.75;1.0;0.0;0.5;0.0;0.75;1.5;1.0;0.5;2.5;0.5;0.75;-0.25;0.035645;0.974121;-0.63;-0.91;0.77;276.0;-0.139769;-0.050272
3.41;9.25;6.5;8.0;4.25;0.75;0.5;0.25;0.0;2.0;0.25;0.5;0.25;0.0;2.0;0.25;0.25;-0.234863;0.021973;0.984375;-0.56;0.35;0.56;401.0;-0.230811;0.016984;4.5;3.0;4.5;2.75;0.75;1.0;0.0;0.5;0.0;0.5;1.75;1.25;0.5;2.5;0.5;0.5;-0.253418;0.041992;0.97168;-0.7;-0.84;0.7;275.0;-0.136574;-0.049527
3.42;9.25;6.25;8.0;4.25;0.75;0.25;0.25;0.0;2.0;0.25;0.5;0.25;0.0;2.0;0.25;0.25;-0.229492;0.019043;0.991699;-0.63;0.56;0.49;395.0;-0.230218;0.020333;4.0;3.5;4.5;2.5;0.75;0.75;0.0;0.5;0.25;1.0;1.25;1.25;0.5;2.75;0.5;0.5;-0.256348;0.041016;0.977539;-0.77;-0.91;0.63;274.0;-0.124373;-0.040718
3.43;9.5;6.25;7.75;4.25;0.75;0.5;0.25;0.0;1.75;0.25;0.5;0.0;0.0;1.5;0.25;0.25;-0.239258;0.02002;0.990723;-0.56;0.21;0.63;387.0;-0.246089;0.016303;4.5;3.5;4.5;2.5;0.75;1.0;0.0;0.25;0.25;0.75;1.25;1.0;0.5;2.5;0.5;1.0;-0.253906;0.041016;0.970215;-0.84;-0.98;0.7;274.0;-0.138751;-0.038015
3.44;9.5;6.25;8.0;4.25;0.75;0.5;0.25;0.0;1.75;0.25;0.5;0.25;0.0;2.0;0.25;0.0;-0.237793;0.019043;0.987793;-0.63;0.56;0.49;396.0;-0.237473;0.017719;4.0;3.5;4.5;3.0;1.0;1.0;0.0;0.25;0.0;0.75;1.25;1.0;0.5;2.5;0.5;0.75;-0.258789;0.047363;0.979492;-0.7;-0.91;0.7;272.0;-0.144294;-0.046702
3.45;9.25;6.5;8.0;4.0;0.75;0.5;0.25;0.0;1.75;0.25;0.5;0.25;0.0;1.75;0.25;0.0;-0.235352;0.016113;0.986816;-0.63;0.56;0.49;390.0;-0.240909;0.016783;4.25;3.25;4.25;2.75;0.75;1.0;0.0;0.5;0.0;0.5;1.25;1.0;0.5;2.5;0.5;0.75;-0.254883;0.041016;0.962891;-0.77;-0.91;0.7;265.0;-0.143721;-0.051294
3.46;9.25;6.5;8.0;4.0;0.75;0.5;0.25;0.0;1.75;0.25;0.5;0.25;0.0;2.25;0.25;0.0;-0.239258;0.022461;0.980957;-0.56;0.63;0.56;395.0;-0.233228;0.018675;4.25;3.25;4.25;2.5;0.75;0.75;0.0;0.5;0.0;0.75;1.25;1.0;0.5;2.5;0.5;0.5;-0.252441;0.04541;0.97168;-0.77;-0.91;0.77;260.0;-0.140635;-0.044001
3.47;9.5;6.5;8.0;4.0;0.75;0.5;0.25;0.0;2.0;0.0;0.5;0.25;0.0;2.25;0.25;0.0;-0.236328;0.019043;0.986328;-0.49;0.49;0.56;399.0;-0.23342;0.021287;4.25;3.25;4.25;2.5;0.75;0.75;0.0;0.5;0.0;0.75;1.25;1.0;0.5;2.5;0.5;0.5;-0.247559;0.044434;0.974121;-0.77;-0.98;0.63;260.0;-0.140635;-0.044001
3.48;9.5;6.5;8.0;4.0;0.75;0.25;0.25;0.0;2.0;0.0;0.5;0.25;0.0;1.75;0.0;0.0;-0.237305;0.019043;0.982422;-0.56;0.56;0.63;388.0;-0.246505;0.022434;4.25;3.5;4.25;2.5;0.75;0.75;0.0;0.5;0.25;0.5;1.25;1.0;0.75;2.5;0.5;0.5;-0.252441;0.037109;0.969727;-0.91;-1.05;0.7;266.0;-0.139237;-0.045731
3.49;9.25;6.5;8.0;4.25;0.75;0.25;0.25;0.0;2.0;0.25;0.5;0.5;0.0;1.5;0.25;0.25;-0.230957;0.021973;0.98584;-0.7;0.28;0.63;396.0;-0.235744;0.015;4.25;3.0;4.25;2.5;0.75;0.75;0.0;0.5;0.25;0.5;1.25;1.0;0.5;2.5;0.5;0.5;-0.25;0.044434;0.969238;-0.77;-0.91;0.7;258.0;-0.136636;-0.039586
3.5;9.25;6.5;8.0;4.25;0.75;0.25;0.25;0.0;1.75;0.25;0.5;0.25;0.0;1.75;0.25;0.25;-0.236328;0.018555;0.976562;-0.63;0.49;0.63;392.0;-0.239665;0.015884;4.25;3.5;4.5;2.5;0.75;1.0;0.0;0.5;0.25;0.5;1.25;1.0;0.5;2.5;0.5;0.5;-0.251953;0.039062;0.972656;-0.84;-0.91;0.7;269.0;-0.143512;-0.043074
3.51;9.25;6.5;8.0;4.0;0.75;0.25;0.0;0.0;1.75;0.25;0.5;0.25;0.0;2.0;0.25;0.0;-0.230957;0.019043;0.997559;-0.56;0.49;0.56;386.0;-0.241089;0.017575;4.5;3.0;4.5;2.5;0.75;1.0;0.0;0.5;0.25;0.5;1.25;1.0;0.5;2.5;0.25;0.5;-0.256836;0.036621;0.972656;-0.91;-1.05;0.7;264.0;-0.147063;-0.038673
3.52;9.25;6.5;8.0;4.0;0.75;0.25;0.0;0.0;1.75;0.25;0.5;0.25;0.0;1.5;0.25;0.25;-0.239746;0.015625;0.986328;-0.63;0.42;0.63;382.0;-0.246694;0.014347;4.5;3.0;4.5;2.75;0.75;1.0;0.0;0.5;0.25;0.75;1.25;0.75;0.5;2.5;0.5;0.5;-0.251953;0.036621;0.972168;-0.77;-0.91;0.7;270.0;-0.14245;-0.037379
3.53;9.5;6.25;8.0;4.0;0.75;0.5;0.25;0.0;1.75;0.25;0.5;0.25;0.0;1.5;0.25;0.0;-0.233398;0.018066;0.983887;-0.56;0.49;0.63;388.0;-0.244857;0.017679;4.5;3.0;4.25;2.75;0.75;1.0;0.0;0.5;0.25;0.5;1.5;0.75;0.5;2.5;0.25;0.5;-0.251465;0.040039;0.967773;-0.91;-0.84;0.7;264.0;-0.147132;-0.040297
3.54;9.5;6.25;7.75;4.0;0.75;0.5;0.25;0.0;1.75;0.0;0.5;0.25;0.0;1.75;0.25;0.0;-0.231934;0.018555;0.980957;-0.7;0.49;0.56;385.0;-0.244312;0.017736;4.25;3.0;4.25;2.5;0.75;0.75;0.0;0.5;0.25;0.5;1.5;1.0;0.25;2.5;0.25;0.5;-0.251953;0.041504;0.96875;-0.84;-0.98;0.7;256.0;-0.1415;-0.036077
3.55;9.5;6.25;7.75;4.0;0.75;0.5;0.25;0.0;1.75;0.25;0.5;0.25;0.0;2.0;0.25;0.0;-0.233398;0.017578;0.982422;-0.56;0.49;0.63;390.0;-0.236869;0.019025;4.0;3.0;4.25;2.5;0.75;0.75;0.0;0.5;0.25;0.75;1.5;1.0;0.5;2.5;0.25;0.5;-0.254395;0.043945;0.973145;-0.77;-0.91;0.7;258.0;-0.131589;-0.040447
3.56;9.5;6.25;8.0;4.25;0.75;0.5;0.25;0.0;2.0;0.25;0.75;0.25;0.0;2.0;0.25;0.0;-0.23877;0.020508;0.983398;-0.63;0.49;0.56;402.0;-0.229791;0.01905;4.0;3.25;4.25;2.25;0.75;0.75;0.0;0.5;0.25;0.75;1.5;1.0;0.25;2.5;0.25;0.5;-0.253906;0.039062;0.969238;-0.63;-0.91;0.7;255.0;-0.135348;-0.035637
3.57;9.5;6.25;8.0;4.25;0.75;0.75;0.25;0.0;1.75;0.25;0.5;0.0;0.0;1.75;0.25;0.25;-0.230469;0.018066;0.980957;-0.63;0.42;0.56;395.0;-0.241664;0.015637;4.0;3.25;4.25;2.5;0.75;0.75;0.0;0.5;0.25;0.5;1.25;1.0;0.5;2.5;0.5;0.5;-0.257812;0.041504;0.96582;-0.7;-0.77;0.7;258.0;-0.136448;-0.042452
3.58;9.25;6.25;8.0;4.0;0.75;0.5;0.25;0.0;1.75;0.25;0.75;0.25;0.0;1.75;0.0;0.25;-0.23877;0.018066;0.987305;-0.56;0.49;0.49;389.0;-0.238828;0.016463;4.25;3.0;4.25;2.5;0.75;1.0;0.0;0.5;0.25;0.5;1.25;1.0;0.25;2.5;0.25;0.5;-0.254883;0.041992;0.969238;-0.84;-0.91;0.7;256.0;-0.145732;-0.037938
3.59;9.25;6.25;8.0;4.0;0.75;0.5;0.25;0.0;1.75;0.25;0.75;0.0;0.0;2.0;0.25;0.25;-0.237305;0.015137;0.98291;-0.56;0.28;0.63;392.0;-0.233531;0.018997;4.25;3.0;4.25;2.5;0.75;1.0;0.0;0.5;0.25;0.75;1.5;1.0;0.5;2.5;0.5;0.5;-0.24707;0.039062;0.96875;-0.77;-0.84;0.7;267.0;-0.128906;-0.041903
3.6;9.5;6.25;8.25;4.0;0.75;0.5;0.25;0.0;2.0;0.0;0.5;0.25;0.0;1.75;0.25;0.25;-0.230469;0.02002;0.983398;-0.49;0.42;0.49;396.0;-0.237853;0.019915;4.5;3.5;4.25;2.5;0.75;1.0;0.0;0.5;0.25;0.75;1.25;1.0;0.5;2.5;0.5;0.5;-0.257812;0.038086;0.975586;-0.77;-0.84;0.7;272.0;-0.140831;-0.041859
3.61;9.5;6.25;7.75;4.0;0.75;0.25;0.25;0.0;2.0;0.0;0.25;0.25;0.0;2.0;0.25;0.25;-0.234375;0.02002;0.980957;-0.56;0.42;0.49;386.0;-0.237601;0.023029;4.25;3.5;4.5;2.5;0.75;1.0;0.0;0.5;0.25;0.75;1.5;1.0;0.5;2.5;0.5;0.75;-0.255371;0.038574;0.967773;-0.77;-0.84;0.7;276.0;-0.133039;-0.044177
3.62;9.5;6.25;8.0;4.0;0.75;0.25;0.25;0.0;1.75;0.25;0.5;0.25;0.0;2.0;0.25;0.0;-0.236328;0.021973;0.980469;-0.56;0.28;0.63;390.0;-0.237738;0.021801;4.25;3.5;4.5;2.5;0.75;1.0;0.0;0.5;0.25;0.75;1.5;1.0;0.5;2.5;0.5;0.5;-0.253906;0.040039;0.967285;-0.84;-0.91;0.7;275.0;-0.135697;-0.042726
3.63;9.25;6.75;8.0;3.75;0.75;0.25;0.25;0.0;2.0;0.25;0.5;0.25;0.0;2.0;0.0;0.25;-0.236328;0.018066;0.98877;-0.49;0.49;0.56;391.0;-0.236411;0.022439;4.25;3.25;4.25;2.5;1.0;0.75;0.0;0.5;0.25;0.5;1.5;1.0;0.5;2.5;0.5;0.5;-0.250977;0.041504;0.976074;-0.77;-0.91;0.63;266.0;-0.135265;-0.040466
3.64;9.5;6.5;8.0;4.0;0.75;0.25;0.25;0.0;2.0;0.25;0.5;0.0;0.0;2.25;0.25;0.25;-0.232422;0.021484;0.981934;-0.56;0.49;0.56;397.0;-0.231631;0.024849;4.0;3.0;4.25;2.5;0.75;0.75;0.0;0.5;0.25;0.5;1.25;1.25;0.5;2.25;0.75;0.5;-0.249512;0.041504;0.967773;-0.77;-0.84;0.63;259.0;-0.128774;-0.046484
3.65;9.25;6.5;8.0;4.0;0.75;0.5;0.25;0.0;2.0;0.25;0.5;0.25;0.25;2.25;0.25;0.25;-0.23584;0.015625;0.981445;-0.77;0.56;0.49;402.0;-0.224335;0.016913;4.25;3.0;4.25;2.5;0.75;0.75;0.0;0.25;0.25;0.75;1.5;1.0;0.5;2.5;0.75;0.5;-0.25;0.037598;0.974121;-0.84;-0.91;0.7;263.0;-0.124632;-0.034176
3.66;9.25;6.25;8.0;4.0;0.75;0.5;0.25;0.0;2.0;0.25;0.75;0.25;0.0;2.0;0.0;0.25;-0.23291;0.018555;0.979004;-0.63;0.63;0.56;395.0;-0.230521;0.019744;4.25;3.0;4.25;2.5;0.75;0.75;0.0;0.25;0.25;0.75;1.25;1.0;0.5;2.5;0.75;1.0;-0.253418;0.039551;0.970215;-0.84;-0.91;0.7;263.0;-0.122981;-0.036438
3.67;9.25;6.25;8.25;4.0;0.75;0.5;0.25;0.0;1.75;0.25;0.75;0.25;0.0;2.0;0.0;0.25;-0.229492;0.018066;0.984375;-0.56;0.28;0.56;395.0;-0.235203;0.017974;4.25;3.5;4.25;2.5;0.75;0.75;0.0;0.5;0.0;0.75;1.5;1.0;0.5;2.5;0.75;0.5;-0.250488;0.041504;0.978027;-0.7;-0.91;0.7;268.0;-0.133458;-0.046324
3.68;9.25;6.25;8.0;4.0;0.75;0.5;0.25;0.0;1.75;0.25;0.75;0.25;0.25;2.0;0.25;0.0;-0.232422;0.020996;0.983398;-0.63;0.49;0.49;395.0;-0.230131;0.015086;4.0;3.25;4.25;2.25;0.75;0.75;0.0;0.5;0.0;0.5;1.25;1.0;0.5;2.75;0.75;0.5;-0.250977;0.041992;0.967285;-0.77;-0.91;0.7;256.0;-0.129106;-0.043189
3.69;9.25;6.25;7.75;4.0;0.75;0.25;0.25;0.0;2.0;0.25;0.75;0.25;0.0;1.75;0.25;0.25;-0.233398;0.018066;0.981445;-0.7;0.35;0.56;390.0;-0.229982;0.019743;4.0;3.0;4.25;2.5;0.75;0.75;0.0;0.25;0.0;0.75;1.25;1.25;0.5;2.5;0.75;0.5;-0.246582;0.037598;0.974609;-0.7;-0.91;0.77;256.0;-0.12704;-0.042094
3.7;9.25;6.25;8.25;4.0;0.75;0.25;0.25;0.0;2.0;0.25;0.75;0.25;0.0;2.0;0.25;0.25;-0.23584;0.014648;0.990234;-0.63;0.35;0.49;398.0;-0.226779;0.021729;4.25;3.25;4.25;2.5;0.75;0.75;0.0;0.5;0.25;0.75;1.25;1.0;0.5;2.5;0.75;0.75;-0.253906;0.040527;0.97168;-0.77;-0.91;0.7;268.0;-0.126696;-0.04165
3.71;9.25;6.5;8.25;4.0;0.75;0.5;0.25;0.0;2.0;0.25;0.75;0.0;0.0;2.25;0.25;0.25;-0.235352;0.012695;0.979004;-0.77;0.49;0.49;403.0;-0.22685;0.021551;4.25;3.0;4.25;2.75;1.0;1.0;0.0;0.25;0.0;0.5;1.5;1.0;0.5;2.5;0.5;0.75;-0.253418;0.041992;0.972168;-0.7;-0.84;0.77;264.0;-0.138968;-0.04424
3.72;9.5;6.75;8.25;4.0;1.0;0.75;0.25;0.0;2.0;0.25;0.5;0.0;0.0;2.25;0.0;0.25;-0.231445;0.01709;0.983398;-0.7;0.56;0.49;409.0;-0.235572;0.020836;4.0;3.0;4.25;2.5;0.75;0.75;0.0;0.5;0.25;0.5;1.25;1.0;0.5;2.5;0.25;0.5;-0.249023;0.04248;0.979004;-0.7;-0.98;0.7;252.0;-0.139829;-0.040767
3.73;9.5;6.25;8.25;4.0;0.75;0.75;0.25;0.0;2.25;0.25;0.5;0.25;0.0;2.25;0.25;0.25;-0.237305;0.010742;0.979492;-0.7;0.63;0.49;410.0;-0.222239;0.022102;4.25;3.0;4.25;2.25;0.75;0.75;0.0;0.5;0.25;0.5;1.25;1.25;0.5;2.5;0.5;0.5;-0.247559;0.036133;0.966309;-0.77;-0.91;0.7;258.0;-0.131027;-0.040294
3.74;9.5;6.5;8.0;4.25;0.75;0.5;0.25;0.0;2.25;0.25;0.75;0.25;0.0;1.75;0.25;0.25;-0.234863;0.011719;0.985352;-0.63;0.7;0.56;408.0;-0.228194;0.018032;4.25;3.25;4.25;2.5;0.75;0.75;0.0;0.5;0.25;0.75;1.25;1.5;0.5;2.5;0.5;0.5;-0.25;0.039551;0.970703;-0.7;-0.84;0.7;269.0;-0.127887;-0.045161
3.75;9.5;6.25;8.0;4.25;1.0;0.5;0.25;0.0;2.25;0.25;0.75;0.25;0.25;1.75;0.0;0.25;-0.22998;0.021973;0.982422;-0.7;0.49;0.63;408.0;-0.228445;0.017424;4.0;3.25;4.25;2.25;0.75;0.75;0.0;0.25;0.25;0.5;1.5;1.25;0.75;2.75;0.5;0.75;-0.253906;0.041016;0.973145;-0.7;-0.91;0.7;263.0;-0.118556;-0.041752
3.76;9.25;6.25;8.0;4.25;0.75;0.5;0.25;0.0;2.25;0.25;0.75;0.25;0.0;2.25;0.0;0.25;-0.237305;0.02002;0.977539;-0.63;0.49;0.56;404.0;-0.222941;0.02109;3.75;3.0;4.25;2.5;0.75;1.0;0.0;0.5;0.25;0.5;1.25;1.0;0.75;2.5;0.5;0.5;-0.254883;0.038574;0.968262;-0.84;-0.77;0.63;258.0;-0.128168;-0.049391
3.77;9.25;6.25;8.0;4.0;0.75;0.5;0.25;0.0;2.25;0.25;0.5;0.25;0.0;2.25;0.25;0.25;-0.231934;0.020996;0.981445;-0.56;0.49;0.56;401.0;-0.221152;0.023167;4.0;3.0;4.25;2.75;0.75;1.0;0.0;0.25;0.25;0.5;1.25;1.0;0.75;2.5;0.5;0.5;-0.260254;0.037598;0.970703;-0.7;-0.91;0.63;259.0;-0.134868;-0.044199
3.78;9.5;6.25;8.0;4.0;0.75;0.25;0.25;0.0;2.25;0.0;0.5;0.25;0.25;2.0;0.25;0.25;-0.239258;0.018555;0.98584;-0.7;0.35;0.49;398.0;-0.227641;0.02193;4.0;3.0;4.25;2.5;0.5;1.0;0.0;0.25;0.25;0.75;1.25;1.0;0.5;2.75;0.5;0.5;-0.253418;0.039551;0.970215;-0.7;-0.84;0.63;256.0;-0.126869;-0.036277
3.79;9.25;6.25;8.25;4.0;0.75;0.25;0.25;0.0;2.25;0.25;0.75;0.25;0.0;2.25;0.0;0.25;-0.23291;0.019043;0.983887;-0.77;0.56;0.56;401.0;-0.223305;0.025626;4.0;3.0;4.25;2.5;0.75;0.75;0.0;0.25;0.25;0.75;1.5;1.0;0.5;2.5;0.5;0.5;-0.252441;0.035645;0.970215;-0.7;-0.77;0.7;257.0;-0.127504;-0.035217
3.8;9.25;6.25;8.0;4.0;0.75;0.25;0.25;0.0;2.0;0.25;0.75;0.5;0.0;2.0;0.25;0.25;-0.234375;0.015137;0.982422;-0.77;0.63;0.56;398.0;-0.223328;0.018911;4.25;3.25;4.25;2.5;0.75;0.75;0.0;0.5;0.0;0.75;1.5;0.75;0.5;2.5;0.5;0.5;-0.253418;0.043945;0.970703;-0.84;-0.98;0.77;260.0;-0.140473;-0.042001
3.81;9.5;6.25;8.0;4.0;0.75;0.25;0.25;0.0;2.0;0.25;0.75;0.25;0.0;1.75;0.25;0.25;-0.234863;0.016113;0.98291;-0.56;0.42;0.63;396.0;-0.231495;0.020917;4.25;3.0;4.25;2.25;0.75;0.75;0.0;0.5;0.0;0.75;1.5;1.0;0.5;2.5;0.5;0.75;-0.253906;0.037598;0.966309;-0.63;-0.84;0.63;259.0;-0.129324;-0.043054
3.82;9.5;6.25;8.0;4.0;0.75;0.5;0.25;0.0;2.0;0.25;0.5;0.25;0.0;1.75;0.0;0.25;-0.233398;0.013184;0.98584;-0.7;0.56;0.56;393.0;-0.238888;0.02044;4.0;3.0;4.25;2.5;0.75;1.0;0.0;0.5;0.25;0.75;1.5;1.0;0.5;2.5;0.5;0.75;-0.251953;0.036133;0.971191;-0.77;-0.98;0.77;265.0;-0.123252;-0.045026
3.83;9.5;6.25;8.0;4.0;0.75;0.25;0.25;0.0;2.0;0.5;0.25;0.25;0.0;2.25;0.0;0.25;-0.228516;0.02002;0.979492;-0.63;0.56;0.56;395.0;-0.231791;0.025804;4.0;3.0;4.25;2.5;0.75;1.0;0.0;0.5;0.25;0.75;1.25;1.0;0.25;2.5;0.5;0.5;-0.250488;0.043457;0.966797;-0.84;-0.84;0.77;259.0;-0.132544;-0.038914
3.84;9.5;6.25;8.25;4.0;0.75;0.5;0.25;0.0;2.0;0.25;0.5;0.25;0.0;2.25;0.25;0.25;-0.22998;0.01416;0.983398;-0.49;0.42;0.7;403.0;-0.226998;0.022042;4.25;3.0;4.25;2.5;0.75;0.75;0.0;0.25;0.25;0.75;1.25;1.0;0.5;2.5;0.5;0.75;-0.255859;0.036133;0.974121;-0.7;-0.84;0.7;258.0;-0.131641;-0.034341
3.85;9.5;6.25;8.0;3.75;0.75;0.5;0.25;0.0;2.0;0.25;0.5;0.25;0.0;2.25;0.0;0.25;-0.235352;0.014648;0.990234;-0.7;0.56;0.56;395.0;-0.230851;0.024155;4.25;2.5;4.5;2.5;0.75;0.75;0.0;0.5;0.25;0.75;1.25;1.0;0.5;2.5;0.5;0.75;-0.249512;0.039062;0.96875;-0.7;-0.84;0.63;260.0;-0.125786;-0.036057
3.86;9.5;6.5;7.75;4.0;0.75;0.5;0.25;0.0;2.0;0.5;0.5;0.25;0.0;2.0;0.0;0.25;-0.239258;0.018066;0.984375;-0.49;0.56;0.63;397.0;-0.232579;0.019959;4.0;3.0;4.25;2.5;0.75;1.0;0.0;0.5;0.25;0.75;1.25;1.0;0.5;2.5;0.5;0.75;-0.256348;0.041504;0.977539;-0.77;-0.84;0.7;263.0;-0.127056;-0.044254
3.87;9.25;6.25;8.0;4.0;0.75;0.5;0.25;0.0;2.25;0.25;0.5;0.25;0.0;2.0;0.25;0.25;-0.236328;0.017578;0.988281;-0.63;0.42;0.63;399.0;-0.224841;0.022267;4.0;3.25;4.25;2.25;0.75;1.0;0.0;0.5;0.25;0.75;1.25;1.0;0.5;2.75;0.5;0.5;-0.250977;0.036133;0.971191;-0.77;-0.84;0.63;263.0;-0.125981;-0.039886
3.88;9.25;6.25;8.25;4.0;0.75;0.5;0.25;0.0;2.25;0.0;0.5;0.25;0.0;2.0;0.25;0.25;-0.237305;0.015625;0.98291;-0.7;0.49;0.56;399.0;-0.228466;0.022483;4.0;3.0;4.25;2.25;0.75;1.0;0.0;0.5;0.25;0.75;1.25;1.0;0.5;2.75;0.5;0.5;-0.257812;0.041016;0.972656;-0.7;-0.77;0.7;260.0;-0.123169;-0.038664
3.89;9.5;6.0;8.25;4.25;0.75;0.5;0.25;0.0;2.5;0.25;0.5;0.25;0.0;2.0;0.25;0.25;-0.228027;0.018066;0.983398;-0.7;0.49;0.56;409.0;-0.221446;0.024921;4.0;3.0;4.25;2.25;0.75;0.75;0.0;0.5;0.25;0.75;1.25;1.0;0.5;2.75;0.5;0.75;-0.250488;0.036133;0.969238;-0.84;-0.91;0.7;259.0;-0.12007;-0.037546
3.9;9.5;6.0;8.25;4.0;0.75;0.5;0.25;0.0;2.25;0.0;0.5;0.25;0.0;2.25;0.25;0.0;-0.230957;0.017578;0.989258;-0.63;0.49;0.56;400.0;-0.226978;0.026427;4.0;3.25;4.25;2.5;0.75;0.75;0.0;0.25;0.25;0.75;1.25;1.0;0.5;2.5;0.5;0.75;-0.25;0.037109;0.966797;-0.91;-0.84;0.77;258.0;-0.131446;-0.037199
3.91;9.25;6.25;8.25;4.0;0.75;0.5;0.25;0.0;2.25;0.0;0.75;0.0;0.0;2.25;0.5;0.0;-0.23584;0.016113;0.983398;-0.7;0.49;0.56;403.0;-0.222312;0.025166;4.0;2.75;4.25;2.25;0.75;0.75;0.0;0.5;0.25;0.75;1.25;1.0;0.5;2.75;0.75;0.75;-0.255371;0.038574;0.976074;-0.7;-0.84;0.63;259.0;-0.111353;-0.03679
3.92;9.5;6.25;8.0;4.0;0.75;0.5;0.25;0.0;2.25;0.25;0.75;0.25;0.0;2.25;0.25;0.0;-0.239258;0.021973;0.988281;-0.63;0.49;0.63;405.0;-0.221394;0.024016;4.0;2.75;4.25;2.5;0.75;0.75;0.0;0.5;0.25;0.5;1.5;1.0;0.5;2.75;0.5;0.75;-0.254395;0.038574;0.975586;-0.77;-0.91;0.63;259.0;-0.11926;-0.040437
3.93;9.25;6.25;8.0;4.0;0.75;0.5;0.25;0.0;2.25;0.25;0.5;0.25;0.0;2.0;0.25;0.0;-0.236816;0.019531;0.990234;-0.7;0.56;0.56;397.0;-0.227023;0.02352;4.0;2.75;4.25;2.5;0.75;0.75;0.0;0.5;0.25;0.5;1.25;1.25;0.75;2.75;0.75;0.75;-0.25293;0.035645;0.972168;-0.77;-0.84;0.7;265.0;-0.111146;-0.0466
3.94;9.25;6.0;8.25;4.0;0.75;0.5;0.25;0.0;2.25;0.25;0.5;0.25;0.0;2.0;0.25;0.0;-0.235352;0.019043;0.981445;-0.56;0.49;0.56;398.0;-0.226117;0.025225;4.0;3.0;4.25;2.5;0.75;0.75;0.0;0.5;0.25;0.5;1.25;1.25;0.75;2.75;0.5;0.5;-0.251953;0.04248;0.969238;-0.84;-0.98;0.7;263.0;-0.122389;-0.045854
3.95;9.0;6.25;8.25;4.0;1.0;0.5;0.25;0.0;2.25;0.25;0.75;0.25;0.0;2.0;0.25;0.25;-0.233887;0.018555;0.984863;-0.63;0.49;0.56;405.0;-0.219978;0.02148;4.0;2.75;4.25;2.5;0.75;0.75;0.0;0.5;0.25;0.75;1.25;1.25;0.5;2.75;0.5;0.5;-0.254395;0.04248;0.966797;-0.84;-0.84;0.63;261.0;-0.118226;-0.039742
3.96;9.25;6.5;8.25;4.0;1.0;0.25;0.25;0.0;2.25;0.25;0.75;0.25;0.0;2.25;0.5;0.25;-0.231445;0.021484;0.984863;-0.63;0.56;0.56;412.0;-0.215004;0.023216;4.0;3.0;4.25;2.5;0.75;0.75;0.0;0.5;0.25;0.75;1.25;1.25;0.5;2.75;1.25;0.5;-0.25;0.044922;0.971191;-0.84;-0.98;0.63;272.0;-0.104362;-0.042255
3.97;9.5;6.25;8.25;4.0;0.75;0.25;0.25;0.0;2.25;0.25;0.5;0.25;0.0;2.25;0.5;0.25;-0.237793;0.022949;0.980469;-0.49;0.35;0.56;407.0;-0.218825;0.025681;4.25;2.5;4.25;2.5;0.75;0.75;0.0;0.5;0.0;0.75;1.25;1.25;0.5;2.75;0.75;0.5;-0.251465;0.038086;0.966309;-0.7;-0.84;0.77;260.0;-0.11779;-0.041685
3.98;9.5;6.25;8.0;4.0;0.75;0.5;0.25;0.0;2.25;0.25;0.25;0.25;0.0;2.25;0.25;0.0;-0.238281;0.022461;0.985352;-0.56;0.56;0.49;400.0;-0.227797;0.026018;4.0;3.5;4.25;2.5;0.75;1.0;0.0;0.5;0.25;0.75;1.5;1.25;0.5;2.5;0.5;0.75;-0.25293;0.041992;0.968262;-0.84;-0.91;0.63;273.0;-0.125164;-0.049901
3.99;9.25;6.25;8.25;4.25;0.75;0.25;0.25;0.0;2.0;0.5;0.25;0.25;0.0;2.25;0.25;0.0;-0.234375;0.021484;0.98291;-0.63;0.49;0.56;399.0;-0.228858;0.024302;4.0;3.0;4.25;2.25;0.75;0.75;0.0;0.5;0.25;0.75;1.25;1.0;0.5;2.5;0.5;0.5;-0.253906;0.035645;0.975098;-0.77;-0.91;0.63;255.0;-0.127705;-0.037902
4.0;9.25;6.25;8.25;3.75;0.75;0.25;0.25;0.0;2.0;0.25;0.5;0.25;0.0;2.25;0.25;0.25;-0.237305;0.026855;0.985352;-0.63;0.49;0.56;395.0;-0.225838;0.025518;4.0;3.0;4.25;2.5;0.75;0.75;0.0;0.5;0.0;0.75;1.25;1.0;0.5;2.75;0.25;0.5;-0.253418;0.040527;0.969727;-0.63;-0.84;0.63;254.0;-0.136103;-0.042036
4.01;9.0;6.25;8.25;4.25;0.75;0.5;0.25;0.0;2.25;0.25;0.5;0.25;0.0;2.0;0.25;0.25;-0.235352;0.019531;0.979492;-0.49;0.35;0.63;402.0;-0.224361;0.020323;4.0;3.0;4.25;2.25;0.75;0.75;0.0;0.5;0.0;0.75;1.5;1.0;0.5;2.5;0.25;0.75;-0.25293;0.041504;0.973145;-0.7;-0.84;0.63;253.0;-0.132345;-0.044309
4.02;9.5;6.25;8.0;4.25;1.0;0.5;0.25;0.0;2.25;0.25;0.5;0.25;0.0;2.25;0.25;0.0;-0.233887;0.021484;0.984375;-0.63;0.63;0.56;408.0;-0.224306;0.023443;3.75;3.0;4.25;2.5;0.75;0.75;0.0;0.5;0.0;0.75;1.5;1.0;0.5;2.5;0.25;0.5;-0.251465;0.041504;0.973633;-0.84;-0.98;0.7;252.0;-0.134047;-0.046597
4.03;9.25;6.25;8.0;4.0;0.75;0.5;0.25;0.0;2.0;0.0;0.5;0.5;0.25;2.0;0.25;0.0;-0.233398;0.019043;0.983887;-0.63;0.49;0.49;396.0;-0.229213;0.015758;3.75;3.0;4.25;2.5;0.75;0.75;0.0;0.25;0.0;0.5;1.5;1.0;0.5;3.0;0.25;0.5;-0.248047;0.040039;0.967285;-0.77;-0.91;0.63;249.0;-0.13017;-0.037917
4.04;9.5;6.25;8.25;4.0;0.75;0.5;0.25;0.0;2.25;0.25;0.5;0.5;0.0;1.75;0.25;0.25;-0.236816;0.018555;0.981934;-0.63;0.42;0.56;405.0;-0.226959;0.020222;4.0;3.0;4.25;2.5;0.75;0.75;0.0;0.25;0.25;0.75;1.5;1.0;0.5;2.75;0.5;0.75;-0.252441;0.038574;0.966309;-0.7;-0.91;0.77;261.0;-0.119921;-0.034902
4.05;9.5;6.25;8.0;4.0;0.75;0.25;0.25;0.0;2.5;0.25;0.5;0.25;0.0;2.0;0.25;0.0;-0.237793;0.015137;0.98584;-0.63;0.35;0.56;401.0;-0.224509;0.028561;4.0;3.0;4.25;2.25;0.75;0.75;0.0;0.5;0.25;0.5;1.25;1.0;0.5;2.75;0.5;0.5;-0.250488;0.038086;0.975586;-0.77;-0.98;0.77;255.0;-0.126889;-0.037073
4.06;9.0;6.25;8.25;3.75;0.75;0.25;0.25;0.0;2.0;0.25;0.5;0.0;0.0;2.25;0.25;0.0;-0.230957;0.019043;0.981934;-0.63;0.49;0.63;387.0;-0.230018;0.028598;4.0;2.75;4.25;2.25;0.75;0.75;0.0;0.25;0.25;0.5;1.25;1.25;0.25;3.0;0.25;0.5;-0.255371;0.043457;0.969727;-0.84;-0.84;0.63;248.0;-0.125912;-0.026247
4.07;9.5;6.0;8.0;3.75;0.75;0.5;0.25;0.0;2.25;0.25;0.5;0.0;0.0;2.25;0.25;0.0;-0.230469;0.01709;0.983887;-0.56;0.49;0.49;394.0;-0.226036;0.030481;4.0;3.25;4.25;2.5;0.75;0.75;0.0;0.5;0.0;0.5;1.25;1.25;0.5;2.75;0.0;0.75;-0.249023;0.042969;0.970215;-0.77;-1.05;0.63;255.0;-0.142401;-0.048431
4.08;9.25;6.25;8.0;4.0;0.75;0.5;0.25;0.0;2.0;0.25;0.5;0.25;0.0;2.25;0.25;0.0;-0.237793;0.020508;0.98584;-0.49;0.56;0.56;396.0;-0.227639;0.022159;4.0;3.25;4.25;2.5;0.75;1.0;0.0;0.25;0.0;1.0;1.5;1.0;0.25;2.75;0.25;0.75;-0.258301;0.037598;0.972168;-0.7;-0.91;0.7;260.0;-0.132832;-0.037683
4.09;9.5;6.0;8.0;4.25;0.75;0.25;0.25;0.0;2.0;0.25;0.5;0.25;0.0;2.25;0.25;0.25;-0.230957;0.016602;0.981934;-0.42;0.56;0.56;398.0;-0.226517;0.023063;4.0;2.75;4.25;2.5;0.75;1.0;0.0;0.25;0.25;0.75;1.5;1.25;0.25;2.75;0.5;0.75;-0.246582;0.039551;0.969727;-0.7;-0.91;0.7;262.0;-0.116417;-0.035377
4.1;9.5;6.0;8.0;4.0;0.75;0.5;0.25;0.0;2.5;0.25;0.5;0.25;0.0;2.25;0.25;0.25;-0.236328;0.018066;0.979004;-0.56;0.49;0.49;405.0;-0.216991;0.027162;4.0;3.0;4.25;2.25;0.75;0.75;0.0;0.5;0.0;0.75;1.25;1.25;0.5;2.75;0.5;0.75;-0.252441;0.036621;0.969238;-0.77;-0.98;0.63;258.0;-0.121616;-0.044746
4.11;9.25;6.25;8.25;4.25;1.0;0.5;0.25;0.0;2.5;0.25;0.5;0.25;0.0;2.25;0.25;0.25;-0.230469;0.018066;0.989258;-0.42;0.49;0.63;414.0;-0.217137;0.024305;4.25;3.0;4.25;2.25;0.75;0.75;0.0;0.5;0.0;0.75;1.5;1.0;0.5;2.75;0.5;0.75;-0.258301;0.036621;0.961914;-0.84;-0.98;0.77;261.0;-0.124505;-0.041091
4.12;9.5;6.0;8.0;4.0;1.0;0.5;0.25;0.0;2.25;0.25;0.5;0.0;0.0;2.25;0.25;0.25;-0.233887;0.018066;0.980957;-0.63;0.63;0.63;402.0;-0.223579;0.027536;4.0;3.25;4.25;2.5;0.75;0.75;0.0;0.5;0.25;0.75;1.25;1.0;0.5;2.5;0.5;0.5;-0.251953;0.036133;0.975098;-0.77;-0.91;0.7;261.0;-0.132338;-0.041293
4.13;9.25;6.0;8.25;4.0;1.0;0.5;0.25;0.0;2.25;0.25;0.75;0.25;0.0;2.25;0.25;0.0;-0.23291;0.017578;0.981934;-0.63;0.56;0.63;406.0;-0.218536;0.02537;3.75;3.5;4.25;2.5;0.75;0.75;0.0;0.5;0.0;0.75;1.25;1.0;0.5;2.5;0.75;0.75;-0.253906;0.038086;0.976074;-0.77;-0.98;0.7;261.0;-0.128748;-0.050441
