Time;left pressure 1[N/cm²];left pressure 2[N/cm²];left pressure 3[N/cm²];left pressure 4[N/cm²];left pressure 5[N/cm²];left pressure 6[N/cm²];left pressure 7[N/cm²];left pressure 8[N/cm²];left pressure 9[N/cm²];left pressure 10[N/cm²];left pressure 11[N/cm²];left pressure 12[N/cm²];left pressure 13[N/cm²];left pressure 14[N/cm²];left pressure 15[N/cm²];left pressure 16[N/cm²];left acceleration X[g];left acceleration Y[g];left acceleration Z[g];left angular X[dps];left angular Y[dps];left angular Z[dps];left total force[N];left center of pressure X[-0.5...+0.5];left center of pressure Y[-0.5...+0.5];right pressure 1[N/cm²];right pressure 2[N/cm²];right pressure 3[N/cm²];right pressure 4[N/cm²];right pressure 5[N/cm²];right pressure 6[N/cm²];right pressure 7[N/cm²];right pressure 8[N/cm²];right pressure 9[N/cm²];right pressure 10[N/cm²];right pressure 11[N/cm²];right pressure 12[N/cm²];right pressure 13[N/cm²];right pressure 14[N/cm²];right pressure 15[N/cm²];right pressure 16[N/cm²];right acceleration X[g];right acceleration Y[g];right acceleration Z[g];right angular X[dps];right angular Y[dps];right angular Z[dps];right total force[N];right center of pressure X[-0.5...+0.5];right center of pressure Y[-0.5...+0.5]
0.0;8.75;2.25;8.25;1.75;0.5;0.0;0.25;0.0;2.0;0.0;0.25;0.0;0.0;2.75;0.25;0.0;-0.235352;0.013672;0.98877;-0.77;0.49;0.63;313.0;-0.200671;0.078102;4.0;6.25;4.75;4.5;1.0;1.0;0.0;0.25;0.75;0.5;1.0;0.5;0.25;2.0;0.5;0.5;-0.250488;0.030273;0.978027;-0.63;-0.98;0.7;311.0;-0.19071;-0.04994
0.01;8.75;2.25;8.5;1.75;0.75;0.0;0.25;0.0;1.75;0.0;0.25;0.0;0.0;2.75;0.5;0.0;-0.232422;0.015137;0.986816;-0.77;0.56;0.49;319.0;-0.200239;0.074407;4.0;6.25;4.75;4.5;1.0;1.0;0.0;0.25;0.75;0.5;1.0;0.5;0.25;2.0;0.5;0.5;-0.250488;0.030273;0.978027;-0.63;-0.98;0.7;311.0;-0.19071;-0.04994
0.02;8.5;2.5;8.5;1.75;0.75;0.0;0.25;0.0;1.75;0.0;0.0;0.0;0.0;2.75;0.5;0.0;-0.236816;0.009277;0.985352;-0.77;0.56;0.56;315.0;-0.204011;0.073901;4.0;6.25;4.75;4.5;1.0;1.0;0.0;0.25;0.75;0.5;1.0;0.5;0.25;2.0;0.5;0.5;-0.250488;0.030273;0.978027;-0.63;-0.98;0.7;311.0;-0.19071;-0.04994
0.03;8.5;2.5;8.75;1.75;0.75;0.0;0.25;0.0;1.25;0.0;0.0;0.0;0.0;2.75;0.5;0.0;-0.227051;0.010742;0.988281;-0.84;0.56;0.49;311.0;-0.215191;0.069447;4.0;6.25;4.75;4.5;1.0;1.0;0.0;0.25;0.75;0.5;1.0;0.5;0.25;2.0;0.5;0.5;-0.250488;0.030273;0.978027;-0.63;-0.98;0.7;311.0;-0.19071;-0.04994
0.04;8.5;2.25;8.5;1.75;0.75;0.0;0.25;0.0;1.25;0.0;0.0;0.0;0.0;2.75;0.5;0.0;-0.227539;0.010742;0.994629;-0.77;0.56;0.56;306.0;-0.213029;0.071191;4.0;6.25;4.75;4.5;1.0;1.0;0.0;0.25;0.75;0.5;1.0;0.5;0.25;2.0;0.5;0.5;-0.250488;0.030273;0.978027;-0.63;-0.98;0.7;311.0;-0.19071;-0.04994
0.05;8.75;2.25;8.5;1.75;0.75;0.0;0.25;0.0;1.5;0.25;0.0;0.0;0.0;2.75;0.25;0.0;-0.229004;0.013184;0.987305;-0.77;0.42;0.63;312.0;-0.210946;0.075202;4.0;6.25;4.75;4.5;1.0;0.5;0.0;0.25;0.75;0.5;1.0;0.5;0.25;2.0;0.75;0.5;-0.245605;0.019531;0.980469;-0.56;-0.84;0.77;308.0;-0.18589;-0.045938
0.06;8.75;2.5;8.5;1.75;0.75;0.0;0.25;0.0;1.25;0.0;0.0;0.0;0.0;2.75;0.25;0.0;-0.228027;0.012695;0.986328;-0.7;0.49;0.56;308.0;-0.222212;0.071023;3.75;6.25;4.75;4.5;1.0;0.75;0.0;0.25;0.5;0.5;1.25;0.5;0.25;1.75;0.5;0.5;-0.246094;0.026367;0.972656;-0.7;-0.91;0.7;303.0;-0.195075;-0.055434
0.07;8.75;2.25;8.5;1.75;0.75;0.0;0.25;0.0;1.75;0.0;0.0;0.0;0.0;2.75;0.0;0.0;-0.231934;0.005859;0.990234;-0.77;0.42;0.56;310.0;-0.215412;0.079057;4.0;6.25;4.75;4.5;1.0;0.75;0.0;0.25;0.5;0.75;1.0;0.75;0.25;2.25;0.25;0.25;-0.249023;0.03125;0.975586;-0.77;-0.91;0.77;309.0;-0.192225;-0.049518
0.08;9.0;2.25;8.5;1.75;0.75;0.0;0.25;0.0;1.75;0.0;0.0;0.0;0.0;2.5;0.0;0.0;-0.230957;0.013184;0.985352;-0.77;0.49;0.49;311.0;-0.221819;0.078591;4.0;6.25;4.75;4.75;1.0;0.75;0.0;0.25;0.5;0.5;1.0;0.75;0.25;1.75;0.5;0.25;-0.247559;0.02832;0.974121;-0.63;-0.98;0.7;307.0;-0.200708;-0.056022
0.09;9.0;2.5;8.5;1.75;0.75;0.0;0.25;0.0;1.5;0.25;0.0;0.0;0.0;2.75;0.25;0.0;-0.23291;0.012695;0.97998;-0.7;0.56;0.56;317.0;-0.214293;0.073588;3.75;6.0;4.5;4.5;1.0;0.75;0.0;0.25;0.5;0.5;0.75;0.75;0.25;1.75;0.5;0.25;-0.247559;0.025879;0.976074;-0.63;-0.91;0.77;293.0;-0.199494;-0.055866
0.1;8.75;2.5;8.5;1.75;0.75;0.0;0.25;0.0;1.75;0.25;0.0;0.0;0.0;2.75;0.25;0.0;-0.229492;0.016602;0.988281;-0.7;0.49;0.49;318.0;-0.207323;0.075529;3.75;6.0;4.75;4.75;1.0;0.75;0.0;0.0;0.75;0.5;1.0;0.5;0.25;1.75;0.5;0.25;-0.24707;0.032227;0.977051;-0.7;-0.91;0.84;298.0;-0.198067;-0.045688
0.11;8.75;2.25;8.5;1.75;0.75;0.0;0.25;0.0;1.75;0.0;0.0;0.0;0.0;2.75;0.25;0.0;-0.231445;0.012695;0.989258;-0.84;0.49;0.56;313.0;-0.209704;0.077581;4.0;6.5;4.75;4.75;1.0;1.0;0.0;0.25;0.75;0.5;1.0;0.5;0.25;1.75;0.25;0.25;-0.247559;0.026855;0.97998;-0.56;-0.98;0.77;310.0;-0.206152;-0.052721
0.12;9.0;2.5;8.5;1.75;0.75;0.0;0.25;0.0;2.0;0.0;0.0;0.0;0.0;2.75;0.25;0.0;-0.227539;0.011719;0.992676;-0.77;0.35;0.56;322.0;-0.207847;0.078134;4.0;6.5;4.75;4.75;0.75;0.75;0.0;0.25;0.5;0.5;1.0;0.75;0.25;1.75;0.25;0.5;-0.252441;0.029785;0.972656;-0.63;-0.98;0.84;305.0;-0.206224;-0.05909
0.13;9.25;2.5;8.5;1.75;0.75;0.0;0.25;0.0;2.0;0.0;0.0;0.0;0.0;2.75;0.25;0.0;-0.231445;0.008789;0.985352;-0.7;0.63;0.49;325.0;-0.20955;0.078403;4.0;6.25;4.75;4.25;0.75;0.75;0.0;0.0;0.5;0.5;1.0;0.75;0.25;1.75;0.25;0.25;-0.243164;0.030762;0.976074;-0.7;-0.84;0.77;291.0;-0.208384;-0.04869
0.14;9.5;2.25;8.5;1.75;0.75;0.0;0.25;0.0;1.75;0.0;0.0;0.0;0.0;2.5;0.25;0.0;-0.231445;0.010254;0.987793;-0.84;0.63;0.49;319.0;-0.219382;0.077686;4.0;6.25;4.75;4.25;1.0;0.75;0.0;0.25;0.5;0.5;1.0;0.25;0.25;1.75;0.5;0.25;-0.249512;0.023438;0.974121;-0.77;-0.91;0.84;295.0;-0.20694;-0.047913
0.15;9.0;2.25;8.75;1.75;0.75;0.0;0.25;0.0;1.75;0.0;0.0;0.0;0.0;2.5;0.25;0.0;-0.228027;0.01123;0.988281;-0.84;0.42;0.56;316.0;-0.216538;0.077238;4.0;6.5;4.75;4.5;1.0;0.75;0.0;0.25;0.5;0.5;1.0;0.25;0.0;1.75;0.25;0.25;-0.25293;0.025879;0.973633;-0.63;-0.98;0.7;296.0;-0.218507;-0.047088
0.16;9.0;2.25;8.5;1.75;0.75;0.0;0.25;0.0;1.75;0.0;0.25;0.0;0.0;2.75;0.25;0.0;-0.224121;0.011719;0.986328;-0.77;0.42;0.63;319.0;-0.207512;0.076122;4.0;6.25;4.75;4.5;1.0;0.75;0.0;0.0;0.5;0.5;1.25;0.25;0.0;1.75;0.0;0.25;-0.248047;0.025391;0.97998;-0.77;-0.91;0.77;289.0;-0.221563;-0.041414
0.17;9.0;2.25;8.75;1.75;0.5;0.0;0.25;0.0;1.5;0.25;0.25;0.0;0.0;2.75;0.25;0.0;-0.23291;0.010742;0.994629;-0.84;0.42;0.49;318.0;-0.210059;0.074048;4.0;6.25;4.75;4.5;1.0;0.75;0.0;0.0;0.75;0.5;1.0;0.25;0.25;1.75;0.0;0.25;-0.249023;0.021973;0.977539;-0.7;-0.84;0.77;292.0;-0.216938;-0.040205
0.18;9.0;2.5;8.75;1.75;0.75;0.0;0.25;0.0;1.25;0.0;0.0;0.0;0.0;3.0;0.5;0.0;-0.22168;0.010742;0.985352;-0.77;0.63;0.56;319.0;-0.213961;0.070935;4.0;6.5;4.75;4.5;0.75;0.75;0.0;0.25;0.75;0.5;1.0;0.25;0.25;1.75;0.25;0.0;-0.248047;0.023438;0.974121;-0.77;-0.84;0.7;297.0;-0.213541;-0.046271
0.19;9.0;2.5;8.5;1.75;0.75;0.0;0.25;0.0;1.5;0.0;0.0;0.0;0.0;2.75;0.25;0.0;-0.230469;0.009277;0.987305;-0.84;0.49;0.49;315.0;-0.2184;0.073675;4.25;6.25;4.5;4.25;0.75;0.75;0.0;0.25;0.75;0.25;1.0;0.25;0.0;1.5;0.0;0.0;-0.247559;0.026855;0.97998;-0.84;-1.05;0.77;281.0;-0.231597;-0.042315
0.2;9.0;2.25;8.5;1.75;0.75;0.0;0.25;0.0;1.5;0.0;0.0;0.0;0.0;2.75;0.0;0.0;-0.233887;0.007324;0.984863;-0.77;0.56;0.56;309.0;-0.222587;0.077073;4.0;6.5;4.75;4.25;0.75;0.75;0.0;0.0;0.5;0.25;1.0;0.25;0.0;1.5;0.0;0.0;-0.251953;0.025391;0.974609;-0.84;-0.98;0.7;276.0;-0.241538;-0.042372
0.21;9.25;2.25;8.5;1.75;0.5;0.0;0.25;0.0;1.5;0.0;0.0;0.0;0.0;2.75;0.25;0.0;-0.228027;0.013672;0.986816;-0.84;0.49;0.56;312.0;-0.219371;0.07605;4.0;6.25;4.75;4.5;0.75;0.5;0.0;0.0;0.5;0.25;1.0;0.25;0.0;1.75;0.0;0.25;-0.246582;0.022461;0.976074;-0.7;-0.98;0.84;277.0;-0.232705;-0.040353
0.22;9.0;2.25;8.5;1.75;0.5;0.0;0.25;0.0;1.75;0.0;0.0;0.0;0.0;2.75;0.0;0.0;-0.230957;0.013184;0.986816;-0.77;0.35;0.56;310.0;-0.218001;0.079501;4.0;6.25;4.75;4.75;1.0;0.75;0.0;0.0;0.5;0.5;1.0;0.25;0.0;1.5;0.0;0.25;-0.255859;0.026367;0.978516;-0.77;-0.98;0.84;287.0;-0.231854;-0.044364
0.23;9.0;2.5;8.75;1.75;0.75;0.0;0.25;0.0;1.75;0.0;0.0;0.0;0.0;2.75;0.0;0.0;-0.229004;0.005371;0.98877;-0.77;0.49;0.49;318.0;-0.219154;0.077479;4.0;6.5;4.75;4.75;1.0;0.75;0.0;0.0;0.5;0.5;1.0;0.25;0.0;1.5;0.0;0.25;-0.250488;0.026367;0.975098;-0.77;-0.91;0.7;289.0;-0.233465;-0.045425
0.24;9.0;2.25;8.75;1.75;0.75;0.0;0.25;0.0;1.5;0.0;0.0;0.0;0.0;2.75;0.25;0.0;-0.230469;0.011719;0.985352;-0.7;0.56;0.49;315.0;-0.217271;0.075743;4.0;6.5;4.75;4.75;0.75;0.75;0.0;0.0;0.75;0.5;1.0;0.25;0.0;1.5;0.25;0.25;-0.248535;0.024414;0.976074;-0.77;-0.91;0.7;293.0;-0.222306;-0.042972
0.25;9.0;2.25;8.5;2.0;0.75;0.0;0.25;0.0;1.5;0.25;0.0;0.0;0.0;2.75;0.25;0.0;-0.231445;0.009277;0.989258;-0.7;0.35;0.63;318.0;-0.213379;0.072673;4.25;6.5;4.75;5.0;0.75;0.75;0.0;0.0;0.75;0.5;1.0;0.25;0.0;1.5;0.0;0.25;-0.244629;0.023926;0.967773;-0.7;-0.91;0.84;296.0;-0.23081;-0.042984
0.26;9.0;2.25;8.75;1.75;0.75;0.0;0.25;0.0;1.75;0.0;0.0;0.0;0.0;2.5;0.25;0.0;-0.226074;0.007812;0.985352;-0.63;0.42;0.56;316.0;-0.216538;0.077238;4.5;6.5;4.75;5.0;1.0;0.75;0.0;0.0;0.5;0.5;1.0;0.0;0.0;1.5;0.25;0.5;-0.252441;0.02832;0.980957;-0.63;-1.05;0.77;299.0;-0.232399;-0.043575
0.27;8.75;2.25;8.75;1.75;0.5;0.0;0.25;0.0;1.5;0.0;0.0;0.0;0.0;2.75;0.0;0.0;-0.233398;0.010254;0.987305;-0.7;0.35;0.63;306.0;-0.222298;0.077053;4.5;6.5;4.75;4.75;0.75;0.75;0.0;0.25;0.5;0.5;0.75;0.0;0.0;1.5;0.25;0.0;-0.245605;0.02832;0.975098;-0.77;-0.98;0.84;292.0;-0.24031;-0.04431
0.28;8.75;2.25;8.75;1.75;0.75;0.0;0.25;0.0;1.5;0.0;0.0;0.0;0.0;2.5;0.25;0.0;-0.232422;0.012207;0.984863;-0.63;0.42;0.56;310.0;-0.220289;0.074675;4.5;6.5;5.25;5.0;0.75;0.75;0.0;0.25;0.5;0.25;0.75;0.25;0.0;1.25;0.5;0.0;-0.253418;0.028809;0.974121;-0.7;-0.98;0.77;301.0;-0.240393;-0.048898
0.29;9.25;2.5;8.5;1.5;0.75;0.0;0.25;0.0;1.5;0.0;0.0;0.0;0.0;2.5;0.25;0.0;-0.228516;0.010254;0.984863;-0.77;0.56;0.56;312.0;-0.224104;0.076088;4.25;6.5;5.25;4.75;0.75;0.75;0.0;0.0;0.5;0.25;0.75;0.25;0.0;1.5;0.5;0.0;-0.251465;0.026855;0.975586;-0.7;-0.98;0.77;294.0;-0.236413;-0.041968
0.3;9.0;2.5;8.5;1.75;0.75;0.0;0.25;0.0;1.25;0.0;0.0;0.0;0.0;2.5;0.25;0.0;-0.230957;0.009766;0.990723;-0.63;0.49;0.63;309.0;-0.228644;0.070568;4.25;6.5;5.0;5.0;0.75;0.75;0.0;0.0;0.25;0.5;0.75;0.25;0.0;1.5;0.5;0.0;-0.247559;0.028809;0.977539;-0.7;-0.98;0.84;293.0;-0.238025;-0.048043
0.31;8.75;2.25;8.5;1.75;0.75;0.0;0.25;0.0;1.5;0.0;0.0;0.0;0.0;2.75;0.25;0.0;-0.231445;0.006836;0.983887;-0.63;0.56;0.56;309.0;-0.215093;0.075306;4.5;6.75;5.0;5.0;1.0;0.75;0.0;0.25;0.25;0.5;0.75;0.25;0.25;1.5;0.25;0.0;-0.246582;0.023926;0.975098;-0.7;-0.98;0.84;305.0;-0.239767;-0.054055
0.32;9.0;2.5;8.75;1.75;0.75;0.0;0.25;0.0;1.75;0.0;0.0;0.0;0.0;2.75;0.25;0.0;-0.22998;0.012695;0.989746;-0.63;0.49;0.63;321.0;-0.213562;0.076056;4.75;6.75;4.75;5.25;1.0;0.75;0.0;0.0;0.25;0.5;0.75;0.25;0.25;1.5;0.25;0.0;-0.246582;0.027832;0.974121;-0.77;-0.98;0.84;303.0;-0.244627;-0.051031
0.33;9.0;2.5;8.5;1.75;0.75;0.0;0.25;0.0;1.5;0.0;0.0;0.0;0.0;2.75;0.25;0.0;-0.229004;0.013184;0.98584;-0.63;0.42;0.63;315.0;-0.2184;0.073675;4.75;6.5;4.75;5.0;0.75;0.75;0.0;0.0;0.25;0.5;0.75;0.25;0.0;1.5;0.25;0.0;-0.245117;0.023438;0.975098;-0.63;-0.91;0.84;293.0;-0.247261;-0.046106
0.34;9.0;2.5;8.75;1.75;0.75;0.0;0.25;0.0;1.5;0.0;0.0;0.0;0.0;2.75;0.0;0.0;-0.233887;0.015137;0.986816;-0.56;0.49;0.63;315.0;-0.224556;0.075244;4.75;6.5;4.5;5.0;0.75;0.5;0.0;0.0;0.25;0.5;0.75;0.25;0.0;1.5;0.25;0.0;-0.248535;0.023438;0.967285;-0.7;-1.05;0.84;287.0;-0.248053;-0.045193
0.35;8.75;2.25;8.75;1.75;0.75;0.0;0.25;0.0;1.5;0.0;0.0;0.0;0.0;2.5;0.25;0.0;-0.229492;0.01123;0.986816;-0.7;0.42;0.56;310.0;-0.220289;0.074675;4.75;6.75;4.5;5.25;0.75;0.75;0.0;0.25;0.25;0.25;1.0;0.0;0.0;1.25;0.5;0.0;-0.25;0.027344;0.97168;-0.63;-0.91;0.91;297.0;-0.249001;-0.05657
0.36;9.0;2.25;8.75;1.75;0.75;0.0;0.25;0.0;1.5;0.0;0.0;0.0;0.0;2.75;0.25;0.0;-0.231934;0.01123;0.981445;-0.77;0.56;0.56;315.0;-0.217271;0.075743;4.75;6.75;4.5;5.0;0.75;0.75;0.0;0.0;0.25;0.5;1.0;0.0;0.25;1.25;0.5;0.0;-0.249023;0.026367;0.97168;-0.77;-0.98;0.98;295.0;-0.243892;-0.052199
0.37;9.25;2.25;8.75;1.75;0.75;0.0;0.25;0.0;1.5;0.0;0.0;0.0;0.0;2.5;0.25;0.0;-0.22998;0.008301;0.983887;-0.7;0.63;0.49;316.0;-0.223569;0.07529;4.75;7.0;4.75;5.0;0.75;0.75;0.0;0.0;0.5;0.25;1.0;0.25;0.25;1.0;0.25;0.0;-0.25;0.02832;0.973145;-0.56;-1.05;0.91;299.0;-0.251167;-0.052759
0.38;9.25;2.5;8.25;1.75;0.75;0.0;0.25;0.0;1.5;0.0;0.0;0.0;0.0;2.5;0.25;0.0;-0.231445;0.010742;0.986328;-0.63;0.56;0.49;312.0;-0.224309;0.073068;4.75;7.0;4.75;5.25;1.0;0.75;0.0;0.0;0.5;0.25;0.75;0.0;0.25;1.0;0.0;0.0;-0.250488;0.03125;0.975098;-0.63;-0.98;0.98;296.0;-0.265715;-0.050088
0.39;9.0;2.5;8.5;1.75;0.75;0.0;0.25;0.0;1.5;0.0;0.0;0.0;0.0;2.5;0.25;0.0;-0.23291;0.009277;0.984375;-0.63;0.63;0.56;312.0;-0.22309;0.072901;4.75;7.0;4.75;5.0;0.75;0.5;0.0;0.0;0.25;0.25;0.75;0.0;0.25;1.0;0.25;0.0;-0.251465;0.027344;0.978027;-0.56;-0.98;0.91;287.0;-0.267915;-0.051483
0.4;9.0;2.5;8.5;1.75;0.75;0.0;0.25;0.0;1.75;0.0;0.0;0.0;0.0;2.75;0.25;0.0;-0.230469;0.007812;0.984863;-0.7;0.63;0.49;318.0;-0.213064;0.07593;4.75;6.75;4.75;5.25;0.75;0.5;0.0;0.0;0.25;0.25;0.75;0.25;0.25;1.0;0.25;0.25;-0.25;0.02832;0.974121;-0.63;-0.98;0.98;291.0;-0.25892;-0.056021
0.41;9.25;2.5;8.5;1.75;0.75;0.0;0.25;0.0;1.75;0.0;0.0;0.0;0.0;2.5;0.5;0.0;-0.236328;0.010254;0.98584;-0.63;0.63;0.49;322.0;-0.213722;0.074076;4.75;6.75;5.0;5.25;0.75;0.5;0.0;0.0;0.25;0.25;0.75;0.0;0.0;1.0;0.0;0.0;-0.248535;0.028809;0.977051;-0.63;-0.98;0.91;285.0;-0.277189;-0.047089
0.42;9.25;2.25;8.5;1.75;0.5;0.0;0.25;0.0;1.75;0.0;0.0;0.0;0.0;2.5;0.25;0.0;-0.227051;0.016602;0.989746;-0.56;0.56;0.56;313.0;-0.218622;0.07756;4.5;6.75;4.75;5.25;0.75;0.5;0.0;0.0;0.25;0.25;0.75;0.0;0.0;1.0;0.0;0.0;-0.250488;0.026367;0.978027;-0.77;-0.91;0.84;279.0;-0.276038;-0.05016
0.43;9.0;2.25;8.75;1.75;0.5;0.0;0.25;0.0;1.75;0.0;0.0;0.0;0.0;2.75;0.0;0.0;-0.231445;0.008789;0.983398;-0.63;0.56;0.56;313.0;-0.218463;0.079596;4.75;7.25;5.0;5.25;0.75;0.75;0.0;0.0;0.25;0.25;0.75;0.25;0.25;1.0;0.25;0.0;-0.250977;0.03125;0.968262;-0.63;-0.84;0.91;301.0;-0.263621;-0.057269
0.44;9.0;2.25;8.75;1.75;0.75;0.0;0.25;0.0;1.75;0.0;0.0;0.0;0.0;2.25;0.0;0.0;-0.227051;0.008301;0.989746;-0.63;0.56;0.56;311.0;-0.226978;0.077955;4.75;7.25;4.75;5.25;0.75;0.75;0.0;0.0;0.25;0.25;0.75;0.0;0.0;0.75;0.25;0.0;-0.253906;0.02832;0.970703;-0.7;-0.98;0.98;290.0;-0.277208;-0.055042
0.45;9.25;2.25;8.75;1.75;0.75;0.0;0.0;0.0;1.0;0.0;0.0;0.0;0.0;2.25;0.0;0.0;-0.234863;0.006348;0.98291;-0.63;0.56;0.63;299.0;-0.250206;0.068942;5.25;7.25;4.75;5.25;0.75;0.75;0.0;0.0;0.25;0.25;0.75;0.0;0.0;0.75;0.0;0.25;-0.247559;0.03125;0.971191;-0.7;-0.91;0.84;295.0;-0.283084;-0.052931
0.46;9.5;2.5;8.75;1.75;0.5;0.0;0.0;0.0;1.25;0.0;0.0;0.0;0.0;2.75;0.0;0.0;-0.23291;0.007812;0.982422;-0.56;0.49;0.63;310.0;-0.238387;0.07147;4.75;7.5;4.75;5.25;0.75;0.5;0.0;0.0;0.25;0.25;0.75;0.0;0.0;1.0;0.0;0.0;-0.25;0.030273;0.979004;-0.77;-0.98;0.84;289.0;-0.280956;-0.051636
0.47;9.25;2.5;8.5;1.75;0.75;0.0;0.25;0.0;1.5;0.0;0.0;0.0;0.0;2.25;0.25;0.0;-0.230469;0.014648;0.986328;-0.42;0.49;0.63;313.0;-0.229437;0.072449;4.75;7.75;4.75;5.25;0.5;0.5;0.0;0.0;0.25;0.25;0.25;0.0;0.0;1.0;0.0;0.0;-0.25293;0.032227;0.97168;-0.77;-1.05;0.84;283.0;-0.294049;-0.052554
0.48;8.75;2.5;8.75;1.75;0.75;0.0;0.25;0.0;1.25;0.25;0.0;0.0;0.0;2.25;0.25;0.0;-0.234375;0.010254;0.984863;-0.49;0.63;0.63;309.0;-0.227912;0.069536;5.0;7.75;4.75;5.25;0.75;0.5;0.0;0.0;0.25;0.25;0.5;0.0;0.0;0.75;0.25;0.0;-0.244141;0.029785;0.968262;-0.77;-0.98;0.84;292.0;-0.287022;-0.052561
0.49;9.25;2.5;8.75;1.75;0.5;0.0;0.0;0.0;1.5;0.0;0.0;0.0;0.0;2.5;0.25;0.0;-0.231934;0.005859;0.991211;-0.49;0.49;0.56;311.0;-0.230104;0.071253;5.0;7.75;5.0;5.25;0.75;0.5;0.0;0.25;0.25;0.25;0.5;0.0;0.0;0.5;0.5;0.0;-0.246582;0.023926;0.972168;-0.77;-0.91;0.91;300.0;-0.281771;-0.057887
0.5;9.25;2.5;8.75;2.0;0.75;0.0;0.25;0.0;1.5;0.0;0.0;0.0;0.0;2.25;0.25;0.0;-0.230469;0.013672;0.984375;-0.49;0.56;0.56;319.0;-0.230328;0.069814;5.0;7.75;5.0;5.25;0.75;0.5;0.0;0.0;0.25;0.25;0.75;0.0;0.0;0.75;0.0;0.0;-0.250977;0.027832;0.977539;-0.77;-0.98;0.84;296.0;-0.288573;-0.051423
0.51;9.0;2.5;8.5;1.75;0.5;0.0;0.25;0.0;1.5;0.0;0.0;0.0;0.0;2.25;0.0;0.0;-0.229004;0.013672;0.981445;-0.35;0.49;0.7;304.0;-0.234851;0.073674;5.0;7.75;5.0;5.25;0.75;0.5;0.0;0.0;0.25;0.25;0.5;0.0;0.0;0.75;0.0;0.0;-0.248047;0.029785;0.973145;-0.84;-0.98;0.77;293.0;-0.293601;-0.050793
0.52;9.0;2.5;8.5;1.75;0.75;0.0;0.25;0.0;1.25;0.0;0.0;0.0;0.0;2.5;0.25;0.0;-0.232422;0.01123;0.983887;-0.35;0.56;0.56;309.0;-0.228644;0.070568;5.25;8.0;4.75;5.25;0.5;0.5;0.0;0.0;0.25;0.25;0.5;0.0;0.0;0.75;0.0;0.0;-0.242676;0.03125;0.974121;-0.84;-0.98;0.77;292.0;-0.29775;-0.052857
0.53;9.25;2.5;8.5;1.75;0.75;0.0;0.25;0.0;1.25;0.0;0.0;0.0;0.0;2.75;0.0;0.0;-0.227539;0.013672;0.98291;-0.35;0.49;0.7;311.0;-0.231311;0.073124;5.25;7.75;5.0;5.25;0.75;1.0;0.0;0.0;0.25;0.25;0.5;0.0;0.0;0.75;0.0;0.0;-0.251953;0.025391;0.974609;-0.84;-0.98;0.77;301.0;-0.291841;-0.053678
0.54;9.0;2.5;8.75;1.75;0.75;0.0;0.25;0.0;1.25;0.0;0.0;0.0;0.0;2.5;0.0;0.0;-0.229492;0.011719;0.981934;-0.35;0.49;0.56;309.0;-0.234911;0.072169;5.0;7.75;5.0;5.25;0.75;0.75;0.0;0.0;0.25;0.25;0.5;0.0;0.0;1.0;0.0;0.0;-0.249023;0.026855;0.974609;-0.84;-0.98;0.77;298.0;-0.286688;-0.05123
0.55;9.0;2.5;8.75;2.0;0.75;0.0;0.25;0.0;1.5;0.25;0.0;0.0;0.0;2.5;0.25;0.0;-0.23584;0.009766;0.988281;-0.49;0.42;0.56;321.0;-0.219993;0.070197;5.25;7.75;5.0;5.25;0.75;0.75;0.0;0.25;0.25;0.25;0.5;0.0;0.0;1.0;0.0;0.0;-0.249512;0.026367;0.973633;-0.84;-0.98;0.77;305.0;-0.284025;-0.054394
0.56;9.5;2.5;8.5;1.75;0.75;0.0;0.25;0.0;1.5;0.0;0.0;0.0;0.0;2.5;0.25;0.0;-0.234375;0.016602;0.980469;-0.35;0.56;0.56;318.0;-0.226297;0.073543;5.25;8.25;5.0;5.25;0.75;0.5;0.0;0.0;0.25;0.25;0.5;0.0;0.0;1.0;0.25;0.0;-0.259766;0.030273;0.970703;-0.77;-0.98;0.84;306.0;-0.28471;-0.049776
0.57;9.5;3.0;8.5;1.75;0.75;0.0;0.25;0.0;1.5;0.25;0.0;0.0;0.0;2.5;0.0;0.0;-0.22998;0.016113;0.984863;-0.56;0.56;0.56;323.0;-0.230786;0.071099;5.25;7.75;5.0;5.25;0.75;0.5;0.0;0.0;0.25;0.25;0.75;0.25;0.0;1.0;0.0;0.0;-0.251953;0.027832;0.974121;-0.7;-0.84;0.77;304.0;-0.279555;-0.050496
0.58;9.25;2.75;8.5;2.0;0.5;0.0;0.25;0.0;1.25;0.0;0.0;0.0;0.0;2.25;0.0;0.0;-0.227051;0.011719;0.992676;-0.35;0.56;0.49;309.0;-0.244076;0.066821;5.25;7.75;5.0;5.25;0.75;0.5;0.0;0.25;0.25;0.25;0.5;0.0;0.0;0.75;0.0;0.0;-0.250488;0.024414;0.972168;-0.84;-0.91;0.77;300.0;-0.290729;-0.054023
0.59;9.25;2.25;8.5;2.0;0.5;0.0;0.25;0.0;1.0;0.0;0.0;0.0;0.0;2.25;0.0;0.0;-0.228027;0.008301;0.986816;-0.42;0.7;0.56;300.0;-0.247139;0.06826;5.0;8.0;5.0;5.25;0.75;0.5;0.0;0.0;0.25;0.25;0.5;0.0;0.25;1.0;0.0;0.0;-0.247559;0.026855;0.973145;-0.77;-0.91;0.84;300.0;-0.285533;-0.053219
0.6;9.25;2.5;8.5;2.0;0.5;0.0;0.25;0.0;1.25;0.0;0.25;0.0;0.0;2.25;0.25;0.0;-0.228027;0.012207;0.983887;-0.49;0.56;0.56;312.0;-0.232391;0.06566;5.25;8.0;5.0;5.25;0.75;0.25;0.0;0.0;0.25;0.25;0.5;0.0;0.0;1.0;0.0;0.0;-0.251465;0.024902;0.969238;-0.7;-0.84;0.77;297.0;-0.29159;-0.046246
0.61;9.5;2.75;8.5;2.0;0.75;0.0;0.25;0.0;1.5;0.0;0.0;0.0;0.0;2.0;0.25;0.0;-0.233398;0.011719;0.989746;-0.42;0.56;0.63;319.0;-0.23768;0.067324;5.25;8.0;4.75;5.25;0.75;0.5;0.0;0.25;0.25;0.25;0.75;0.0;0.0;1.0;0.0;0.0;-0.249512;0.026367;0.969238;-0.84;-0.84;0.77;304.0;-0.281805;-0.055202
0.62;9.25;2.5;8.75;1.75;0.75;0.0;0.25;0.0;1.75;0.0;0.0;0.0;0.0;2.25;0.0;0.0;-0.227051;0.014648;0.987793;-0.56;0.49;0.56;317.0;-0.230064;0.07629;5.25;7.75;5.0;5.25;0.75;0.5;0.0;0.0;0.25;0.25;0.5;0.0;0.25;0.75;0.0;0.0;-0.249023;0.023926;0.973633;-0.77;-0.91;0.77;298.0;-0.290983;-0.052524
0.63;9.25;2.5;8.75;2.0;0.75;0.0;0.0;0.0;1.25;0.0;0.0;0.0;0.0;2.25;0.0;0.0;-0.227539;0.012695;0.987793;-0.63;0.63;0.49;308.0;-0.246053;0.066546;5.25;7.75;5.25;5.25;0.75;0.75;0.0;0.0;0.0;0.25;0.5;0.0;0.25;0.75;0.0;0.0;-0.246582;0.023926;0.979004;-0.77;-0.84;0.77;300.0;-0.295869;-0.057159
0.64;9.25;2.5;8.75;2.0;0.75;0.0;0.0;0.0;1.25;0.0;0.0;0.0;0.0;2.25;0.25;0.0;-0.23291;0.010254;0.990723;-0.63;0.56;0.49;311.0;-0.240032;0.065177;5.5;8.0;5.0;5.25;0.5;0.5;0.0;0.25;0.25;0.25;0.5;0.0;0.0;0.75;0.0;0.0;-0.242188;0.024902;0.974609;-0.7;-0.91;0.84;302.0;-0.294479;-0.054579
0.65;9.5;2.5;8.5;1.75;0.75;0.0;0.25;0.0;1.75;0.0;0.0;0.0;0.0;2.25;0.25;0.0;-0.225586;0.015137;0.987305;-0.56;0.49;0.49;319.0;-0.225535;0.075034;5.5;7.75;5.0;5.25;0.75;0.5;0.0;0.25;0.25;0.25;0.25;0.0;0.0;0.75;0.5;0.0;-0.250488;0.024902;0.971191;-0.77;-0.91;0.7;305.0;-0.283501;-0.052463
0.66;9.5;2.5;8.75;1.75;0.75;0.0;0.0;0.0;1.25;0.0;0.0;0.0;0.0;2.5;0.25;0.0;-0.230957;0.015137;0.98877;-0.49;0.35;0.63;313.0;-0.236217;0.069181;5.25;8.0;4.75;5.25;0.75;0.5;0.0;0.25;0.25;0.0;0.5;0.25;0.0;0.5;0.5;0.0;-0.248535;0.03125;0.970215;-0.77;-0.98;0.7;303.0;-0.284425;-0.062121
0.67;9.25;2.5;8.75;2.0;0.75;0.0;0.0;0.0;0.75;0.0;0.0;0.0;0.0;2.5;0.25;0.0;-0.223633;0.012695;0.989258;-0.63;0.49;0.49;306.0;-0.246678;0.061147;5.25;7.75;4.75;5.25;0.75;0.5;0.0;0.0;0.25;0.25;0.5;0.0;0.0;0.5;0.5;0.0;-0.250488;0.02832;0.972656;-0.7;-0.98;0.7;296.0;-0.286894;-0.053111
0.68;9.25;2.5;8.75;1.75;0.5;0.0;0.0;0.0;1.25;0.0;0.0;0.0;0.0;2.25;0.25;0.0;-0.236328;0.013184;0.987793;-0.77;0.49;0.49;305.0;-0.240694;0.068063;5.25;7.75;5.0;5.25;0.75;0.5;0.0;0.0;0.25;0.0;0.5;0.0;0.0;0.75;0.25;0.0;-0.243164;0.02832;0.973145;-0.7;-0.91;0.7;296.0;-0.292986;-0.050671
0.69;9.5;2.5;8.75;1.75;0.75;0.0;0.25;0.0;1.25;0.0;0.0;0.0;0.0;2.25;0.25;0.0;-0.229004;0.012695;0.991699;-0.56;0.49;0.56;315.0;-0.23686;0.070648;5.25;7.5;5.0;5.25;0.75;0.5;0.0;0.0;0.25;0.25;0.5;0.0;0.0;0.75;0.0;0.0;-0.248047;0.030273;0.973633;-0.77;-0.84;0.77;293.0;-0.293602;-0.048259
0.7;9.5;2.5;8.75;1.75;0.75;0.0;0.25;0.0;1.5;0.0;0.0;0.0;0.0;2.5;0.25;0.0;-0.227539;0.010742;0.989258;-0.63;0.42;0.56;321.0;-0.226669;0.073691;5.25;7.5;4.75;5.25;0.75;0.5;0.0;0.0;0.25;0.25;0.5;0.25;0.25;0.75;0.25;0.0;-0.25;0.025879;0.969727;-0.7;-0.91;0.84;298.0;-0.278626;-0.055651
0.71;9.25;2.5;8.75;1.75;0.75;0.0;0.25;0.0;1.25;0.0;0.0;0.0;0.0;2.5;0.25;0.0;-0.22998;0.016602;0.985352;-0.63;0.49;0.56;315.0;-0.230572;0.071094;5.0;7.5;4.75;5.25;0.75;0.5;0.0;0.0;0.25;0.25;0.5;0.25;0.0;0.75;0.5;0.0;-0.253906;0.029297;0.97168;-0.7;-0.98;0.84;296.0;-0.274348;-0.054249
0.72;9.25;2.5;8.75;1.75;0.75;0.0;0.25;0.0;1.5;0.0;0.0;0.0;0.0;2.5;0.0;0.0;-0.233887;0.012207;0.987793;-0.56;0.28;0.49;315.0;-0.23085;0.074791;4.75;7.75;5.0;5.25;0.75;0.75;0.0;0.0;0.25;0.25;0.5;0.0;0.0;0.75;0.25;0.0;-0.251953;0.03125;0.974609;-0.77;-0.91;0.77;296.0;-0.284331;-0.054859
0.73;9.5;2.5;8.75;1.75;0.75;0.0;0.25;0.0;1.25;0.0;0.0;0.0;0.0;2.5;0.25;0.0;-0.234863;0.013672;0.984863;-0.7;0.42;0.56;317.0;-0.232111;0.071431;5.0;7.75;4.75;5.25;0.75;0.75;0.0;0.0;0.25;0.25;0.5;0.0;0.0;0.75;0.25;0.0;-0.245117;0.030762;0.970215;-0.7;-0.98;0.7;295.0;-0.285665;-0.054779
0.74;9.0;2.5;8.75;2.0;0.75;0.0;0.25;0.0;1.25;0.0;0.0;0.0;0.0;2.5;0.25;0.0;-0.22998;0.012207;0.983398;-0.56;0.42;0.56;315.0;-0.229562;0.067935;4.75;7.5;5.0;5.25;0.75;0.75;0.0;0.0;0.25;0.25;0.5;0.25;0.25;0.75;0.0;0.0;-0.254395;0.023926;0.972656;-0.7;-0.98;0.63;296.0;-0.281485;-0.059234
0.75;9.25;2.5;8.75;2.0;0.75;0.0;0.0;0.0;1.25;0.0;0.0;0.0;0.0;2.5;0.25;0.0;-0.23291;0.01123;0.987793;-0.56;0.35;0.56;314.0;-0.2352;0.06601;5.25;8.0;5.0;5.25;0.75;0.75;0.0;0.0;0.25;0.25;0.5;0.0;0.0;0.25;0.0;0.0;-0.248535;0.027344;0.974121;-0.7;-0.91;0.7;296.0;-0.305339;-0.056058
0.76;9.25;2.5;8.75;2.0;0.75;0.0;0.0;0.0;1.25;0.0;0.0;0.0;0.0;2.0;0.0;0.0;-0.230957;0.012207;0.984375;-0.7;0.42;0.7;306.0;-0.25105;0.065702;5.25;7.75;4.75;5.25;0.75;0.5;0.0;0.0;0.25;0.25;0.5;0.0;0.0;0.25;0.25;0.0;-0.250488;0.026855;0.973633;-0.7;-1.05;0.84;291.0;-0.299328;-0.054667
0.77;9.25;2.5;9.0;2.0;0.75;0.0;0.0;0.0;1.0;0.0;0.0;0.0;0.0;2.5;0.0;0.0;-0.227051;0.009277;0.983398;-0.63;0.28;0.56;310.0;-0.247109;0.065205;5.25;7.25;5.0;5.25;0.5;1.0;0.0;0.0;0.25;0.25;0.5;0.0;0.25;0.25;0.0;0.0;-0.248047;0.027832;0.973145;-0.7;-0.91;0.7;291.0;-0.298899;-0.059905
0.78;9.25;2.5;9.0;2.0;0.75;0.0;0.0;0.0;1.0;0.0;0.0;0.0;0.0;2.25;0.25;0.0;-0.233887;0.011719;0.98877;-0.7;0.49;0.49;311.0;-0.245997;0.063005;5.25;7.75;5.0;5.25;0.5;0.5;0.0;0.0;0.25;0.25;0.5;0.0;0.0;0.25;0.0;0.0;-0.250977;0.025391;0.97168;-0.63;-0.91;0.77;288.0;-0.307823;-0.054077
0.79;9.5;2.5;8.75;2.0;0.75;0.0;0.25;0.0;1.0;0.0;0.0;0.0;0.0;2.0;0.25;0.0;-0.231445;0.010254;0.992188;-0.77;0.56;0.56;312.0;-0.247825;0.064681;5.25;8.0;4.75;5.25;0.5;0.5;0.0;0.0;0.25;0.25;0.5;0.0;0.0;0.75;0.25;0.0;-0.247559;0.027344;0.978027;-0.7;-0.91;0.77;295.0;-0.290893;-0.053142
0.8;9.75;2.5;8.75;1.75;0.75;0.0;0.25;0.0;1.25;0.0;0.0;0.0;0.0;2.25;0.0;0.0;-0.230957;0.02002;0.988281;-0.63;0.42;0.56;315.0;-0.244217;0.072381;5.0;7.75;5.0;5.25;0.5;0.5;0.0;0.0;0.0;0.25;0.5;0.0;0.0;0.75;0.25;0.0;-0.248535;0.026367;0.975098;-0.7;-0.91;0.77;289.0;-0.2952;-0.056293
0.81;9.75;3.0;8.75;2.0;0.75;0.0;0.25;0.0;1.25;0.0;0.0;0.0;0.0;2.25;0.25;0.0;-0.227051;0.013184;0.989258;-0.77;0.42;0.56;326.0;-0.241551;0.064602;5.5;7.75;5.0;5.25;0.5;0.5;0.0;0.0;0.0;0.25;0.5;0.25;0.0;0.75;0.25;0.0;-0.245117;0.030762;0.975586;-0.7;-0.91;0.7;297.0;-0.29237;-0.05547
0.82;9.25;2.5;8.75;2.0;0.75;0.0;0.25;0.0;1.25;0.0;0.0;0.0;0.0;2.25;0.25;0.0;-0.230469;0.015137;0.983398;-0.63;0.42;0.56;315.0;-0.235849;0.067494;5.25;7.75;5.0;5.25;0.75;0.5;0.0;0.0;0.25;0.25;0.5;0.25;0.0;0.75;0.5;0.0;-0.246582;0.026367;0.969727;-0.7;-1.05;0.77;304.0;-0.276639;-0.052219
0.83;9.25;2.5;8.75;2.0;0.75;0.0;0.25;0.0;1.5;0.0;0.0;0.0;0.0;2.25;0.25;0.0;-0.229492;0.007812;0.980957;-0.7;0.42;0.56;319.0;-0.230328;0.069814;5.0;7.75;5.0;5.25;0.75;0.5;0.0;0.25;0.25;0.25;0.5;0.25;0.0;0.75;0.5;0.0;-0.249512;0.025391;0.974121;-0.63;-0.84;0.7;305.0;-0.271862;-0.05834
0.84;9.25;2.75;8.75;2.0;0.75;0.0;0.25;0.0;1.25;0.25;0.0;0.0;0.0;2.25;0.25;0.0;-0.234863;0.005859;0.987793;-0.7;0.35;0.63;321.0;-0.233048;0.065627;5.0;7.5;5.0;5.25;0.5;0.5;0.0;0.25;0.0;0.25;0.75;0.25;0.0;0.75;0.5;0.0;-0.254883;0.029297;0.969727;-0.63;-0.91;0.77;299.0;-0.273668;-0.063159
0.85;9.75;2.75;8.75;2.0;0.75;0.0;0.25;0.0;1.25;0.0;0.0;0.0;0.0;2.25;0.25;0.0;-0.228516;0.013184;0.984375;-0.63;0.56;0.49;323.0;-0.240187;0.066399;5.25;7.75;5.0;5.25;0.5;0.5;0.0;0.25;0.25;0.25;0.75;0.0;0.0;0.75;0.5;0.0;-0.243652;0.024902;0.977051;-0.77;-0.98;0.77;305.0;-0.274399;-0.056266
0.86;9.5;2.75;8.75;2.0;0.5;0.0;0.25;0.0;1.5;0.0;0.0;0.0;0.0;2.25;0.0;0.0;-0.225586;0.012207;0.983887;-0.56;0.35;0.56;318.0;-0.240074;0.069741;5.0;8.0;5.0;5.25;0.75;0.75;0.0;0.25;0.25;0.25;0.5;0.25;0.0;0.75;0.25;0.0;-0.250488;0.029785;0.974121;-0.56;-0.84;0.77;308.0;-0.278214;-0.061072
0.87;9.5;2.75;8.75;2.0;0.75;0.0;0.25;0.0;1.5;0.0;0.0;0.0;0.0;2.0;0.0;0.0;-0.233887;0.010254;0.987793;-0.7;0.56;0.56;319.0;-0.243743;0.068876;5.0;8.25;4.75;5.25;0.75;0.75;0.0;0.25;0.25;0.25;0.5;0.25;0.0;0.75;0.25;0.0;-0.253906;0.029297;0.973145;-0.77;-0.98;0.77;308.0;-0.279475;-0.063424
0.88;9.25;2.75;8.75;2.0;0.75;0.0;0.0;0.0;1.25;0.0;0.0;0.0;0.0;2.25;0.25;0.0;-0.227051;0.006348;0.991699;-0.77;0.56;0.56;314.0;-0.241451;0.063318;5.25;8.0;5.0;5.25;0.75;0.75;0.0;0.25;0.25;0.25;0.25;0.25;0.0;1.0;0.25;0.0;-0.246582;0.026367;0.970703;-0.63;-0.84;0.77;310.0;-0.278833;-0.057232
0.89;9.5;2.75;8.75;2.0;0.75;0.0;0.0;0.0;1.25;0.0;0.0;0.0;0.0;2.25;0.25;0.0;-0.227539;0.012207;0.984375;-0.56;0.49;0.63;317.0;-0.242898;0.063726;5.25;8.0;5.0;5.25;0.75;0.5;0.0;0.0;0.0;0.0;0.25;0.25;0.25;0.75;0.5;0.0;-0.24707;0.026367;0.967285;-0.63;-0.91;0.7;300.0;-0.290372;-0.060784
0.9;9.5;2.75;8.75;2.0;0.5;0.0;0.25;0.0;1.25;0.0;0.0;0.0;0.0;2.25;0.25;0.0;-0.225586;0.008301;0.987793;-0.42;0.49;0.63;318.0;-0.239819;0.066068;4.75;7.75;4.75;5.25;0.75;0.5;0.0;0.0;0.25;0.0;0.5;0.0;0.25;0.5;0.5;0.0;-0.246582;0.027832;0.972168;-0.84;-0.98;0.77;290.0;-0.286084;-0.060742
0.91;9.25;2.75;8.75;2.0;0.5;0.0;0.25;0.0;1.25;0.25;0.0;0.0;0.0;2.25;0.25;0.0;-0.232422;0.010742;0.98291;-0.56;0.49;0.63;318.0;-0.234066;0.065667;4.75;7.75;5.0;5.25;0.75;0.75;0.0;0.0;0.25;0.0;0.5;0.0;0.0;0.75;0.5;0.0;-0.24707;0.030762;0.974609;-0.77;-0.98;0.7;296.0;-0.282667;-0.056265
0.92;9.5;2.75;8.75;1.75;0.75;0.0;0.25;0.0;1.25;0.25;0.0;0.0;0.0;2.0;0.25;0.0;-0.229492;0.01416;0.980957;-0.56;0.28;0.56;318.0;-0.238759;0.067931;5.25;7.75;5.0;5.25;0.75;0.75;0.0;0.0;0.0;0.0;0.5;0.0;0.0;0.25;0.5;0.0;-0.251953;0.027344;0.978516;-0.84;-0.84;0.84;293.0;-0.302584;-0.060817
0.93;10.0;2.75;9.0;2.0;0.75;0.0;0.25;0.0;1.25;0.0;0.0;0.0;0.0;2.0;0.25;0.0;-0.227051;0.010254;0.984863;-0.56;0.49;0.63;327.0;-0.246467;0.06619;5.25;7.75;5.0;5.25;0.75;0.5;0.0;0.0;0.0;0.25;0.5;0.0;0.0;0.25;0.0;0.0;-0.25;0.029785;0.971191;-0.84;-1.05;0.77;287.0;-0.312941;-0.05696
0.94;9.5;2.5;8.75;2.0;0.5;0.0;0.25;0.0;1.25;0.0;0.0;0.0;0.0;2.25;0.25;0.0;-0.227051;0.013184;0.98877;-0.63;0.49;0.56;315.0;-0.238405;0.067925;4.75;7.75;4.75;5.25;0.75;0.5;0.0;0.0;0.25;0.0;0.75;0.0;0.0;0.75;0.0;0.0;-0.25293;0.025879;0.974609;-0.7;-0.84;0.77;287.0;-0.292929;-0.055643
0.95;9.5;2.75;8.75;2.0;0.75;0.0;0.25;0.0;1.25;0.0;0.0;0.0;0.0;2.25;0.25;0.0;-0.229004;0.01123;0.988281;-0.63;0.49;0.63;321.0;-0.238747;0.066024;4.75;8.0;5.0;5.25;0.75;0.5;0.0;0.25;0.25;0.0;0.75;0.0;0.0;0.5;0.25;0.0;-0.248535;0.02832;0.975098;-0.77;-0.84;0.84;297.0;-0.288518;-0.061883
0.96;9.5;2.75;8.75;2.0;0.5;0.0;0.25;0.0;1.25;0.0;0.0;0.0;0.0;1.75;0.25;0.0;-0.231934;0.016602;0.987305;-0.63;0.28;0.56;313.0;-0.249495;0.064411;5.0;8.0;5.0;5.25;0.75;0.75;0.0;0.0;0.25;0.0;0.5;0.25;0.25;0.25;0.25;0.0;-0.251465;0.025391;0.967285;-0.77;-0.98;0.84;299.0;-0.294058;-0.064518
0.97;9.75;3.0;8.75;2.0;0.75;0.0;0.25;0.0;1.25;0.0;0.0;0.0;0.0;2.0;0.25;0.0;-0.229492;0.01123;0.984863;-0.56;0.35;0.56;324.0;-0.246242;0.06379;5.0;8.0;5.0;5.25;0.75;0.75;0.0;0.0;0.0;0.25;0.5;0.25;0.25;0.5;0.25;0.0;-0.250977;0.030273;0.969238;-0.7;-0.91;0.77;300.0;-0.290094;-0.065466
0.98;9.75;2.75;9.0;2.0;0.75;0.0;0.25;0.0;1.25;0.0;0.0;0.0;0.0;2.0;0.0;0.0;-0.221191;0.012207;0.985352;-0.63;0.56;0.49;321.0;-0.25092;0.067136;5.0;7.75;5.0;5.25;0.75;0.75;0.0;0.0;0.25;0.0;0.5;0.0;0.0;0.5;0.5;0.0;-0.250488;0.024902;0.975098;-0.77;-0.91;0.7;296.0;-0.289268;-0.056521
0.99;9.25;2.75;9.0;2.0;0.75;0.0;0.25;0.0;1.25;0.0;0.0;0.0;0.0;2.0;0.0;0.0;-0.224121;0.01709;0.98584;-0.63;0.42;0.49;316.0;-0.248189;0.066386;5.25;8.0;5.0;5.25;0.75;0.75;0.0;0.0;0.25;0.25;0.25;0.0;0.25;0.75;0.0;0.0;-0.246094;0.025879;0.968262;-0.84;-1.05;0.7;300.0;-0.295584;-0.055055
1.0;9.75;2.75;8.75;2.0;0.75;0.0;0.25;0.0;1.25;0.0;0.0;0.0;0.0;2.0;0.25;0.0;-0.229492;0.01709;0.987305;-0.77;0.56;0.63;321.0;-0.244905;0.065594;5.5;8.0;5.0;5.25;0.75;0.5;0.0;0.0;0.25;0.0;0.25;0.0;0.0;0.75;0.0;0.0;-0.250488;0.028809;0.975586;-0.77;-0.98;0.77;295.0;-0.306933;-0.04919
1.01;10.0;2.75;8.75;2.0;0.75;0.0;0.25;0.0;1.25;0.0;0.0;0.0;0.0;1.75;0.25;0.0;-0.22998;0.015137;0.979492;-0.56;0.49;0.56;322.0;-0.251043;0.065166;5.75;7.75;5.0;5.25;0.75;0.5;0.0;0.25;0.25;0.0;0.5;0.0;0.0;0.75;0.0;0.0;-0.254395;0.024414;0.97168;-0.84;-0.98;0.77;302.0;-0.297827;-0.052084
1.02;9.5;2.75;8.75;2.25;0.75;0.0;0.25;0.0;1.25;0.0;0.0;0.0;0.0;2.0;0.25;0.0;-0.23291;0.015625;0.980957;-0.56;0.49;0.63;321.0;-0.243908;0.062502;5.25;8.0;5.0;5.25;0.75;0.5;0.0;0.25;0.25;0.0;0.5;0.0;0.0;0.5;0.0;0.0;-0.250488;0.023926;0.976562;-0.7;-0.98;0.7;297.0;-0.302377;-0.057914
1.03;9.5;2.75;8.75;2.0;0.75;0.0;0.25;0.0;1.25;0.0;0.0;0.0;0.0;2.0;0.0;0.0;-0.230469;0.015625;0.988281;-0.49;0.42;0.63;315.0;-0.249413;0.066547;5.25;8.0;5.0;5.25;0.5;0.5;0.0;0.25;0.25;0.0;0.5;0.0;0.0;0.75;0.0;0.0;-0.248047;0.026855;0.974609;-0.63;-1.05;0.84;296.0;-0.29857;-0.057276
1.04;9.25;2.75;8.75;2.0;0.75;0.0;0.25;0.0;1.25;0.0;0.0;0.0;0.0;2.0;0.0;0.0;-0.230469;0.01123;0.980469;-0.77;0.63;0.49;313.0;-0.24802;0.066164;5.25;8.0;5.0;5.25;0.5;0.75;0.0;0.25;0.25;0.0;0.5;0.0;0.0;0.75;0.0;0.0;-0.251953;0.027832;0.969727;-0.63;-0.91;0.84;299.0;-0.297115;-0.059419
1.05;9.25;3.0;9.0;2.0;0.75;0.0;0.25;0.0;1.25;0.0;0.0;0.0;0.0;2.25;0.0;0.0;-0.231445;0.01123;0.986816;-0.7;0.49;0.56;321.0;-0.244728;0.065365;5.5;8.0;4.75;5.25;0.75;0.75;0.0;0.25;0.25;0.25;0.5;0.0;0.0;0.75;0.0;0.0;-0.253418;0.024902;0.969727;-0.7;-0.91;0.7;305.0;-0.291717;-0.057007
1.06;9.5;2.75;9.0;2.0;0.75;0.0;0.25;0.0;1.0;0.0;0.0;0.0;0.0;2.0;0.25;0.0;-0.22998;0.013184;0.992188;-0.7;0.49;0.56;318.0;-0.249333;0.063086;5.25;8.0;5.0;5.25;0.75;0.75;0.0;0.25;0.0;0.25;0.5;0.0;0.0;0.75;0.0;0.0;-0.246094;0.029785;0.973633;-0.7;-0.98;0.77;302.0;-0.296904;-0.061013
1.07;9.25;2.75;9.0;2.0;0.75;0.0;0.25;0.0;1.25;0.0;0.0;0.0;0.0;2.0;0.25;0.0;-0.230957;0.01709;0.984375;-0.63;0.35;0.56;319.0;-0.242288;0.06505;5.25;8.0;5.0;5.25;0.5;0.5;0.0;0.0;0.25;0.0;0.5;0.0;0.0;0.75;0.0;0.0;-0.245605;0.023926;0.970703;-0.7;-0.91;0.77;292.0;-0.302648;-0.052509
1.08;9.5;2.5;8.75;2.0;0.75;0.0;0.25;0.0;1.0;0.0;0.0;0.0;0.0;1.75;0.25;0.0;-0.22998;0.014648;0.987305;-0.7;0.42;0.49;310.0;-0.252771;0.063834;5.5;8.0;5.0;5.25;0.75;0.5;0.0;0.0;0.25;0.0;0.5;0.25;0.0;0.5;0.0;0.0;-0.248535;0.029297;0.969238;-0.7;-0.98;0.84;299.0;-0.302439;-0.053972
1.09;10.0;2.75;9.0;2.0;0.75;0.0;0.25;0.0;1.25;0.0;0.0;0.0;0.0;2.25;0.25;0.0;-0.229492;0.009277;0.983398;-0.63;0.49;0.42;329.0;-0.241822;0.066976;5.5;8.25;5.0;5.25;0.75;0.5;0.0;0.0;0.25;0.0;0.25;0.25;0.0;0.25;0.0;0.0;-0.24707;0.022949;0.972168;-0.77;-1.05;0.77;296.0;-0.314127;-0.056146
1.1;9.5;3.0;9.0;2.0;0.5;0.0;0.25;0.0;1.25;0.25;0.0;0.0;0.0;2.0;0.0;0.0;-0.227051;0.009766;0.981445;-0.56;0.42;0.56;321.0;-0.247701;0.064961;5.0;8.25;4.75;5.25;0.75;0.5;0.0;0.0;0.25;0.25;0.25;0.25;0.0;0.5;0.0;0.0;-0.252441;0.021484;0.97168;-0.77;-1.05;0.77;292.0;-0.301748;-0.057833
1.11;9.25;3.0;8.75;2.0;0.75;0.0;0.0;0.0;1.0;0.0;0.0;0.0;0.0;2.25;0.0;0.0;-0.226562;0.013672;0.984863;-0.63;0.49;0.63;310.0;-0.25463;0.060362;5.5;8.25;4.75;5.25;0.5;0.5;0.0;0.0;0.25;0.25;0.5;0.25;0.0;0.5;0.0;0.0;-0.250488;0.023926;0.966797;-0.84;-0.91;0.77;298.0;-0.300389;-0.056425
1.12;9.25;3.0;9.0;2.0;0.75;0.0;0.0;0.0;1.25;0.0;0.0;0.0;0.0;2.25;0.0;0.0;-0.227051;0.013184;0.989258;-0.56;0.49;0.56;316.0;-0.248958;0.063058;5.5;8.25;4.75;5.25;0.5;0.5;0.0;0.0;0.25;0.25;0.5;0.0;0.0;0.75;0.25;0.0;-0.25;0.024414;0.974609;-0.7;-0.91;0.77;300.0;-0.293009;-0.052564
1.13;9.5;3.0;8.75;2.25;0.75;0.0;0.0;0.0;1.25;0.0;0.0;0.0;0.0;1.75;0.25;0.0;-0.229004;0.012695;0.98877;-0.49;0.42;0.63;317.0;-0.254287;0.057507;5.5;8.0;4.75;5.25;0.75;0.75;0.0;0.0;0.25;0.25;0.5;0.25;0.0;0.75;0.25;0.0;-0.248047;0.027832;0.967773;-0.77;-0.91;0.77;307.0;-0.284262;-0.054939
1.14;9.5;2.75;8.75;2.0;0.75;0.0;0.25;0.0;1.0;0.0;0.0;0.0;0.0;2.0;0.25;0.0;-0.232422;0.01123;0.992676;-0.42;0.35;0.56;315.0;-0.249177;0.062833;5.25;7.75;4.75;5.25;0.75;0.75;0.0;0.0;0.0;0.25;0.5;0.0;0.0;0.75;0.0;0.0;-0.246094;0.02832;0.967285;-0.7;-0.98;0.84;292.0;-0.300258;-0.056957
1.15;9.5;2.75;9.0;2.0;0.75;0.0;0.25;0.0;1.0;0.0;0.0;0.0;0.0;2.25;0.25;0.0;-0.231445;0.015137;0.98877;-0.56;0.49;0.63;320.0;-0.244534;0.063918;5.25;8.25;4.75;5.25;0.75;0.75;0.0;0.0;0.25;0.25;0.5;0.0;0.0;0.75;0.0;0.0;-0.249023;0.027344;0.975098;-0.7;-0.91;0.84;300.0;-0.295585;-0.054845
1.16;9.5;2.75;9.0;2.0;0.75;0.0;0.0;0.0;1.25;0.0;0.0;0.0;0.0;1.75;0.25;0.0;-0.22998;0.011719;0.986328;-0.56;0.49;0.63;315.0;-0.252779;0.062292;5.75;8.25;5.0;5.5;0.75;0.75;0.0;0.0;0.25;0.0;0.5;0.25;0.0;0.75;0.0;0.0;-0.245117;0.03125;0.973145;-0.77;-0.91;0.77;312.0;-0.297386;-0.055407
1.17;9.75;2.75;8.75;2.0;0.75;0.0;0.0;0.0;1.0;0.25;0.0;0.0;0.0;1.5;0.25;0.0;-0.229004;0.012695;0.985352;-0.56;0.42;0.63;312.0;-0.260322;0.059174;5.5;7.75;4.75;5.25;0.5;0.5;0.0;0.0;0.25;0.25;0.5;0.0;0.25;0.75;0.25;0.25;-0.247559;0.027344;0.974121;-0.77;-0.98;0.77;299.0;-0.284044;-0.055164
1.18;9.75;2.75;8.75;2.0;0.75;0.0;0.0;0.0;1.0;0.0;0.0;0.0;0.0;1.75;0.0;0.0;-0.229492;0.010254;0.981934;-0.63;0.63;0.49;308.0;-0.266082;0.061336;5.25;8.0;4.75;5.25;0.75;0.5;0.0;0.0;0.25;0.25;0.5;0.0;0.25;0.75;0.25;0.0;-0.25;0.028809;0.973145;-0.84;-1.05;0.84;300.0;-0.285628;-0.055202
1.19;9.75;2.75;8.75;2.0;0.75;0.0;0.25;0.0;1.25;0.0;0.0;0.0;0.0;1.75;0.25;0.0;-0.231445;0.009277;0.983887;-0.63;0.56;0.56;319.0;-0.249692;0.064777;5.25;8.0;5.0;5.25;0.5;0.5;0.0;0.0;0.25;0.0;0.5;0.0;0.0;0.75;0.0;0.0;-0.255371;0.021484;0.974609;-0.63;-1.05;0.77;292.0;-0.302648;-0.052509
1.2;9.5;2.75;8.75;2.0;0.75;0.0;0.25;0.0;1.0;0.0;0.0;0.0;0.0;1.75;0.25;0.0;-0.226074;0.009277;0.989746;-0.56;0.56;0.49;312.0;-0.254093;0.061979;5.5;8.25;5.0;5.25;0.75;0.5;0.0;0.0;0.25;0.0;0.5;0.25;0.0;0.5;0.0;0.0;-0.249023;0.025879;0.978516;-0.63;-1.19;0.84;301.0;-0.303396;-0.054911
1.21;9.5;2.75;8.75;2.0;0.5;0.0;0.25;0.0;1.0;0.0;0.0;0.0;0.0;2.0;0.25;0.0;-0.22998;0.009277;0.987793;-0.56;0.49;0.56;312.0;-0.250369;0.062847;5.5;8.25;4.75;5.5;0.75;0.5;0.0;0.0;0.25;0.0;0.5;0.25;0.25;0.5;0.0;0.0;-0.244629;0.023438;0.965332;-0.56;-1.12;0.84;303.0;-0.299952;-0.061197
1.22;9.5;2.75;8.75;2.0;0.75;0.0;0.25;0.0;1.0;0.0;0.0;0.0;0.0;2.25;0.25;0.0;-0.235352;0.008789;0.981445;-0.63;0.49;0.49;317.0;-0.244332;0.063675;5.25;8.25;4.75;5.5;1.0;0.75;0.0;0.0;0.25;0.0;0.5;0.0;0.0;0.75;0.0;0.0;-0.250488;0.026855;0.969238;-0.49;-1.05;0.91;304.0;-0.298841;-0.056488
1.23;9.5;2.75;8.75;2.0;0.5;0.0;0.0;0.0;1.0;0.0;0.0;0.0;0.0;2.0;0.25;0.0;-0.227539;0.014648;0.98291;-0.56;0.7;0.56;308.0;-0.254796;0.06044;5.25;8.25;5.0;5.25;0.75;0.5;0.0;0.0;0.25;0.25;0.5;0.25;0.0;0.75;0.0;0.0;-0.248047;0.030762;0.972656;-0.63;-1.26;0.91;303.0;-0.291892;-0.053546
1.24;9.25;2.75;8.75;2.0;0.5;0.0;0.0;0.0;1.0;0.0;0.0;0.0;0.0;2.0;0.25;0.0;-0.227539;0.01123;0.984863;-0.56;0.63;0.49;305.0;-0.253417;0.05999;5.25;8.25;5.0;5.5;0.75;0.75;0.0;0.0;0.0;0.0;0.5;0.0;0.0;0.75;0.25;0.0;-0.253418;0.026367;0.967285;-0.56;-1.12;0.91;303.0;-0.300094;-0.060336
1.25;9.75;2.75;8.75;2.0;0.75;0.0;0.0;0.0;1.25;0.0;0.0;0.0;0.0;2.25;0.25;0.0;-0.228027;0.010254;0.992676;-0.42;0.49;0.56;319.0;-0.244319;0.064127;5.5;8.25;5.0;5.5;0.75;0.75;0.0;0.0;0.25;0.0;0.5;0.0;0.0;0.5;0.0;0.0;-0.249023;0.028809;0.969727;-0.49;-0.98;0.91;304.0;-0.306619;-0.056438
1.26;9.75;2.75;8.75;2.0;0.75;0.0;0.0;0.0;1.25;0.0;0.0;0.0;0.0;2.0;0.25;0.0;-0.225098;0.012695;0.98877;-0.49;0.49;0.63;317.0;-0.249129;0.063295;5.5;8.25;5.0;5.25;0.5;0.75;0.0;0.0;0.25;0.25;0.5;0.0;0.0;0.5;0.0;0.0;-0.25;0.024414;0.976562;-0.7;-1.05;0.84;301.0;-0.303451;-0.054798
1.27;9.75;2.75;8.75;2.0;0.75;0.0;0.0;0.0;1.0;0.0;0.0;0.0;0.0;2.0;0.25;0.0;-0.230957;0.010254;0.98877;-0.63;0.56;0.56;313.0;-0.254897;0.060887;5.5;8.25;5.25;5.25;0.5;0.5;0.0;0.0;0.25;0.25;0.5;0.0;0.25;0.75;0.0;0.0;-0.248047;0.026367;0.970703;-0.63;-1.05;0.77;306.0;-0.295466;-0.052607
1.28;9.25;2.75;8.75;2.0;0.75;0.0;0.0;0.0;1.0;0.0;0.0;0.0;0.0;1.75;0.5;0.0;-0.234863;0.010254;0.983398;-0.49;0.56;0.63;308.0;-0.251039;0.057796;5.5;8.25;5.0;5.5;0.75;0.5;0.0;0.0;0.25;0.25;0.5;0.0;0.0;0.75;0.0;0.0;-0.252441;0.029785;0.973145;-0.7;-0.98;0.7;306.0;-0.297594;-0.051446
1.29;9.75;2.75;8.75;2.0;0.75;0.0;0.0;0.0;0.75;0.0;0.0;0.0;0.0;1.75;0.25;0.0;-0.230469;0.01416;0.98877;-0.56;0.7;0.56;308.0;-0.265879;0.057523;5.5;8.25;5.0;5.5;0.75;0.5;0.0;0.25;0.25;0.25;0.5;0.0;0.0;0.75;0.0;0.0;-0.245605;0.02832;0.970703;-0.7;-0.91;0.84;311.0;-0.293769;-0.056009
1.3;9.75;2.75;8.75;2.0;0.75;0.0;0.25;0.0;1.0;0.0;0.0;0.0;0.0;2.0;0.0;0.0;-0.228516;0.014648;0.979004;-0.56;0.77;0.56;315.0;-0.256544;0.064568;5.5;8.25;5.0;5.5;0.75;0.75;0.0;0.0;0.25;0.0;0.5;0.0;0.0;0.75;0.0;0.0;-0.246582;0.021484;0.973633;-0.77;-0.98;0.7;306.0;-0.301172;-0.054664
1.31;9.25;2.75;8.75;2.0;0.5;0.0;0.25;0.0;1.0;0.0;0.0;0.0;0.0;2.0;0.0;0.0;-0.22998;0.009277;0.98291;-0.49;0.77;0.56;306.0;-0.255117;0.063778;5.5;8.25;5.25;5.5;0.5;0.5;0.0;0.0;0.0;0.0;0.5;0.0;0.0;0.75;0.25;0.0;-0.245605;0.02832;0.970703;-0.7;-0.91;0.7;303.0;-0.303894;-0.056366
1.32;9.25;2.75;8.75;2.0;0.75;0.0;0.25;0.0;1.0;0.0;0.0;0.0;0.0;2.0;0.0;0.0;-0.234375;0.013184;0.987305;-0.49;0.63;0.56;309.0;-0.253857;0.063755;5.25;8.25;5.0;5.25;0.75;0.5;0.0;0.0;0.0;0.25;0.5;0.0;0.0;1.0;0.0;0.0;-0.252441;0.030273;0.969727;-0.7;-0.84;0.7;299.0;-0.297807;-0.053339
1.33;9.75;2.75;8.75;2.0;0.5;0.0;0.25;0.0;1.25;0.25;0.0;0.0;0.0;2.0;0.25;0.0;-0.226074;0.009766;0.986328;-0.49;0.7;0.56;321.0;-0.241726;0.065619;5.5;8.5;5.0;5.5;0.5;0.5;0.0;0.0;0.25;0.25;0.5;0.0;0.0;0.5;0.0;0.0;-0.24707;0.028809;0.974121;-0.77;-0.91;0.84;304.0;-0.305716;-0.055265
1.34;9.5;3.0;8.75;2.0;0.5;0.0;0.0;0.0;0.75;0.0;0.0;0.0;0.0;1.75;0.25;0.0;-0.230957;0.01123;0.98584;-0.49;0.63;0.49;304.0;-0.267237;0.055155;5.5;8.25;5.0;5.5;0.5;0.5;0.0;0.0;0.25;0.25;0.5;0.0;0.25;0.5;0.25;0.0;-0.249512;0.030762;0.96875;-0.63;-0.91;0.84;306.0;-0.294474;-0.057729
1.35;9.5;2.75;8.75;2.0;0.5;0.0;0.0;0.0;0.75;0.0;0.0;0.0;0.0;1.75;0.25;0.0;-0.230957;0.011719;0.987305;-0.49;0.56;0.63;302.0;-0.265988;0.057003;5.5;8.25;5.0;5.5;0.5;0.75;0.0;0.0;0.25;0.0;0.5;0.0;0.0;0.75;0.0;0.0;-0.254883;0.025391;0.97168;-0.63;-0.98;0.84;303.0;-0.302911;-0.055811
1.36;9.5;2.75;8.75;2.0;0.75;0.0;0.0;0.0;1.0;0.0;0.0;0.0;0.0;1.75;0.25;0.0;-0.228027;0.016113;0.990234;-0.35;0.56;0.49;308.0;-0.25856;0.059566;5.5;8.25;5.0;5.5;0.75;0.75;0.0;0.0;0.25;0.0;0.5;0.25;0.0;0.75;0.0;0.0;-0.253418;0.029297;0.978516;-0.77;-0.98;0.77;309.0;-0.296417;-0.056909
1.37;9.5;2.75;8.75;2.0;0.75;0.0;0.25;0.0;1.0;0.0;0.0;0.0;0.0;1.75;0.25;0.0;-0.228516;0.010742;0.98584;-0.42;0.49;0.56;312.0;-0.254093;0.061979;5.75;8.5;5.0;5.5;0.5;0.75;0.0;0.25;0.0;0.25;0.5;0.0;0.25;0.75;0.0;0.0;-0.249023;0.023438;0.970703;-0.77;-0.91;0.77;315.0;-0.298796;-0.06537
1.38;9.5;2.75;8.75;2.0;0.75;0.0;0.0;0.0;1.0;0.0;0.0;0.0;0.0;2.0;0.25;0.0;-0.227051;0.010742;0.981934;-0.42;0.49;0.56;311.0;-0.253545;0.060449;5.75;8.5;5.0;5.5;0.5;0.75;0.0;0.0;0.0;0.25;0.5;0.0;0.0;0.75;0.0;0.0;-0.245605;0.03125;0.979004;-0.7;-0.91;0.7;308.0;-0.306245;-0.05793
1.39;9.5;3.0;8.75;2.0;0.5;0.0;0.0;0.0;0.75;0.0;0.0;0.0;0.0;1.75;0.25;0.0;-0.231934;0.009277;0.989746;-0.63;0.56;0.63;304.0;-0.267237;0.055155;5.75;8.5;5.0;5.5;0.75;0.75;0.0;0.0;0.25;0.25;0.25;0.0;0.0;1.0;0.0;0.0;-0.249512;0.025879;0.974609;-0.7;-0.84;0.7;314.0;-0.297644;-0.050739
1.4;9.75;2.75;9.0;2.0;0.5;0.0;0.0;0.0;0.75;0.0;0.0;0.0;0.0;1.5;0.25;0.0;-0.225586;0.013184;0.987305;-0.56;0.49;0.56;305.0;-0.272415;0.056888;5.75;8.25;5.25;5.5;0.75;0.75;0.0;0.0;0.25;0.25;0.25;0.0;0.0;0.25;0.25;0.0;-0.250488;0.030762;0.974121;-0.56;-0.84;0.84;311.0;-0.305777;-0.05384
1.41;9.75;2.75;8.75;2.0;0.75;0.0;0.25;0.0;0.75;0.0;0.0;0.0;0.0;1.5;0.25;0.0;-0.219727;0.013672;0.98291;-0.56;0.56;0.7;309.0;-0.266362;0.059085;5.75;8.25;5.0;5.5;0.75;0.75;0.0;0.25;0.25;0.25;0.5;0.0;0.0;0.25;0.25;0.25;-0.250977;0.028809;0.971191;-0.7;-0.98;0.77;316.0;-0.294366;-0.061452
1.42;9.25;2.75;8.5;2.0;0.5;0.0;0.25;0.0;1.0;0.0;0.0;0.0;0.0;1.75;0.25;0.0;-0.22998;0.010254;0.987793;-0.49;0.42;0.56;304.0;-0.253861;0.061273;5.75;8.25;4.75;5.5;0.75;0.75;0.0;0.25;0.0;0.0;0.5;0.0;0.0;0.5;0.0;0.0;-0.249512;0.025879;0.975098;-0.63;-0.84;0.77;305.0;-0.310519;-0.064831
1.43;9.25;2.75;8.75;2.0;0.5;0.0;0.0;0.0;0.75;0.0;0.0;0.0;0.0;1.75;0.25;0.0;-0.228027;0.013672;0.984375;-0.56;0.49;0.63;299.0;-0.264688;0.056511;5.5;8.25;5.0;5.5;0.75;0.75;0.0;0.25;0.0;0.0;0.5;0.0;0.0;0.5;0.0;0.0;-0.249512;0.027344;0.968262;-0.7;-0.91;0.84;305.0;-0.309206;-0.064901
1.44;9.25;2.75;8.75;2.0;0.75;0.0;0.0;0.0;0.75;0.0;0.0;0.0;0.0;1.75;0.25;0.0;-0.229492;0.013184;0.985352;-0.7;0.56;0.42;302.0;-0.263303;0.05656;5.5;8.25;5.25;5.5;0.75;0.5;0.0;0.25;0.0;0.0;0.25;0.25;0.0;0.5;0.0;0.0;-0.24707;0.024414;0.972656;-0.7;-0.91;0.77;305.0;-0.310418;-0.063031
1.45;9.5;3.0;8.75;2.0;0.75;0.0;0.0;0.0;0.75;0.0;0.0;0.0;0.0;1.75;0.25;0.0;-0.230957;0.013672;0.991699;-0.77;0.56;0.63;307.0;-0.26585;0.055215;5.75;8.25;5.25;5.5;0.75;0.75;0.0;0.25;0.25;0.0;0.25;0.25;0.0;0.5;0.0;0.0;-0.25;0.027344;0.969238;-0.63;-0.91;0.77;314.0;-0.303307;-0.059631
1.46;9.5;2.75;8.75;2.0;0.75;0.0;0.0;0.0;1.0;0.0;0.0;0.0;0.0;1.75;0.25;0.0;-0.231445;0.01416;0.989746;-0.7;0.63;0.42;308.0;-0.25856;0.059566;5.5;8.25;5.25;5.25;0.5;1.0;0.0;0.25;0.25;0.0;0.5;0.0;0.0;0.5;0.0;0.0;-0.247559;0.025391;0.972168;-0.63;-0.84;0.77;308.0;-0.302698;-0.061121
1.47;9.5;2.75;9.0;2.0;0.75;0.0;0.25;0.0;0.75;0.0;0.0;0.0;0.0;1.75;0.25;0.0;-0.227051;0.01416;0.987793;-0.63;0.56;0.49;312.0;-0.260058;0.059811;5.75;8.25;5.25;5.25;0.75;0.75;0.0;0.0;0.25;0.25;0.25;0.25;0.0;0.5;0.0;0.0;-0.249512;0.022461;0.973145;-0.63;-0.91;0.7;310.0;-0.302381;-0.052437
1.48;9.5;2.75;8.75;2.0;0.75;0.0;0.25;0.0;0.75;0.0;0.0;0.0;0.0;1.75;0.25;0.0;-0.227051;0.016602;0.987793;-0.7;0.56;0.49;309.0;-0.260005;0.05952;5.75;8.5;5.25;5.5;0.75;0.5;0.0;0.25;0.25;0.25;0.5;0.0;0.0;0.5;0.0;0.0;-0.245605;0.029297;0.974121;-0.56;-1.05;0.77;317.0;-0.300633;-0.055726
1.49;9.5;2.5;8.75;2.0;0.5;0.0;0.25;0.0;1.0;0.0;0.0;0.0;0.0;1.75;0.25;0.0;-0.231445;0.010254;0.982422;-0.7;0.56;0.56;307.0;-0.254018;0.063858;5.75;8.5;5.0;5.5;0.75;0.75;0.0;0.25;0.25;0.0;0.5;0.0;0.0;0.5;0.0;0.0;-0.248535;0.025391;0.974609;-0.63;-0.91;0.77;314.0;-0.30447;-0.060279
1.5;9.25;2.5;8.75;2.0;0.5;0.0;0.25;0.0;1.0;0.0;0.0;0.0;0.0;2.0;0.0;0.0;-0.228516;0.01416;0.986328;-0.7;0.63;0.42;304.0;-0.253776;0.065687;5.75;8.5;5.0;5.5;0.75;0.75;0.0;0.25;0.25;0.0;0.5;0.0;0.0;0.5;0.0;0.0;-0.249023;0.02832;0.976562;-0.49;-0.98;0.7;314.0;-0.30447;-0.060279
1.51;9.0;2.75;8.75;2.0;0.5;0.0;0.25;0.0;0.75;0.0;0.0;0.0;0.0;2.0;0.0;0.0;-0.232422;0.015137;0.984375;-0.56;0.49;0.49;300.0;-0.259823;0.060839;5.75;8.5;5.0;5.5;0.5;0.75;0.0;0.25;0.25;0.25;0.25;0.0;0.0;0.75;0.0;0.0;-0.250977;0.029785;0.970215;-0.56;-0.91;0.77;313.0;-0.300768;-0.058045
1.52;9.25;2.75;8.75;2.0;0.75;0.0;0.25;0.0;1.0;0.0;0.0;0.0;0.0;2.0;0.0;0.0;-0.230957;0.009766;0.983398;-0.77;0.56;0.56;309.0;-0.253857;0.063755;5.75;8.5;5.0;5.5;0.75;0.75;0.0;0.25;0.25;0.25;0.25;0.0;0.0;0.75;0.0;0.0;-0.251465;0.03125;0.96875;-0.56;-0.91;0.77;316.0;-0.299102;-0.056911
1.53;9.5;2.5;8.5;2.0;0.5;0.0;0.25;0.0;1.25;0.0;0.0;0.0;0.0;2.0;0.25;0.0;-0.229004;0.018555;0.984863;-0.7;0.63;0.56;310.0;-0.243017;0.066891;5.5;8.25;5.0;5.5;0.75;0.75;0.0;0.25;0.25;0.0;0.5;0.0;0.0;0.75;0.25;0.0;-0.249512;0.028809;0.967285;-0.56;-0.84;0.77;314.0;-0.290857;-0.059393
1.54;9.5;2.75;8.75;1.75;0.5;0.0;0.25;0.0;1.0;0.0;0.0;0.0;0.0;2.25;0.25;0.0;-0.230957;0.014648;0.98291;-0.63;0.63;0.56;311.0;-0.245064;0.066478;5.75;8.25;4.75;5.5;0.75;0.5;0.0;0.25;0.25;0.0;0.5;0.0;0.0;0.75;0.5;0.25;-0.251953;0.024902;0.972168;-0.63;-0.98;0.84;315.0;-0.283996;-0.058707
1.55;9.25;2.75;8.75;2.0;0.75;0.0;0.25;0.0;1.0;0.0;0.0;0.0;0.0;2.0;0.5;0.0;-0.225098;0.01416;0.984375;-0.63;0.56;0.49;315.0;-0.241811;0.061099;5.5;8.25;5.0;5.5;0.75;0.5;0.0;0.25;0.25;0.0;0.25;0.0;0.0;0.75;0.0;0.0;-0.250488;0.025391;0.974121;-0.7;-0.98;0.84;305.0;-0.303626;-0.056565
1.56;9.75;2.5;8.75;1.75;0.75;0.0;0.0;0.0;1.0;0.0;0.0;0.0;0.0;2.0;0.25;0.0;-0.22998;0.010742;0.984375;-0.7;0.7;0.49;308.0;-0.253255;0.065527;5.5;8.25;5.25;5.5;0.75;1.0;0.0;0.25;0.25;0.0;0.5;0.25;0.0;0.25;0.0;0.0;-0.249512;0.028809;0.969238;-0.63;-0.98;0.84;315.0;-0.301451;-0.065419
1.57;9.5;2.75;8.75;2.0;0.75;0.0;0.0;0.0;1.0;0.0;0.0;0.0;0.0;1.75;0.0;0.0;-0.234863;0.01709;0.986328;-0.7;0.7;0.56;305.0;-0.264811;0.060895;5.5;8.0;5.25;5.5;0.75;0.75;0.0;0.0;0.0;0.0;0.5;0.0;0.0;0.5;0.0;0.0;-0.248535;0.030273;0.970215;-0.7;-0.91;0.77;301.0;-0.311968;-0.057972
1.58;9.5;2.75;8.75;2.0;0.75;0.0;0.25;0.0;1.0;0.0;0.0;0.0;0.0;1.75;0.25;0.0;-0.235352;0.012207;0.987793;-0.7;0.56;0.56;312.0;-0.254093;0.061979;5.25;8.25;5.0;5.5;0.5;1.0;0.0;0.0;0.25;0.25;0.25;0.0;0.0;0.75;0.0;0.0;-0.248047;0.026367;0.971191;-0.7;-0.98;0.84;304.0;-0.300394;-0.057786
1.59;9.75;2.75;8.75;2.0;0.5;0.0;0.25;0.0;1.0;0.0;0.0;0.0;0.0;2.0;0.25;0.0;-0.230469;0.013184;0.983398;-0.63;0.63;0.63;315.0;-0.251745;0.063262;5.5;8.5;5.0;5.25;0.5;0.75;0.0;0.0;0.25;0.25;0.5;0.0;0.0;0.75;0.25;0.0;-0.247559;0.030762;0.966309;-0.63;-0.84;0.77;309.0;-0.29239;-0.054213
1.6;9.25;2.75;8.75;1.75;0.5;0.0;0.25;0.0;1.0;0.0;0.0;0.0;0.0;2.25;0.0;0.0;-0.231934;0.008301;0.990234;-0.63;0.7;0.56;305.0;-0.249724;0.067479;5.75;8.5;5.0;5.5;0.5;0.5;0.0;0.0;0.25;0.25;0.5;0.0;0.0;0.75;0.0;0.0;-0.252441;0.031738;0.969727;-0.77;-1.05;0.84;309.0;-0.30121;-0.052009
1.61;9.5;2.75;8.75;2.0;0.5;0.0;0.25;0.0;1.0;0.0;0.0;0.0;0.0;2.0;0.0;0.0;-0.23584;0.009766;0.98291;-0.56;0.77;0.56;309.0;-0.256475;0.064192;5.75;8.25;5.0;5.5;0.5;0.5;0.0;0.25;0.25;0.25;0.5;0.0;0.0;0.75;0.0;0.0;-0.248535;0.02832;0.970215;-0.56;-0.91;0.7;310.0;-0.296397;-0.055641
1.62;9.25;2.75;8.75;2.0;0.75;0.0;0.0;0.0;1.0;0.0;0.0;0.0;0.0;2.0;0.25;0.0;-0.233398;0.01123;0.987793;-0.63;0.56;0.63;308.0;-0.252168;0.060004;5.5;8.25;5.25;5.5;0.75;0.75;0.0;0.25;0.25;0.0;0.25;0.0;0.25;0.75;0.0;0.0;-0.245117;0.02832;0.970703;-0.63;-0.91;0.7;313.0;-0.298261;-0.060245
1.63;9.0;2.5;8.75;2.0;0.75;0.0;0.0;0.0;0.75;0.0;0.0;0.0;0.0;2.0;0.25;0.0;-0.229004;0.012207;0.983887;-0.49;0.7;0.63;299.0;-0.255435;0.058883;5.5;8.5;5.0;5.5;0.75;1.0;0.0;0.25;0.25;0.25;0.25;0.25;0.25;0.75;0.0;0.0;-0.244629;0.03418;0.974121;-0.63;-1.05;0.77;321.0;-0.288834;-0.065475
1.64;9.25;2.5;8.75;1.75;0.5;0.0;0.0;0.0;1.25;0.0;0.0;0.0;0.0;2.0;0.25;0.0;-0.22998;0.006836;0.980469;-0.56;0.63;0.63;303.0;-0.2457;0.067222;5.5;8.25;5.5;5.5;0.5;0.5;0.0;0.0;0.25;0.0;0.25;0.25;0.25;0.75;0.0;0.0;-0.251953;0.030762;0.967285;-0.63;-0.98;0.77;309.0;-0.300141;-0.05563
1.65;9.25;2.5;8.75;2.0;0.5;0.0;0.0;0.0;1.0;0.0;0.0;0.0;0.0;2.0;0.25;0.0;-0.231934;0.013184;0.982422;-0.49;0.77;0.63;302.0;-0.252056;0.061875;5.5;8.0;5.5;5.5;0.75;0.5;0.0;0.0;0.25;0.0;0.5;0.25;0.0;0.5;0.0;0.0;-0.247559;0.023438;0.975586;-0.63;-0.98;0.63;308.0;-0.301561;-0.052798
1.66;9.0;2.75;8.5;1.75;0.5;0.0;0.0;0.0;1.0;0.0;0.0;0.0;0.0;2.0;0.25;0.0;-0.227539;0.017578;0.988281;-0.63;0.7;0.63;296.0;-0.251513;0.062107;5.5;8.0;5.25;5.5;0.75;0.75;0.0;0.25;0.25;0.25;0.5;0.25;0.0;0.75;0.25;0.0;-0.247559;0.027832;0.969727;-0.56;-0.84;0.63;320.0;-0.280394;-0.058167
1.67;9.0;2.75;8.5;1.75;0.5;0.0;0.25;0.0;1.0;0.0;0.0;0.0;0.0;2.25;0.25;0.0;-0.230469;0.013672;0.984375;-0.49;0.63;0.56;302.0;-0.241896;0.065453;5.5;8.0;5.0;5.25;0.75;0.75;0.0;0.0;0.25;0.25;0.5;0.25;0.0;0.75;0.25;0.0;-0.250488;0.029297;0.97168;-0.63;-0.91;0.77;310.0;-0.284077;-0.053518
1.68;9.5;2.75;8.5;2.0;0.75;0.0;0.25;0.0;1.0;0.0;0.0;0.0;0.0;1.5;0.25;0.0;-0.22998;0.004395;0.986816;-0.49;0.56;0.63;307.0;-0.25902;0.060833;5.5;8.25;5.0;5.5;0.5;0.75;0.0;0.0;0.25;0.0;0.5;0.25;0.0;0.75;0.0;0.25;-0.248047;0.030762;0.971191;-0.42;-0.84;0.7;308.0;-0.294923;-0.059296
1.69;9.5;2.5;8.5;1.75;0.75;0.0;0.25;0.0;1.0;0.0;0.0;0.0;0.0;1.75;0.0;0.0;-0.228516;0.016602;0.983398;-0.56;0.7;0.63;301.0;-0.258585;0.067842;5.5;8.0;5.0;5.5;0.5;0.75;0.0;0.25;0.25;0.0;0.75;0.25;0.0;0.75;0.0;0.0;-0.249512;0.025879;0.972656;-0.56;-0.91;0.84;311.0;-0.288484;-0.062193
1.7;9.25;2.25;8.5;2.0;0.5;0.0;0.25;0.0;1.0;0.0;0.0;0.0;0.0;1.75;0.25;0.0;-0.230469;0.016113;0.989258;-0.56;0.49;0.56;299.0;-0.251112;0.065113;5.5;8.25;5.25;5.5;0.5;0.75;0.0;0.25;0.25;0.0;0.75;0.25;0.0;0.75;0.25;0.0;-0.251953;0.026855;0.976562;-0.56;-0.91;0.77;319.0;-0.283028;-0.061746
1.71;9.25;2.5;8.75;2.0;0.5;0.0;0.25;0.0;0.75;0.0;0.0;0.0;0.0;1.75;0.25;0.0;-0.232422;0.016113;0.983887;-0.49;0.42;0.63;301.0;-0.258686;0.060929;5.5;8.25;5.25;5.5;0.75;0.75;0.0;0.25;0.25;0.25;0.5;0.0;0.25;0.75;0.0;0.0;-0.245605;0.022949;0.969727;-0.56;-0.98;0.84;319.0;-0.288759;-0.059637
1.72;9.25;2.5;8.75;2.0;0.5;0.0;0.25;0.0;0.75;0.0;0.0;0.0;0.0;1.75;0.0;0.0;-0.226074;0.013184;0.981934;-0.7;0.42;0.56;298.0;-0.265103;0.062306;5.5;8.25;5.0;5.5;0.75;0.75;0.0;0.25;0.25;0.25;0.5;0.0;0.25;0.75;0.0;0.0;-0.248535;0.028809;0.974609;-0.42;-0.98;0.77;316.0;-0.288984;-0.061076
1.73;9.25;2.5;8.5;2.0;0.5;0.0;0.25;0.0;1.25;0.0;0.0;0.0;0.0;2.0;0.0;0.0;-0.225098;0.015137;0.986328;-0.56;0.49;0.56;304.0;-0.247658;0.067905;5.5;8.0;5.0;5.25;0.75;0.75;0.0;0.25;0.25;0.25;0.5;0.25;0.0;0.75;0.0;0.0;-0.246582;0.025879;0.975586;-0.42;-0.77;0.84;311.0;-0.286815;-0.057784
1.74;9.0;2.5;8.5;1.75;0.75;0.0;0.25;0.0;1.0;0.0;0.0;0.0;0.0;2.25;0.25;0.0;-0.231445;0.012695;0.986328;-0.7;0.63;0.49;303.0;-0.239287;0.06734;5.0;8.0;5.0;5.5;0.75;0.75;0.0;0.25;0.25;0.25;0.5;0.25;0.0;0.75;0.25;0.0;-0.245605;0.02832;0.97168;-0.42;-0.84;0.77;311.0;-0.278304;-0.062651
1.75;9.0;2.5;8.25;1.75;0.75;0.0;0.25;0.0;1.0;0.0;0.0;0.0;0.0;1.75;0.25;0.0;-0.226562;0.013672;0.98584;-0.7;0.56;0.42;295.0;-0.249269;0.065377;4.75;8.0;5.0;5.5;0.75;1.0;0.0;0.0;0.25;0.25;0.75;0.0;0.0;0.75;0.25;0.0;-0.246582;0.02832;0.972168;-0.35;-0.84;0.77;307.0;-0.279416;-0.060114
1.76;9.25;2.5;8.75;1.75;0.5;0.0;0.25;0.0;1.25;0.25;0.0;0.0;0.0;1.75;0.25;0.0;-0.227051;0.014648;0.991211;-0.7;0.56;0.49;308.0;-0.241811;0.068706;5.25;7.75;5.0;5.25;0.75;0.75;0.0;0.0;0.25;0.25;0.75;0.25;0.25;0.75;0.25;0.25;-0.245117;0.031738;0.96875;-0.35;-0.84;0.77;311.0;-0.27072;-0.058986
1.77;9.25;2.5;8.5;1.75;0.5;0.0;0.25;0.0;1.0;0.0;0.0;0.0;0.0;1.75;0.25;0.0;-0.225098;0.016602;0.986816;-0.56;0.49;0.56;298.0;-0.252146;0.066074;5.5;7.75;5.0;5.25;0.75;0.75;0.0;0.25;0.25;0.25;0.75;0.0;0.25;1.0;0.0;0.0;-0.246094;0.029297;0.972656;-0.56;-0.84;0.84;313.0;-0.277033;-0.056544
1.78;9.25;2.5;8.5;1.75;0.5;0.0;0.25;0.0;0.75;0.0;0.0;0.0;0.0;2.0;0.0;0.0;-0.234863;0.008789;0.986816;-0.63;0.49;0.49;294.0;-0.259518;0.065868;5.25;8.0;5.0;5.5;0.75;1.0;0.0;0.25;0.25;0.25;0.75;0.0;0.25;0.75;0.25;0.0;-0.247559;0.027344;0.968262;-0.56;-0.77;0.84;319.0;-0.274819;-0.064407
1.79;9.5;2.5;8.5;1.75;0.5;0.0;0.0;0.0;1.0;0.0;0.0;0.0;0.0;2.25;0.0;0.0;-0.234375;0.019043;0.992188;-0.7;0.63;0.49;299.0;-0.254162;0.067205;5.25;7.75;5.0;5.75;0.75;0.75;0.0;0.25;0.25;0.25;0.75;0.25;0.25;0.75;0.25;0.0;-0.243652;0.030762;0.975586;-0.42;-0.77;0.77;320.0;-0.270596;-0.065254
1.8;9.0;2.75;8.5;1.75;0.5;0.0;0.0;0.0;1.25;0.0;0.0;0.0;0.0;2.25;0.0;0.0;-0.228516;0.013184;0.984375;-0.7;0.63;0.56;299.0;-0.246601;0.066926;5.5;8.0;5.5;5.5;0.75;0.75;0.0;0.25;0.25;0.25;0.75;0.25;0.25;1.0;0.0;0.0;-0.249023;0.025879;0.976562;-0.49;-0.77;0.77;327.0;-0.27371;-0.058317
1.81;9.0;2.75;8.5;1.75;0.75;0.0;0.25;0.0;1.0;0.0;0.0;0.0;0.0;2.25;0.0;0.0;-0.225586;0.009766;0.988281;-0.63;0.63;0.49;303.0;-0.246894;0.066811;5.25;8.0;5.0;5.25;0.75;0.75;0.0;0.25;0.25;0.25;0.75;0.25;0.0;1.0;0.0;0.0;-0.249023;0.025391;0.966797;-0.63;-0.91;0.63;313.0;-0.275897;-0.058075
1.82;9.25;2.5;8.5;1.75;0.5;0.0;0.25;0.0;1.0;0.0;0.0;0.0;0.0;1.75;0.0;0.0;-0.229492;0.015137;0.97998;-0.63;0.28;0.49;295.0;-0.258552;0.067513;5.25;7.5;5.0;5.5;0.75;0.75;0.0;0.25;0.25;0.25;0.75;0.25;0.0;1.0;0.25;0.25;-0.249512;0.034668;0.974121;-0.7;-0.84;0.63;316.0;-0.264562;-0.059352
1.83;9.25;2.5;8.5;1.75;0.5;0.0;0.0;0.0;1.25;0.0;0.0;0.0;0.0;2.0;0.25;0.0;-0.230469;0.013184;0.985352;-0.56;0.49;0.56;300.0;-0.245499;0.066998;5.125;7.625;5.0;5.375;0.75;0.875;0.0;0.25;0.25;0.25;0.75;0.25;0.0;1.0;0.25;0.375;-0.249756;0.029540999999999998;0.9733885;-0.7;-0.84;0.665;316.5;-0.26244900000000004;-0.061342
1.84;9.0;2.5;8.5;1.75;0.5;0.0;0.0;0.0;1.0;0.0;0.0;0.0;0.0;2.25;0.25;0.0;-0.226074;0.010254;0.98877;-0.7;0.63;0.49;296.0;-0.244893;0.064959;5.0;7.75;5.0;5.25;0.75;1.0;0.0;0.25;0.25;0.25;0.75;0.25;0.0;1.0;0.25;0.5;-0.25;0.024414;0.972656;-0.7;-0.84;0.7;317.0;-0.260336;-0.063332
1.85;9.5;2.75;8.5;1.75;0.5;0.0;0.0;0.0;0.5;0.0;0.0;0.0;0.0;2.25;0.25;0.0;-0.231445;0.016602;0.984863;-0.63;0.56;0.56;297.0;-0.261456;0.05879;5.25;7.5;5.25;5.25;0.75;0.5;0.0;0.25;0.25;0.25;0.75;0.25;0.0;0.75;0.0;0.0;-0.25293;0.024414;0.976562;-0.84;-0.91;0.7;306.0;-0.2799;-0.054525
1.86;9.0;2.75;8.75;1.75;0.5;0.0;0.25;0.0;1.25;0.0;0.0;0.0;0.0;2.25;0.25;0.0;-0.231445;0.008301;0.988281;-0.56;0.49;0.49;309.0;-0.236362;0.068105;5.0;7.75;5.0;5.25;0.75;1.0;0.0;0.25;0.25;0.25;0.75;0.25;0.0;0.75;0.0;0.0;-0.25;0.028809;0.970703;-0.7;-0.91;0.7;309.0;-0.277566;-0.062568
1.87;8.75;2.5;8.5;2.0;0.5;0.0;0.25;0.0;1.25;0.0;0.0;0.0;0.0;2.0;0.25;0.0;-0.226562;0.016602;0.986816;-0.56;0.56;0.49;301.0;-0.238501;0.065706;5.25;7.5;5.0;5.5;0.75;1.0;0.0;0.25;0.25;0.5;0.75;0.25;0.25;0.75;0.25;0.25;-0.244141;0.030273;0.96875;-0.63;-0.91;0.7;321.0;-0.260768;-0.064898
1.88;9.0;2.5;8.5;1.75;0.5;0.0;0.25;0.0;1.0;0.0;0.0;0.0;0.0;2.25;0.0;0.0;-0.230469;0.013672;0.989746;-0.56;0.42;0.49;297.0;-0.246682;0.068842;5.25;7.5;4.75;5.5;0.75;1.0;0.0;0.25;0.25;0.25;0.75;0.25;0.25;0.75;0.25;0.0;-0.246094;0.030762;0.972656;-0.63;-0.84;0.77;314.0;-0.26819;-0.066388
1.89;9.25;2.75;8.5;2.0;0.5;0.0;0.0;0.0;1.25;0.0;0.0;0.0;0.0;2.25;0.25;0.0;-0.228516;0.009766;0.984863;-0.63;0.56;0.56;308.0;-0.242346;0.06308;5.0;7.5;5.0;5.5;0.75;1.0;0.0;0.25;0.25;0.25;0.75;0.25;0.25;1.0;0.5;0.0;-0.253418;0.024414;0.970215;-0.63;-0.84;0.77;319.0;-0.255955;-0.064822
1.9;9.0;2.5;8.5;2.0;0.5;0.0;0.0;0.0;1.25;0.0;0.0;0.0;0.0;2.0;0.25;0.0;-0.231934;0.013672;0.987305;-0.49;0.42;0.49;300.0;-0.244431;0.063686;5.25;7.75;5.0;5.5;0.75;1.0;0.0;0.25;0.25;0.25;0.75;0.25;0.25;1.0;0.25;0.0;-0.249512;0.02832;0.972168;-0.7;-0.84;0.77;322.0;-0.264418;-0.063934
1.91;9.0;2.25;8.5;1.75;0.5;0.0;0.25;0.0;1.25;0.0;0.0;0.0;0.0;1.75;0.25;0.0;-0.232422;0.01709;0.986816;-0.49;0.56;0.56;296.0;-0.243164;0.070154;5.25;8.0;5.5;5.5;0.75;1.0;0.0;0.25;0.25;0.25;0.75;0.0;0.25;1.25;0.0;0.0;-0.248535;0.03418;0.975586;-0.7;-0.84;0.77;327.0;-0.270868;-0.057948
1.92;9.0;2.5;8.5;1.75;0.5;0.0;0.25;0.0;0.75;0.0;0.0;0.0;0.0;2.25;0.25;0.0;-0.227051;0.01416;0.98584;-0.56;0.56;0.42;296.0;-0.246425;0.064902;5.25;8.0;5.0;5.25;0.75;0.75;0.0;0.25;0.25;0.25;0.75;0.0;0.25;1.0;0.25;0.25;-0.248047;0.023438;0.974609;-0.7;-0.84;0.7;317.0;-0.267846;-0.060324
1.93;9.5;2.5;8.5;1.75;0.5;0.0;0.25;0.0;1.0;0.25;0.0;0.0;0.0;2.25;0.25;0.0;-0.226562;0.010254;0.984863;-0.56;0.42;0.63;308.0;-0.238984;0.06813;5.5;7.5;5.0;5.25;0.75;1.0;0.0;0.25;0.25;0.25;0.75;0.25;0.25;1.0;0.25;0.25;-0.249023;0.027832;0.965332;-0.84;-0.91;0.63;321.0;-0.261343;-0.061255
1.94;9.0;2.5;8.75;1.75;0.75;0.0;0.25;0.0;1.25;0.25;0.0;0.0;0.0;2.25;0.25;0.0;-0.231445;0.015137;0.988281;-0.56;0.7;0.49;312.0;-0.229501;0.069893;5.25;7.5;5.0;5.25;0.75;1.0;0.0;0.25;0.25;0.25;0.75;0.0;0.25;1.0;0.25;0.0;-0.249023;0.027832;0.974609;-0.77;-0.84;0.56;313.0;-0.267326;-0.059443
1.95;9.0;2.25;8.5;1.75;0.5;0.0;0.25;0.0;1.25;0.0;0.0;0.0;0.0;2.0;0.25;0.0;-0.234863;0.008789;0.988281;-0.63;0.49;0.49;299.0;-0.238066;0.07099;5.0;7.5;5.0;5.25;0.75;1.0;0.0;0.25;0.25;0.25;0.75;0.25;0.25;1.0;0.25;0.0;-0.253418;0.033203;0.974121;-0.84;-0.84;0.7;314.0;-0.261719;-0.063133
1.96;9.0;2.25;8.5;1.75;0.5;0.0;0.25;0.0;1.25;0.0;0.0;0.0;0.0;2.25;0.0;0.0;-0.231934;0.01709;0.995117;-0.56;0.35;0.49;298.0;-0.239208;0.073295;4.75;7.5;5.0;5.25;0.75;0.75;0.0;0.25;0.25;0.25;0.75;0.25;0.25;1.0;0.0;0.0;-0.246582;0.031738;0.975098;-0.91;-0.91;0.7;305.0;-0.267766;-0.062503
1.97;9.25;2.5;8.75;1.75;0.5;0.0;0.0;0.0;1.25;0.25;0.0;0.0;0.0;2.25;0.25;0.0;-0.226562;0.015137;0.985352;-0.63;0.42;0.56;308.0;-0.236254;0.068025;5.5;8.0;5.75;5.5;1.0;0.75;0.0;0.25;0.25;0.25;0.75;0.25;0.25;1.0;0.25;0.0;-0.246094;0.03418;0.968262;-0.91;-0.84;0.63;336.0;-0.266506;-0.056115
1.98;9.25;2.5;8.75;1.75;0.5;0.0;0.0;0.0;1.0;0.0;0.0;0.0;0.0;2.25;0.0;0.0;-0.229004;0.012695;0.98584;-0.7;0.49;0.56;299.0;-0.252864;0.067035;5.5;7.75;5.25;5.5;1.0;0.75;0.0;0.25;0.25;0.25;0.5;0.25;0.25;1.0;0.5;0.25;-0.253418;0.030273;0.979004;-0.77;-0.91;0.7;329.0;-0.260964;-0.058831
1.99;9.0;2.25;8.75;1.75;0.75;0.0;0.25;0.0;1.25;0.0;0.0;0.0;0.0;2.25;0.0;0.0;-0.232422;0.012695;0.987305;-0.77;0.63;0.42;304.0;-0.238347;0.073337;5.5;7.5;4.75;5.5;0.75;0.75;0.0;0.25;0.25;0.25;0.5;0.25;0.25;1.0;0.5;0.0;-0.248535;0.029785;0.974609;-0.84;-0.84;0.63;316.0;-0.263836;-0.060781
2.0;9.0;2.5;8.75;1.75;0.75;0.0;0.25;0.0;1.25;0.0;0.0;0.0;0.0;2.25;0.25;0.0;-0.232422;0.013672;0.989258;-0.77;0.63;0.49;309.0;-0.233817;0.069947;5.5;7.75;5.0;5.25;0.75;1.0;0.0;0.25;0.25;0.25;0.75;0.25;0.25;1.0;0.5;0.25;-0.248047;0.029297;0.97168;-0.91;-0.84;0.77;326.0;-0.256663;-0.062249
2.01;9.25;2.75;8.5;1.75;0.5;0.0;0.25;0.0;1.25;0.0;0.0;0.0;0.0;2.25;0.25;0.0;-0.235352;0.016113;0.983398;-0.84;0.56;0.49;309.0;-0.237604;0.068271;5.5;7.5;5.0;5.25;0.75;1.0;0.0;0.25;0.25;0.25;0.75;0.25;0.25;1.0;0.5;0.25;-0.249023;0.029785;0.972656;-0.91;-0.84;0.84;324.0;-0.255417;-0.06144
2.02;9.0;2.5;8.5;1.75;0.5;0.0;0.25;0.0;1.5;0.0;0.0;0.0;0.0;2.25;0.25;0.0;-0.228027;0.016113;0.986816;-0.91;0.42;0.49;307.0;-0.228852;0.07222;5.5;7.25;5.0;5.25;1.0;1.0;0.0;0.25;0.25;0.25;0.75;0.25;0.25;1.0;0.25;0.25;-0.250488;0.027832;0.97168;-0.84;-0.84;0.7;321.0;-0.258853;-0.059286
2.03;9.25;2.5;8.5;1.75;0.75;0.0;0.25;0.0;1.5;0.0;0.0;0.0;0.0;2.25;0.25;0.25;-0.228516;0.005859;0.98584;-0.84;0.56;0.49;314.0;-0.226657;0.070628;5.25;7.25;5.0;5.25;0.75;1.0;0.0;0.25;0.25;0.25;0.75;0.25;0.25;1.25;0.0;0.0;-0.247559;0.030273;0.97168;-0.91;-0.77;0.7;313.0;-0.262879;-0.058793
2.04;9.0;2.5;8.5;1.75;0.75;0.0;0.25;0.0;1.25;0.0;0.0;0.0;0.0;2.5;0.25;0.0;-0.234863;0.010254;0.98877;-0.84;0.49;0.49;309.0;-0.228644;0.070568;5.25;7.25;5.0;5.25;0.75;1.0;0.0;0.25;0.25;0.25;0.75;0.25;0.25;1.25;0.5;0.25;-0.249023;0.031738;0.971191;-0.84;-0.84;0.7;321.0;-0.248006;-0.060388
2.05;9.25;2.5;8.5;1.75;0.75;0.0;0.25;0.0;1.25;0.0;0.0;0.0;0.0;2.25;0.25;0.0;-0.234375;0.012695;0.986328;-0.91;0.49;0.42;309.0;-0.235055;0.070114;5.5;7.25;5.0;5.5;0.75;1.0;0.0;0.25;0.25;0.25;0.5;0.25;0.25;1.25;0.25;0.25;-0.245117;0.025879;0.972168;-0.98;-0.91;0.7;321.0;-0.259835;-0.059743
2.06;9.0;2.5;8.5;1.75;0.75;0.0;0.25;0.0;1.25;0.0;0.0;0.0;0.0;2.25;0.0;0.0;-0.22168;0.010742;0.98291;-0.98;0.42;0.42;304.0;-0.239555;0.071189;5.25;7.0;4.5;5.25;0.75;0.75;0.0;0.25;0.25;0.25;0.5;0.25;0.25;1.25;0.25;0.25;-0.241699;0.027832;0.972168;-0.91;-0.91;0.7;303.0;-0.257861;-0.059706
2.07;9.0;2.5;8.75;2.0;0.75;0.0;0.25;0.0;1.5;0.0;0.0;0.0;0.0;2.5;0.25;0.0;-0.226074;0.019043;0.981934;-0.77;0.35;0.49;318.0;-0.224103;0.070253;5.25;7.25;4.75;5.25;0.75;0.75;0.0;0.25;0.25;0.0;0.75;0.25;0.0;1.25;0.25;0.25;-0.248535;0.02832;0.974609;-0.98;-0.91;0.63;306.0;-0.262632;-0.057681
2.08;9.25;2.5;8.75;1.75;0.75;0.0;0.25;0.0;1.5;0.0;0.0;0.0;0.0;2.25;0.5;0.0;-0.226562;0.016602;0.988281;-0.84;0.35;0.49;319.0;-0.224053;0.071219;5.25;7.25;5.0;5.25;0.75;1.0;0.0;0.25;0.25;0.25;0.75;0.5;0.0;1.0;0.5;0.0;-0.250488;0.024414;0.972656;-0.84;-0.77;0.56;317.0;-0.254626;-0.060107
2.09;9.25;2.5;8.75;1.75;0.5;0.0;0.25;0.0;1.5;0.0;0.0;0.0;0.0;2.5;0.25;0.0;-0.228027;0.009277;0.983887;-0.91;0.42;0.49;315.0;-0.226049;0.073492;5.25;7.25;5.0;5.25;0.75;1.0;0.0;0.25;0.25;0.25;0.75;0.5;0.0;1.25;0.25;0.0;-0.25;0.029297;0.97168;-0.84;-0.84;0.63;317.0;-0.255729;-0.058164
2.1;9.25;2.5;8.75;1.75;0.5;0.0;0.25;0.0;1.5;0.0;0.0;0.0;0.0;2.5;0.0;0.0;-0.231934;0.014648;0.987305;-0.84;0.35;0.56;312.0;-0.231864;0.07492;5.25;7.25;5.0;5.25;0.75;0.75;0.0;0.25;0.25;0.25;0.75;0.25;0.0;1.0;0.0;0.0;-0.248535;0.030273;0.977051;-0.77;-0.77;0.63;306.0;-0.272415;-0.055402
2.11;8.75;2.25;8.5;1.75;0.5;0.0;0.25;0.0;1.5;0.0;0.0;0.0;0.0;2.25;0.25;0.0;-0.225586;0.014648;0.988281;-0.84;0.42;0.56;302.0;-0.225647;0.073867;4.75;7.25;5.0;5.25;0.75;0.75;0.0;0.25;0.5;0.25;0.75;0.25;0.25;1.0;0.25;0.0;-0.255371;0.029785;0.975586;-0.84;-0.77;0.7;309.0;-0.254211;-0.057939
2.12;8.75;2.5;8.75;1.75;0.75;0.0;0.25;0.0;1.5;0.25;0.0;0.0;0.0;2.25;0.25;0.0;-0.224121;0.013184;0.988281;-0.84;0.42;0.49;313.0;-0.22238;0.071875;5.25;7.25;5.0;5.25;0.75;0.75;0.0;0.25;0.25;0.0;0.75;0.25;0.25;1.25;0.25;0.25;-0.248047;0.02832;0.971191;-0.77;-0.91;0.7;312.0;-0.259397;-0.059293
2.13;9.25;2.25;8.75;1.5;0.75;0.0;0.25;0.0;1.5;0.0;0.0;0.0;0.0;2.5;0.0;0.0;-0.23291;0.007324;0.991699;-0.7;0.28;0.42;310.0;-0.22879;0.07965;5.5;7.0;5.0;5.25;0.75;1.0;0.0;0.25;0.25;0.25;1.0;0.25;0.25;1.25;0.0;0.0;-0.251953;0.03418;0.974609;-0.84;-0.84;0.63;316.0;-0.258493;-0.056955
2.14;9.25;2.25;8.75;1.75;0.75;0.0;0.25;0.0;1.5;0.0;0.0;0.0;0.0;2.5;0.25;0.0;-0.230469;0.012695;0.981934;-0.84;0.56;0.49;316.0;-0.223569;0.07529;5.25;7.0;5.0;5.25;1.0;0.75;0.0;0.25;0.25;0.25;1.0;0.5;0.0;1.25;0.25;0.0;-0.248535;0.029785;0.969238;-0.91;-0.77;0.7;317.0;-0.249842;-0.054682
2.15;9.0;2.5;8.75;1.75;0.75;0.0;0.25;0.0;1.5;0.0;0.0;0.0;0.0;2.25;0.0;0.0;-0.230469;0.015625;0.987793;-0.77;0.35;0.49;310.0;-0.234092;0.073709;4.5;7.0;4.25;5.25;1.0;0.75;0.0;0.25;0.25;0.25;0.75;0.25;0.25;1.25;0.5;0.25;-0.250977;0.026855;0.974121;-0.91;-0.77;0.7;300.0;-0.241393;-0.065521
2.16;9.0;2.25;8.75;2.0;0.5;0.0;0.25;0.0;1.25;0.25;0.0;0.0;0.0;2.25;0.0;0.0;-0.228516;0.013672;0.986328;-0.7;0.42;0.49;307.0;-0.2355;0.070454;4.75;7.0;4.75;5.25;1.0;1.0;0.0;0.25;0.25;0.25;0.75;0.25;0.25;1.75;0.5;0.0;-0.250977;0.029297;0.969238;-0.84;-0.91;0.7;315.0;-0.235671;-0.058176
2.17;9.0;2.5;8.5;1.75;0.75;0.0;0.25;0.0;1.25;0.25;0.0;0.0;0.0;2.5;0.25;0.0;-0.234863;0.009277;0.983887;-0.7;0.49;0.49;312.0;-0.224365;0.070507;5.0;6.75;5.0;5.25;1.0;1.0;0.0;0.25;0.25;0.25;0.75;0.25;0.25;1.5;0.5;0.0;-0.250977;0.029785;0.970703;-0.77;-0.84;0.63;316.0;-0.240771;-0.056132
2.18;9.0;2.25;8.5;1.5;0.75;0.0;0.25;0.0;1.5;0.25;0.0;0.0;0.0;2.5;0.0;0.0;-0.233887;0.010254;0.990723;-0.7;0.42;0.49;307.0;-0.222468;0.079139;5.0;7.0;5.5;5.25;1.0;1.0;0.0;0.25;0.25;0.25;0.75;0.25;0.25;1.25;0.5;0.0;-0.249023;0.028809;0.974121;-0.84;-0.91;0.84;323.0;-0.247309;-0.055924
2.19;9.0;2.5;8.5;1.75;0.75;0.0;0.25;0.0;1.75;0.0;0.0;0.0;0.0;2.5;0.25;0.0;-0.230957;0.012695;0.987305;-0.63;0.35;0.49;316.0;-0.217662;0.075181;4.75;7.0;5.0;5.25;1.0;0.75;0.0;0.25;0.5;0.5;0.75;0.25;0.25;1.25;0.5;0.25;-0.249023;0.031738;0.974121;-0.84;-0.84;0.77;319.0;-0.233641;-0.054564
2.2;9.0;2.5;8.75;1.75;0.75;0.0;0.25;0.0;1.75;0.0;0.0;0.0;0.0;2.5;0.0;0.0;-0.236328;0.012207;0.987305;-0.7;0.49;0.49;316.0;-0.223793;0.076743;5.0;7.0;5.0;5.25;0.75;0.75;0.0;0.25;0.5;0.5;1.0;0.25;0.0;1.25;0.25;0.25;-0.254883;0.024902;0.967773;-0.77;-0.91;0.7;316.0;-0.240843;-0.051476
2.21;9.25;2.25;8.75;1.75;0.5;0.0;0.25;0.0;1.75;0.0;0.0;0.0;0.0;2.75;0.0;0.0;-0.234375;0.01416;0.984863;-0.7;0.49;0.42;316.0;-0.22012;0.079859;5.25;7.0;4.5;5.25;0.75;0.5;0.0;0.25;0.25;0.5;0.75;0.25;0.25;1.25;0.25;0.0;-0.253418;0.030273;0.973633;-0.77;-0.84;0.77;304.0;-0.252705;-0.055762
2.22;9.25;2.25;8.5;1.75;0.75;0.0;0.25;0.0;1.5;0.0;0.0;0.0;0.0;2.5;0.0;0.0;-0.229004;0.013672;0.989258;-0.7;0.56;0.63;310.0;-0.228997;0.076609;5.0;7.0;4.75;5.25;0.75;1.0;0.0;0.25;0.25;0.5;0.75;0.25;0.25;1.25;0.5;0.0;-0.24707;0.032227;0.97168;-0.77;-1.05;0.77;313.0;-0.243525;-0.060199
2.23;9.25;2.25;8.5;1.5;0.75;0.0;0.25;0.0;1.5;0.0;0.0;0.0;0.0;2.5;0.25;0.0;-0.229004;0.01416;0.985352;-0.56;0.49;0.56;310.0;-0.222537;0.078059;4.75;6.75;5.0;5.25;1.0;0.5;0.0;0.25;0.25;0.25;0.75;0.25;0.25;1.25;0.5;0.25;-0.24707;0.027344;0.973145;-0.84;-0.91;0.77;307.0;-0.243028;-0.056461
2.24;9.25;2.25;8.75;1.5;0.75;0.0;0.25;0.0;1.75;0.0;0.0;0.0;0.0;2.5;0.25;0.0;-0.223145;0.015137;0.989746;-0.56;0.56;0.56;316.0;-0.217535;0.080386;5.0;7.25;4.5;5.25;1.0;0.5;0.0;0.25;0.25;0.25;0.75;0.25;0.25;1.25;0.5;0.0;-0.246094;0.029297;0.973145;-0.84;-0.91;0.84;307.0;-0.249819;-0.058393
2.25;9.25;2.25;9.0;1.5;0.75;0.0;0.25;0.0;1.75;0.0;0.0;0.0;0.0;2.25;0.0;0.0;-0.229004;0.015137;0.981445;-0.63;0.49;0.63;314.0;-0.228362;0.081234;5.25;6.75;5.0;5.25;1.0;0.75;0.0;0.25;0.25;0.5;1.0;0.5;0.0;1.0;0.0;0.0;-0.245117;0.026855;0.976562;-0.84;-0.98;0.77;312.0;-0.254994;-0.054178
2.26;9.0;2.25;8.75;1.75;0.75;0.0;0.25;0.0;1.75;0.0;0.25;0.0;0.0;2.25;0.25;0.0;-0.227539;0.016113;0.98584;-0.56;0.49;0.63;317.0;-0.217153;0.074759;5.0;6.75;5.0;5.25;0.75;0.75;0.0;0.25;0.25;0.5;0.75;0.5;0.0;1.25;0.0;0.0;-0.246094;0.027832;0.971191;-0.84;-0.91;0.77;306.0;-0.254324;-0.054482
2.27;8.75;2.5;8.5;1.75;0.75;0.0;0.25;0.0;1.5;0.0;0.0;0.0;0.0;2.5;0.0;0.0;-0.229004;0.012695;0.981445;-0.56;0.56;0.56;307.0;-0.227323;0.074017;5.0;6.75;5.0;5.25;0.75;0.75;0.0;0.25;0.25;0.5;0.75;0.25;0.25;1.0;0.25;0.0;-0.244141;0.030273;0.970703;-0.84;-0.98;0.7;306.0;-0.254287;-0.057366
2.28;9.0;2.25;8.75;1.75;0.75;0.0;0.25;0.0;1.5;0.0;0.0;0.0;0.0;2.25;0.0;0.0;-0.22998;0.006348;0.985352;-0.63;0.7;0.56;308.0;-0.232597;0.075673;5.25;7.0;5.0;5.25;1.0;0.75;0.0;0.25;0.25;0.25;0.75;0.25;0.0;1.25;0.0;0.0;-0.247559;0.022949;0.975586;-0.98;-0.98;0.7;308.0;-0.264651;-0.051607
2.29;9.25;2.25;8.75;1.75;0.75;0.0;0.25;0.0;1.5;0.0;0.0;0.0;0.0;2.25;0.25;0.0;-0.23291;0.010742;0.98291;-0.56;0.56;0.56;313.0;-0.228282;0.07453;5.5;7.0;4.75;5.25;1.0;0.75;0.0;0.25;0.25;0.25;0.75;0.25;0.0;1.25;0.0;0.0;-0.248047;0.023926;0.973633;-0.91;-0.98;0.84;308.0;-0.265916;-0.051528
2.3;9.0;2.25;8.75;1.75;0.75;0.0;0.25;0.0;1.5;0.0;0.0;0.0;0.0;2.5;0.0;0.0;-0.229492;0.013184;0.992676;-0.56;0.49;0.49;310.0;-0.227765;0.076438;5.5;7.0;5.25;5.5;0.75;0.75;0.0;0.25;0.25;0.25;0.75;0.25;0.25;1.25;0.25;0.0;-0.246094;0.027832;0.972656;-0.84;-0.98;0.84;320.0;-0.258182;-0.054824
2.31;9.0;2.25;8.0;1.75;0.75;0.0;0.25;0.0;1.5;0.0;0.0;0.0;0.0;2.5;0.0;0.0;-0.228516;0.010254;0.987305;-0.63;0.49;0.56;301.0;-0.226618;0.076049;5.25;7.25;5.0;5.25;0.75;1.0;0.0;0.25;0.25;0.25;0.75;0.25;0.0;1.25;0.0;0.0;-0.246582;0.030762;0.974121;-0.84;-1.05;0.84;311.0;-0.266152;-0.055742
2.32;9.25;2.25;8.5;1.75;0.75;0.0;0.25;0.0;1.5;0.0;0.0;0.0;0.0;2.25;0.0;0.0;-0.229492;0.012695;0.986328;-0.49;0.42;0.56;307.0;-0.233841;0.075845;5.25;7.0;5.0;5.25;0.75;0.75;0.0;0.25;0.25;0.25;0.75;0.25;0.0;1.25;0.0;0.0;-0.248535;0.028809;0.977051;-0.84;-0.91;0.7;305.0;-0.26602;-0.052717
2.33;9.25;2.5;8.75;1.75;0.75;0.0;0.25;0.0;1.5;0.0;0.0;0.0;0.0;2.5;0.0;0.0;-0.231445;0.010742;0.986816;-0.49;0.49;0.56;315.0;-0.23085;0.074791;5.5;7.0;4.75;5.25;0.75;0.75;0.0;0.25;0.25;0.25;0.75;0.25;0.0;1.0;0.25;0.0;-0.246094;0.030762;0.970703;-0.77;-1.05;0.84;306.0;-0.266133;-0.054663
2.34;9.25;2.5;8.75;1.75;0.5;0.0;0.25;0.0;1.25;0.0;0.0;0.0;0.0;2.5;0.0;0.0;-0.234375;0.01123;0.989258;-0.49;0.49;0.56;309.0;-0.237519;0.07261;5.25;7.25;5.0;5.25;0.75;0.5;0.0;0.25;0.25;0.5;0.75;0.25;0.0;1.0;0.25;0.0;-0.250488;0.027344;0.977051;-0.84;-1.05;0.77;308.0;-0.262528;-0.052453
2.35;9.25;2.5;8.75;1.75;0.75;0.0;0.25;0.0;1.5;0.0;0.0;0.0;0.0;2.5;0.25;0.0;-0.227539;0.013672;0.988281;-0.49;0.49;0.63;318.0;-0.225099;0.073378;5.25;7.5;5.0;5.25;0.75;0.75;0.0;0.25;0.25;0.25;0.75;0.25;0.0;0.75;0.0;0.0;-0.253418;0.025391;0.98291;-0.91;-1.12;0.84;306.0;-0.278802;-0.058083
2.36;9.0;2.25;8.5;1.75;0.75;0.0;0.25;0.0;1.5;0.0;0.0;0.0;0.0;2.5;0.25;0.0;-0.230469;0.012207;0.985352;-0.49;0.49;0.63;310.0;-0.221515;0.074845;5.5;8.0;5.5;5.25;0.75;1.0;0.0;0.25;0.25;0.25;0.75;0.25;0.0;0.75;0.0;0.25;-0.253906;0.030273;0.974609;-0.84;-0.91;0.77;324.0;-0.277699;-0.058672
2.37;9.25;2.25;8.75;1.75;0.5;0.0;0.25;0.0;1.5;0.0;0.0;0.0;0.0;2.25;0.25;0.0;-0.23877;0.017578;0.991699;-0.56;0.49;0.56;310.0;-0.229278;0.074657;5.75;7.5;5.0;5.25;0.75;0.75;0.0;0.25;0.25;0.25;0.75;0.0;0.25;0.75;0.0;0.25;-0.251465;0.03125;0.972168;-0.84;-0.91;0.7;312.0;-0.27915;-0.057121
2.38;9.0;2.25;8.75;1.75;0.75;0.0;0.25;0.0;1.5;0.0;0.0;0.0;0.0;2.25;0.25;0.0;-0.22998;0.010254;0.983398;-0.56;0.63;0.56;311.0;-0.226687;0.074217;5.625;7.5;5.0;5.25;0.875;0.75;0.0;0.25;0.25;0.25;0.75;0.125;0.25;0.75;0.0;0.25;-0.2504885;0.0307615;0.9707030000000001;-0.8049999999999999;-0.9450000000000001;0.7;314.0;-0.27563150000000003;-0.058391
2.39;9.0;2.5;8.75;1.75;0.75;0.0;0.25;0.0;1.5;0.0;0.0;0.0;0.0;2.25;0.25;0.0;-0.233398;0.012695;0.98584;-0.63;0.56;0.56;313.0;-0.228217;0.072282;5.5;7.5;5.0;5.25;1.0;0.75;0.0;0.25;0.25;0.25;0.75;0.25;0.25;0.75;0.0;0.25;-0.249512;0.030273;0.969238;-0.77;-0.98;0.7;316.0;-0.272113;-0.059661
2.4;9.0;2.25;8.5;1.75;0.75;0.0;0.25;0.0;1.25;0.0;0.0;0.0;0.0;2.25;0.25;0.0;-0.226562;0.007812;0.991211;-0.7;0.49;0.56;304.0;-0.231983;0.071712;5.5;7.5;5.25;5.25;0.75;0.5;0.0;0.25;0.25;0.0;0.75;0.0;0.25;1.0;0.0;0.0;-0.245605;0.030762;0.972168;-0.84;-0.91;0.77;308.0;-0.281761;-0.053222
2.41;9.0;2.25;8.5;1.75;0.5;0.0;0.25;0.0;1.25;0.25;0.0;0.0;0.0;2.25;0.0;0.0;-0.229492;0.015625;0.988281;-0.56;0.42;0.56;301.0;-0.234677;0.073206;5.5;7.5;5.0;5.25;0.75;0.5;0.0;0.25;0.25;0.25;0.75;0.0;0.25;1.0;0.25;0.25;-0.245117;0.029785;0.969238;-0.84;-0.98;0.77;312.0;-0.267773;-0.055051
2.42;9.0;2.5;8.75;2.0;0.75;0.0;0.25;0.0;1.5;0.0;0.0;0.0;0.0;2.25;0.0;0.0;-0.233887;0.010254;0.995605;-0.7;0.56;0.49;313.0;-0.234604;0.07085;5.5;7.5;5.0;5.25;0.75;0.75;0.0;0.25;0.25;0.25;0.75;0.25;0.25;1.0;0.5;0.5;-0.251953;0.026855;0.974121;-0.77;-0.98;0.77;322.0;-0.253537;-0.060646
2.43;9.0;2.75;8.75;1.75;0.75;0.0;0.25;0.0;1.25;0.0;0.0;0.0;0.0;2.25;0.25;0.0;-0.236816;0.009277;0.991699;-0.63;0.49;0.49;312.0;-0.235294;0.068041;5.25;7.25;5.0;5.25;0.75;0.75;0.0;0.25;0.25;0.0;0.75;0.25;0.0;1.0;0.25;0.0;-0.25293;0.029785;0.975586;-0.77;-0.91;0.84;306.0;-0.270807;-0.056762
2.44;9.25;2.75;8.75;1.75;0.75;0.0;0.25;0.0;1.5;0.0;0.0;0.0;0.0;2.25;0.25;0.0;-0.227539;0.013184;0.987305;-0.7;0.35;0.49;318.0;-0.231264;0.070721;5.5;7.5;5.0;5.25;0.75;0.5;0.0;0.0;0.25;0.0;0.75;0.25;0.25;0.75;0.25;0.0;-0.248047;0.031738;0.969727;-0.84;-0.98;0.77;304.0;-0.279761;-0.05435
2.45;9.5;2.5;8.75;2.0;0.75;0.0;0.25;0.0;1.5;0.0;0.0;0.0;0.0;2.25;0.25;0.0;-0.22998;0.015137;0.987305;-0.77;0.56;0.49;322.0;-0.231849;0.070158;5.5;7.5;5.0;5.25;0.75;0.75;0.0;0.0;0.25;0.25;0.5;0.25;0.25;1.0;0.5;0.0;-0.254395;0.030762;0.972656;-0.84;-0.98;0.77;312.0;-0.266979;-0.053321
2.46;9.25;2.75;8.75;1.75;0.75;0.0;0.25;0.0;1.25;0.0;0.0;0.0;0.0;2.5;0.25;0.0;-0.225586;0.010742;0.991699;-0.84;0.56;0.56;317.0;-0.23205;0.069209;5.5;8.0;4.75;5.25;0.5;0.75;0.0;0.0;0.25;0.25;0.75;0.25;0.0;1.0;0.25;0.0;-0.245605;0.029785;0.972656;-0.91;-0.91;0.77;309.0;-0.27584;-0.054885
2.47;9.25;2.5;9.0;1.75;0.75;0.0;0.25;0.0;1.5;0.0;0.0;0.0;0.0;2.5;0.25;0.0;-0.231934;0.01709;0.985352;-0.84;0.7;0.49;321.0;-0.225482;0.073528;5.75;7.75;4.75;5.25;0.75;0.75;0.0;0.25;0.25;0.25;0.75;0.25;0.0;1.0;0.25;0.25;-0.250977;0.026367;0.969238;-0.77;-0.84;0.77;318.0;-0.268015;-0.057067
2.48;9.5;2.5;8.75;1.75;0.75;0.0;0.25;0.0;1.25;0.0;0.0;0.0;0.0;2.5;0.0;0.0;-0.229004;0.013672;0.988281;-0.77;0.49;0.49;315.0;-0.23794;0.07283;5.5;7.5;5.0;5.25;0.75;0.75;0.0;0.25;0.25;0.25;0.75;0.25;0.25;1.0;0.25;0.25;-0.255859;0.030273;0.967285;-0.84;-0.98;0.77;318.0;-0.262365;-0.059273
2.49;9.5;2.5;8.25;1.75;0.75;0.0;0.25;0.0;1.25;0.0;0.0;0.0;0.0;2.5;0.25;0.0;-0.229492;0.01123;0.988281;-0.7;0.49;0.49;311.0;-0.231457;0.071083;5.5;7.5;5.0;5.25;0.75;0.75;0.0;0.25;0.25;0.25;0.75;0.25;0.0;1.0;0.0;0.0;-0.250488;0.029297;0.972656;-0.84;-0.91;0.77;311.0;-0.274775;-0.054805
2.5;9.25;2.5;8.25;1.75;0.75;0.0;0.25;0.0;1.5;0.0;0.0;0.0;0.0;2.75;0.25;0.0;-0.233398;0.01123;0.986328;-0.77;0.49;0.56;314.0;-0.219607;0.073841;5.5;7.5;5.0;5.25;0.75;0.5;0.0;0.25;0.25;0.25;0.75;0.25;0.0;0.75;0.0;0.25;-0.244141;0.026367;0.971191;-0.84;-0.98;0.77;307.0;-0.278092;-0.055697
2.51;9.25;2.5;8.5;1.75;0.75;0.0;0.25;0.0;1.5;0.0;0.0;0.0;0.0;2.5;0.25;0.0;-0.234375;0.012695;0.981934;-0.63;0.56;0.56;315.0;-0.224708;0.073225;5.5;7.5;4.75;5.25;0.75;0.75;0.0;0.25;0.25;0.25;0.75;0.25;0.0;0.75;0.0;0.0;-0.250977;0.026367;0.966309;-0.77;-0.98;0.7;306.0;-0.280088;-0.058008
2.52;9.25;2.75;8.75;1.75;0.75;0.0;0.25;0.0;1.25;0.0;0.0;0.0;0.0;2.5;0.25;0.0;-0.226562;0.01709;0.982422;-0.7;0.56;0.56;317.0;-0.23205;0.069209;5.5;7.75;5.0;5.25;0.75;0.75;0.0;0.25;0.25;0.25;0.75;0.25;0.0;0.75;0.0;0.0;-0.251465;0.027344;0.969727;-0.84;-0.91;0.7;311.0;-0.281051;-0.057441
2.53;9.25;2.5;8.75;1.75;0.75;0.0;0.25;0.0;1.25;0.0;0.0;0.0;0.0;2.25;0.25;0.0;-0.22998;0.005859;0.979492;-0.63;0.49;0.56;312.0;-0.235352;0.070301;5.5;7.5;5.0;5.25;0.75;0.75;0.0;0.25;0.25;0.25;0.75;0.25;0.0;0.75;0.0;0.0;-0.25;0.029785;0.972656;-0.7;-0.77;0.77;309.0;-0.279944;-0.056553
2.54;9.25;2.5;8.75;1.75;0.75;0.0;0.25;0.0;1.5;0.0;0.0;0.0;0.0;2.5;0.0;0.0;-0.234863;0.009277;0.981445;-0.63;0.42;0.56;315.0;-0.23085;0.074791;5.5;7.25;5.0;5.25;0.75;0.75;0.0;0.25;0.25;0.0;0.75;0.0;0.25;0.75;0.25;0.0;-0.248535;0.031738;0.976074;-0.84;-0.98;0.7;306.0;-0.278359;-0.057876
2.55;9.25;2.5;9.0;1.75;0.75;0.0;0.25;0.0;1.75;0.0;0.0;0.0;0.0;2.5;0.25;0.0;-0.227051;0.012207;0.987793;-0.56;0.49;0.7;325.0;-0.220177;0.075739;5.5;7.25;5.0;5.25;0.75;0.75;0.0;0.25;0.25;0.0;0.75;0.25;0.25;1.0;0.25;0.0;-0.248535;0.030762;0.96582;-0.77;-0.91;0.77;311.0;-0.268679;-0.058321
2.56;9.25;2.5;8.75;1.75;0.75;0.0;0.25;0.0;1.75;0.0;0.0;0.0;0.0;2.5;0.5;0.0;-0.227051;0.010254;0.988281;-0.56;0.49;0.56;325.0;-0.214208;0.074219;5.5;7.5;5.0;5.25;0.75;0.75;0.0;0.25;0.25;0.0;0.75;0.25;0.25;0.75;0.5;0.0;-0.250488;0.030273;0.971191;-0.7;-0.91;0.7;314.0;-0.26873;-0.06115
2.57;9.25;2.5;8.75;2.0;0.75;0.0;0.25;0.0;1.25;0.25;0.0;0.0;0.0;2.5;0.25;0.0;-0.23291;0.013184;0.986328;-0.49;0.49;0.56;320.0;-0.226928;0.068262;5.5;7.5;4.75;5.25;0.75;0.75;0.0;0.25;0.25;0.25;0.75;0.25;0.25;1.0;0.25;0.25;-0.252441;0.02832;0.967285;-0.91;-0.98;0.77;315.0;-0.262335;-0.060713
2.58;9.5;2.5;8.75;1.75;0.75;0.0;0.25;0.0;1.25;0.0;0.0;0.0;0.0;2.5;0.0;0.0;-0.227539;0.010742;0.987793;-0.63;0.42;0.49;315.0;-0.23794;0.07283;5.5;7.5;4.75;5.25;0.75;0.75;0.0;0.25;0.25;0.25;0.75;0.25;0.0;1.0;0.0;0.0;-0.249512;0.036133;0.971191;-0.7;-0.91;0.77;308.0;-0.274868;-0.056232
2.59;9.25;2.5;8.75;1.75;0.75;0.0;0.25;0.0;1.25;0.0;0.0;0.0;0.0;2.25;0.5;0.0;-0.235352;0.016602;0.984863;-0.56;0.35;0.63;315.0;-0.229505;0.068915;5.25;7.5;5.0;5.25;0.75;0.75;0.0;0.25;0.25;0.25;0.75;0.25;0.0;1.0;0.0;0.0;-0.245605;0.03125;0.971191;-0.77;-0.91;0.77;308.0;-0.273595;-0.056307
2.6;9.0;2.5;8.75;1.75;0.75;0.0;0.25;0.0;1.5;0.0;0.0;0.0;0.0;2.25;0.25;0.0;-0.23877;0.015137;0.984375;-0.56;0.56;0.49;313.0;-0.228217;0.072282;5.5;7.5;5.0;5.25;0.75;0.75;0.0;0.25;0.25;0.5;0.75;0.25;0.0;1.0;0.0;0.0;-0.248047;0.027832;0.97168;-0.7;-0.98;0.7;314.0;-0.27011;-0.05373
2.61;9.25;2.75;8.75;1.75;0.75;0.0;0.25;0.0;1.5;0.0;0.0;0.0;0.0;2.25;0.0;0.0;-0.231934;0.012695;0.992676;-0.7;0.56;0.56;316.0;-0.237068;0.072109;5.5;7.25;5.0;5.25;0.75;0.75;0.0;0.25;0.25;0.25;0.75;0.25;0.0;1.0;0.25;0.0;-0.249512;0.031738;0.975098;-0.7;-0.91;0.77;311.0;-0.267345;-0.054156
2.62;9.5;2.5;8.75;1.75;0.75;0.0;0.25;0.0;1.5;0.0;0.0;0.0;0.0;2.25;0.25;0.0;-0.228516;0.013184;0.993164;-0.77;0.56;0.56;319.0;-0.231325;0.072933;5.5;7.25;5.0;5.25;0.75;0.75;0.0;0.25;0.25;0.25;0.5;0.25;0.0;1.25;0.0;0.0;-0.24707;0.025391;0.969727;-0.77;-0.98;0.84;308.0;-0.273083;-0.051574
2.63;9.5;2.5;8.75;2.0;0.75;0.0;0.25;0.0;1.5;0.0;0.0;0.0;0.0;2.25;0.25;0.0;-0.229492;0.013184;0.984863;-0.63;0.49;0.56;322.0;-0.231849;0.070158;5.5;7.5;5.0;5.25;0.75;0.75;0.0;0.25;0.25;0.25;0.75;0.25;0.25;1.0;0.0;0.0;-0.250488;0.029297;0.979004;-0.7;-0.84;0.7;313.0;-0.271438;-0.057862
2.64;9.5;2.5;8.75;2.0;0.75;0.0;0.25;0.0;1.5;0.25;0.0;0.0;0.0;2.25;0.25;0.0;-0.227539;0.012207;0.984863;-0.56;0.49;0.49;325.0;-0.227713;0.070103;5.5;6.75;5.0;5.25;0.75;0.75;0.0;0.25;0.25;0.25;0.5;0.25;0.0;0.75;0.0;0.25;-0.258301;0.033203;0.97168;-0.7;-0.98;0.77;300.0;-0.278156;-0.054492
2.65;9.5;2.5;8.75;1.75;0.75;0.0;0.25;0.0;1.5;0.25;0.0;0.0;0.0;2.25;0.25;0.0;-0.231445;0.016602;0.98877;-0.77;0.63;0.49;322.0;-0.227155;0.072854;5.25;7.0;4.75;5.25;0.75;0.75;0.0;0.25;0.25;0.25;0.5;0.25;0.0;1.0;0.0;0.0;-0.250488;0.026855;0.969727;-0.63;-0.84;0.63;297.0;-0.276058;-0.055365
2.66;9.25;2.5;8.75;1.75;0.75;0.0;0.25;0.0;1.5;0.25;0.0;0.0;0.0;2.5;0.25;0.0;-0.230469;0.01123;0.98877;-0.63;0.49;0.49;321.0;-0.220977;0.073294;5.25;7.25;4.75;5.25;0.75;0.75;0.0;0.25;0.25;0.25;0.5;0.25;0.0;1.0;0.25;0.0;-0.246582;0.024902;0.970703;-0.63;-0.77;0.7;303.0;-0.270754;-0.056542
2.67;9.5;2.5;8.75;2.0;0.75;0.0;0.25;0.0;1.5;0.0;0.0;0.0;0.0;2.5;0.0;0.0;-0.22998;0.010742;0.986328;-0.56;0.49;0.56;321.0;-0.232899;0.072295;5.5;7.0;5.0;5.25;0.75;0.75;0.0;0.25;0.25;0.25;0.5;0.25;0.0;1.0;0.25;0.0;-0.248047;0.02832;0.973633;-0.77;-0.91;0.84;306.0;-0.270725;-0.052656
2.68;9.25;2.75;8.75;2.0;0.75;0.0;0.25;0.0;1.5;0.0;0.0;0.0;0.0;2.5;0.25;0.0;-0.230957;0.01123;0.985352;-0.7;0.56;0.56;324.0;-0.227168;0.068751;5.25;7.25;4.75;5.25;0.75;0.75;0.0;0.25;0.25;0.25;0.5;0.25;0.0;1.0;0.25;0.0;-0.249512;0.027832;0.977539;-0.77;-0.91;0.7;303.0;-0.270754;-0.056542
2.69;9.25;2.25;8.75;1.75;0.75;0.0;0.25;0.0;1.75;0.0;0.0;0.0;0.0;2.5;0.25;0.0;-0.22998;0.007812;0.980469;-0.63;0.63;0.56;319.0;-0.218193;0.077519;5.0;7.25;4.75;5.25;0.75;0.75;0.0;0.25;0.25;0.25;0.5;0.25;0.0;1.0;0.25;0.0;-0.245605;0.029297;0.972656;-0.63;-0.84;0.84;300.0;-0.269503;-0.058103
2.7;9.5;2.25;8.75;2.0;0.75;0.0;0.25;0.0;1.5;0.0;0.0;0.0;0.0;2.5;0.0;0.0;-0.230957;0.008789;0.991699;-0.63;0.49;0.56;319.0;-0.231445;0.07418;5.5;7.0;5.0;5.25;0.75;0.75;0.0;0.25;0.25;0.0;0.5;0.25;0.0;1.0;0.5;0.0;-0.25;0.027832;0.974609;-0.7;-0.91;0.77;306.0;-0.269119;-0.054015
2.71;9.25;2.25;8.75;1.75;0.75;0.0;0.25;0.0;1.5;0.0;0.0;0.0;0.0;2.25;0.0;0.0;-0.229004;0.012207;0.980469;-0.63;0.49;0.56;310.0;-0.234152;0.075976;5.25;7.0;5.0;5.25;0.75;0.5;0.0;0.25;0.25;0.0;0.5;0.25;0.0;1.0;0.25;0.0;-0.249512;0.029297;0.972656;-0.77;-0.98;0.77;297.0;-0.275535;-0.053104
2.72;9.0;2.5;8.75;1.75;0.75;0.0;0.25;0.0;1.25;0.0;0.0;0.0;0.0;2.25;0.25;0.0;-0.231445;0.009277;0.98877;-0.7;0.77;0.56;309.0;-0.233817;0.069947;5.25;7.0;5.0;5.25;0.75;0.5;0.0;0.25;0.25;0.0;0.75;0.25;0.25;1.0;0.25;0.0;-0.24707;0.030273;0.969727;-0.7;-0.91;0.7;303.0;-0.267332;-0.056877
2.73;9.25;2.5;8.75;2.0;0.75;0.0;0.25;0.0;1.5;0.0;0.0;0.0;0.0;2.5;0.0;0.0;-0.225098;0.01709;0.98584;-0.56;0.49;0.7;318.0;-0.231384;0.071969;5.25;7.0;5.0;5.25;0.75;0.5;0.0;0.25;0.25;0.25;0.75;0.25;0.25;1.0;0.25;0.0;-0.248535;0.02832;0.969238;-0.63;-0.91;0.7;305.0;-0.262607;-0.055753
2.74;9.25;2.5;8.75;1.75;0.75;0.0;0.25;0.0;1.5;0.0;0.0;0.0;0.0;2.5;0.25;0.0;-0.230957;0.015137;0.989746;-0.63;0.49;0.56;318.0;-0.225099;0.073378;5.5;7.0;4.75;5.25;0.75;0.75;0.0;0.25;0.25;0.25;0.5;0.25;0.0;1.0;0.25;0.25;-0.244141;0.029785;0.975586;-0.77;-1.05;0.84;304.0;-0.267706;-0.055348
2.75;9.25;2.75;8.75;1.75;0.75;0.0;0.25;0.0;1.5;0.0;0.0;0.0;0.0;2.5;0.0;0.0;-0.232422;0.012695;0.986816;-0.63;0.49;0.56;318.0;-0.232323;0.072881;5.25;7.0;5.0;5.25;0.75;0.75;0.0;0.25;0.25;0.25;0.75;0.25;0.0;1.0;0.5;0.25;-0.25;0.027344;0.971191;-0.84;-0.98;0.77;310.0;-0.255662;-0.056229
2.76;9.25;2.75;8.75;2.0;0.75;0.0;0.25;0.0;1.5;0.0;0.0;0.0;0.0;2.5;0.25;0.0;-0.22998;0.017578;0.985352;-0.63;0.49;0.56;324.0;-0.227168;0.068751;5.25;7.0;5.0;5.25;0.75;0.75;0.0;0.25;0.25;0.25;0.5;0.25;0.0;1.0;0.5;0.0;-0.250977;0.02832;0.973145;-0.84;-0.91;0.84;306.0;-0.263145;-0.054426
2.77;10.0;2.5;8.75;1.75;0.75;0.0;0.25;0.0;1.5;0.0;0.0;0.0;0.0;2.0;0.25;0.0;-0.23584;0.013184;0.984863;-0.56;0.49;0.56;322.0;-0.238988;0.07281;5.25;7.0;5.0;5.25;0.75;0.75;0.0;0.25;0.25;0.25;0.75;0.25;0.0;1.0;0.25;0.0;-0.250488;0.028809;0.973145;-0.7;-0.98;0.7;306.0;-0.264857;-0.05474
2.78;9.25;2.25;9.0;1.75;0.75;0.0;0.25;0.0;1.25;0.0;0.0;0.0;0.0;2.5;0.25;0.0;-0.21875;0.014648;0.98291;-0.49;0.49;0.63;315.0;-0.229421;0.073166;5.25;6.75;5.0;5.25;0.75;0.75;0.0;0.25;0.25;0.25;0.75;0.25;0.0;1.0;0.0;0.25;-0.25;0.030273;0.969727;-0.63;-0.91;0.77;302.0;-0.266905;-0.05482
2.79;9.5;2.25;8.75;2.0;0.75;0.0;0.25;0.0;1.25;0.0;0.0;0.0;0.0;2.5;0.25;0.0;-0.226074;0.013672;0.991211;-0.63;0.56;0.49;318.0;-0.231171;0.07052;5.5;6.75;5.0;5.25;0.75;0.75;0.0;0.25;0.25;0.25;0.75;0.25;0.25;1.0;0.0;0.25;-0.246094;0.019531;0.972168;-0.7;-0.91;0.7;307.0;-0.264818;-0.05643
2.8;9.75;2.5;8.75;2.0;0.75;0.0;0.25;0.0;1.5;0.0;0.0;0.0;0.0;2.5;0.25;0.0;-0.23291;0.013672;0.982422;-0.63;0.49;0.56;327.0;-0.228757;0.071258;5.5;7.0;4.75;5.25;0.75;0.75;0.0;0.25;0.25;0.25;0.75;0.25;0.0;0.75;0.25;0.25;-0.25;0.029297;0.978027;-0.77;-1.05;0.7;305.0;-0.268255;-0.057689
2.81;9.75;2.75;9.0;1.75;0.75;0.0;0.25;0.0;1.75;0.25;0.0;0.0;0.0;2.5;0.25;0.0;-0.234863;0.011719;0.992676;-0.63;0.42;0.56;336.0;-0.220838;0.074384;5.25;7.0;5.0;5.25;0.75;0.75;0.0;0.25;0.25;0.25;0.5;0.25;0.0;1.25;0.5;0.0;-0.249512;0.021973;0.978516;-0.84;-0.98;0.84;308.0;-0.258058;-0.052678
2.82;9.5;2.75;8.75;1.5;0.75;0.0;0.25;0.0;1.5;0.0;0.0;0.0;0.0;2.25;0.0;0.0;-0.228027;0.012695;0.992676;-0.63;0.42;0.49;315.0;-0.238079;0.075263;5.25;6.75;5.0;5.25;0.75;1.0;0.0;0.25;0.25;0.25;0.5;0.25;0.0;1.25;0.5;0.0;-0.249023;0.033691;0.975098;-0.77;-0.91;0.77;309.0;-0.255744;-0.053874
2.83;9.5;2.75;8.75;1.75;0.75;0.0;0.25;0.0;1.5;0.0;0.0;0.0;0.0;1.5;0.25;0.0;-0.230469;0.012695;0.985352;-0.63;0.35;0.56;314.0;-0.24708;0.068692;5.25;7.0;4.75;5.25;0.75;0.75;0.0;0.25;0.25;0.25;0.5;0.5;0.25;1.25;0.25;0.0;-0.254395;0.025391;0.973145;-0.7;-0.84;0.7;308.0;-0.256539;-0.059217
2.84;9.25;2.5;8.75;1.75;0.75;0.0;0.25;0.0;1.75;0.25;0.0;0.0;0.0;2.25;0.25;0.0;-0.233398;0.014648;0.98877;-0.56;0.42;0.49;322.0;-0.220243;0.074772;5.25;7.25;5.0;5.0;0.75;0.75;0.0;0.25;0.25;0.25;0.75;0.25;0.0;1.0;0.5;0.0;-0.251953;0.02832;0.973145;-0.77;-0.91;0.7;308.0;-0.259627;-0.054252
2.85;9.75;2.0;9.0;1.75;0.75;0.0;0.25;0.0;1.5;0.0;0.0;0.0;0.0;2.5;0.25;0.0;-0.229492;0.01123;0.987305;-0.56;0.42;0.56;322.0;-0.225614;0.077904;5.25;7.25;5.0;5.0;0.75;0.75;0.0;0.25;0.25;0.25;0.75;0.25;0.0;1.0;0.5;0.0;-0.248535;0.027832;0.976074;-0.77;-0.84;0.77;308.0;-0.259627;-0.054252
2.86;9.5;2.75;9.0;2.0;0.75;0.0;0.25;0.0;1.5;0.0;0.0;0.0;0.0;3.0;0.25;0.0;-0.228516;0.014648;0.978516;-0.56;0.63;0.56;334.0;-0.220123;0.070793;5.5;6.75;5.0;5.25;0.75;0.75;0.0;0.25;0.25;0.25;0.75;0.0;0.0;0.75;0.5;0.0;-0.250488;0.030762;0.972656;-0.77;-0.84;0.77;304.0;-0.268214;-0.052044
2.87;9.5;3.0;9.0;2.0;0.75;0.0;0.25;0.0;1.5;0.0;0.0;0.0;0.0;2.5;0.25;0.0;-0.233398;0.009766;0.983398;-0.7;0.49;0.63;332.0;-0.230459;0.0675;5.5;7.0;4.75;5.25;0.75;0.5;0.0;0.25;0.25;0.25;0.75;0.25;0.0;0.75;0.5;0.0;-0.249023;0.02832;0.97168;-0.77;-0.91;0.7;303.0;-0.266077;-0.054561
2.88;9.5;2.75;8.75;2.0;0.75;0.0;0.25;0.0;1.5;0.0;0.0;0.0;0.0;2.25;0.25;0.0;-0.230957;0.012695;0.98584;-0.63;0.56;0.49;324.0;-0.233286;0.068321;5.5;7.0;4.75;5.25;0.75;0.5;0.0;0.25;0.25;0.25;0.75;0.0;0.25;1.0;0.5;0.0;-0.245605;0.024414;0.972656;-0.91;-0.91;0.7;305.0;-0.262042;-0.053659
2.89;9.75;3.0;8.75;1.75;0.75;0.0;0.25;0.0;1.5;0.0;0.0;0.0;0.0;2.25;0.0;0.0;-0.228516;0.013672;0.981445;-0.56;0.56;0.56;324.0;-0.241372;0.070899;5.25;7.25;4.75;5.25;0.75;0.75;0.0;0.25;0.25;0.25;0.5;0.0;0.0;1.0;0.5;0.0;-0.257812;0.024902;0.972656;-0.84;-0.91;0.63;303.0;-0.268899;-0.054507
2.9;9.5;2.75;9.0;2.0;0.75;0.0;0.25;0.0;1.5;0.25;0.0;0.0;0.0;2.25;0.25;0.0;-0.233887;0.011719;0.987793;-0.63;0.63;0.56;330.0;-0.229505;0.068477;5.5;7.0;4.5;5.25;0.75;0.75;0.0;0.25;0.25;0.25;0.5;0.0;0.0;1.0;0.25;0.0;-0.246582;0.029785;0.970703;-0.7;-0.98;0.77;297.0;-0.27549;-0.053213
2.91;9.5;2.5;8.75;2.0;0.75;0.0;0.25;0.0;1.75;0.25;0.0;0.0;0.0;2.25;0.25;0.0;-0.230957;0.012207;0.986328;-0.63;0.77;0.49;328.0;-0.222437;0.072329;5.5;6.75;4.5;5.25;0.75;0.75;0.0;0.25;0.25;0.25;0.5;0.0;0.25;1.25;0.25;0.0;-0.248535;0.024902;0.972168;-0.77;-0.98;0.7;299.0;-0.26546;-0.053685
2.92;9.5;2.5;8.75;2.0;0.75;0.0;0.25;0.0;1.75;0.0;0.0;0.0;0.0;1.75;0.25;0.0;-0.225586;0.013672;0.981445;-0.49;0.63;0.56;321.0;-0.235734;0.070876;5.5;7.25;4.75;5.25;0.75;0.75;0.0;0.25;0.25;0.0;0.5;0.0;0.0;1.0;0.5;0.0;-0.25;0.030762;0.978027;-0.84;-0.84;0.77;303.0;-0.27494;-0.054092
2.93;9.5;2.75;8.75;2.0;0.75;0.0;0.25;0.0;1.25;0.0;0.0;0.0;0.0;2.25;0.25;0.0;-0.229004;0.01416;0.98584;-0.63;0.7;0.49;321.0;-0.238747;0.066024;5.25;7.25;5.0;5.25;0.75;0.75;0.0;0.25;0.25;0.0;0.5;0.0;0.0;1.0;0.5;0.0;-0.249023;0.029297;0.972656;-0.7;-0.91;0.77;303.0;-0.273645;-0.05417
2.94;9.5;2.75;8.75;2.0;0.75;0.0;0.25;0.0;1.5;0.0;0.0;0.0;0.0;2.5;0.25;0.0;-0.227539;0.009766;0.989746;-0.56;0.35;0.56;327.0;-0.228695;0.0691;5.5;7.0;5.0;5.25;0.75;0.75;0.0;0.25;0.25;0.25;0.5;0.0;0.0;0.75;0.5;0.0;-0.251953;0.029297;0.973633;-0.98;-0.91;0.77;304.0;-0.274101;-0.052389
2.95;9.5;2.75;8.75;2.0;0.75;0.0;0.25;0.0;1.5;0.0;0.0;0.0;0.0;2.25;0.25;0.0;-0.229492;0.012695;0.989746;-0.56;0.49;0.49;324.0;-0.233286;0.068321;5.25;7.25;5.0;5.25;0.75;0.75;0.0;0.25;0.25;0.25;0.5;0.0;0.0;0.75;0.5;0.0;-0.25293;0.026855;0.977051;-0.84;-0.98;0.77;303.0;-0.27408;-0.054838
2.96;9.25;2.75;8.75;1.75;0.75;0.0;0.25;0.0;1.25;0.0;0.0;0.0;0.0;2.25;0.25;0.0;-0.230469;0.014648;0.985352;-0.56;0.42;0.63;315.0;-0.236804;0.068408;5.25;7.0;5.0;5.25;0.75;0.75;0.0;0.25;0.25;0.25;0.5;0.0;0.0;0.75;0.5;0.0;-0.25;0.023438;0.970703;-0.84;-1.05;0.7;301.0;-0.272885;-0.053906
2.97;9.25;2.75;8.75;2.0;0.75;0.0;0.25;0.0;1.75;0.0;0.0;0.0;0.0;2.5;0.25;0.0;-0.233398;0.012695;0.98877;-0.56;0.63;0.56;327.0;-0.221885;0.070997;5.25;7.0;4.75;5.25;0.75;0.75;0.0;0.25;0.25;0.25;0.75;0.0;0.0;1.0;0.5;0.0;-0.250977;0.029297;0.974609;-0.91;-0.98;0.77;303.0;-0.262998;-0.054158
2.98;9.5;2.75;8.75;2.0;0.75;0.0;0.25;0.0;1.75;0.0;0.0;0.0;0.0;2.25;0.25;0.0;-0.230957;0.01709;0.991211;-0.49;0.49;0.49;328.0;-0.227943;0.070569;5.5;7.0;4.75;5.0;0.75;0.75;0.0;0.0;0.25;0.25;0.75;0.0;0.0;1.0;0.25;0.0;-0.249512;0.025879;0.973145;-0.84;-0.91;0.7;296.0;-0.27412;-0.045843
2.99;9.25;2.75;8.75;1.75;0.75;0.0;0.25;0.0;1.5;0.0;0.0;0.0;0.0;2.25;0.25;0.0;-0.230469;0.015137;0.98291;-0.56;0.56;0.56;318.0;-0.231264;0.070721;5.5;7.25;5.0;5.25;0.75;0.75;0.0;0.0;0.25;0.25;0.5;0.0;0.0;1.0;0.0;0.25;-0.251953;0.029297;0.973633;-0.84;-0.98;0.7;300.0;-0.283509;-0.047575
3.0;9.25;2.75;8.75;1.75;0.75;0.0;0.25;0.0;1.5;0.0;0.0;0.0;0.0;2.25;0.25;0.0;-0.224609;0.01416;0.980957;-0.63;0.63;0.42;318.0;-0.231264;0.070721;5.5;7.0;5.0;5.25;0.75;0.75;0.0;0.0;0.25;0.25;0.5;0.0;0.0;1.0;0.25;0.25;-0.24707;0.027832;0.96875;-0.84;-0.91;0.77;300.0;-0.275797;-0.046911
3.01;9.75;2.75;9.0;1.75;0.75;0.0;0.25;0.0;1.25;0.0;0.0;0.0;0.0;2.75;0.25;0.0;-0.225586;0.015137;0.984863;-0.56;0.42;0.56;328.0;-0.230754;0.070848;5.25;7.25;5.0;5.25;0.75;0.75;0.0;0.0;0.25;0.5;0.75;0.0;0.25;1.0;0.25;0.0;-0.247559;0.027344;0.975586;-0.77;-0.91;0.77;307.0;-0.265971;-0.050841
3.02;9.5;2.75;8.75;2.0;0.75;0.0;0.25;0.0;1.25;0.0;0.0;0.0;0.0;2.5;0.0;0.0;-0.227051;0.011719;0.982422;-0.63;0.56;0.63;320.0;-0.239812;0.068161;5.5;7.0;5.0;5.25;0.75;0.75;0.0;0.25;0.25;0.5;0.75;0.0;0.25;1.0;0.5;0.0;-0.246582;0.026367;0.974121;-0.91;-0.84;0.84;314.0;-0.256487;-0.053283
3.03;9.75;2.25;8.75;2.0;0.75;0.0;0.25;0.0;1.75;0.0;0.0;0.0;0.0;2.25;0.0;0.0;-0.230957;0.01416;0.98291;-0.49;0.28;0.63;323.0;-0.232178;0.075958;5.75;7.25;4.75;5.25;0.75;0.75;0.0;0.25;0.25;0.5;0.75;0.0;0.0;0.75;0.5;0.0;-0.249023;0.027344;0.97168;-0.77;-0.91;0.77;312.0;-0.26723;-0.052754
3.04;9.5;2.5;8.75;2.0;0.75;0.0;0.25;0.0;2.0;0.0;0.0;0.0;0.0;2.5;0.25;0.0;-0.230469;0.01123;0.981934;-0.49;0.42;0.63;331.0;-0.216788;0.075321;5.25;7.25;5.0;5.25;0.75;0.75;0.0;0.0;0.25;0.5;0.75;0.0;0.0;1.0;0.5;0.0;-0.249023;0.026855;0.967285;-0.84;-0.84;0.77;307.0;-0.263022;-0.047984
3.05;9.5;2.75;9.0;1.75;0.75;0.0;0.25;0.0;1.5;0.0;0.0;0.0;0.0;2.25;0.25;0.0;-0.225586;0.010254;0.98291;-0.42;0.42;0.56;324.0;-0.233087;0.071229;5.5;7.25;5.0;5.25;0.75;0.75;0.0;0.25;0.25;0.25;0.5;0.0;0.0;1.0;0.5;0.0;-0.248047;0.032227;0.968262;-0.77;-0.91;0.84;308.0;-0.270098;-0.051587
3.06;9.5;2.25;9.0;1.75;0.75;0.0;0.25;0.0;1.25;0.0;0.0;0.0;0.0;2.25;0.25;0.0;-0.228516;0.013184;0.990234;-0.49;0.49;0.63;316.0;-0.235701;0.072718;5.5;7.5;5.0;5.25;0.75;0.75;0.0;0.0;0.25;0.0;0.5;0.0;0.0;1.0;0.5;0.0;-0.25;0.030762;0.970703;-0.77;-0.91;0.7;304.0;-0.279617;-0.048957
3.07;9.5;2.5;8.75;1.75;0.75;0.0;0.25;0.0;1.5;0.0;0.0;0.0;0.0;2.25;0.25;0.0;-0.225586;0.01416;0.994629;-0.49;0.42;0.56;319.0;-0.231325;0.072933;5.5;7.5;5.25;5.25;0.75;0.75;0.0;0.0;0.25;0.25;0.75;0.25;0.25;1.0;0.25;0.0;-0.248535;0.025879;0.974609;-0.77;-0.91;0.7;315.0;-0.268627;-0.052247
3.08;9.5;2.75;8.75;2.0;0.75;0.0;0.25;0.0;1.25;0.0;0.0;0.0;0.0;2.0;0.0;0.0;-0.231445;0.008301;0.990723;-0.56;0.49;0.56;315.0;-0.249413;0.066547;5.5;7.0;4.75;5.25;0.75;1.0;0.0;0.0;0.25;0.25;0.75;0.25;0.25;1.0;0.0;0.0;-0.248047;0.024414;0.965332;-0.77;-0.98;0.77;304.0;-0.271472;-0.055074
3.09;9.75;2.75;8.75;2.0;0.75;0.0;0.25;0.0;1.5;0.25;0.0;0.0;0.0;2.0;0.0;0.0;-0.23291;0.012207;0.98584;-0.56;0.42;0.56;325.0;-0.240895;0.069182;5.25;7.0;4.75;5.0;0.75;0.75;0.0;0.0;0.25;0.25;0.75;0.0;0.0;1.0;0.25;0.0;-0.248047;0.029785;0.966797;-0.77;-0.98;0.7;293.0;-0.272872;-0.047337
3.1;9.75;2.75;9.0;2.0;0.75;0.0;0.25;0.0;1.25;0.25;0.0;0.0;0.0;2.25;0.0;0.0;-0.228027;0.014648;0.987305;-0.7;0.56;0.56;327.0;-0.241926;0.067895;5.5;7.25;4.75;5.0;0.75;0.5;0.0;0.0;0.25;0.25;0.75;0.25;0.0;1.0;0.0;0.0;-0.248047;0.028809;0.974121;-0.7;-1.05;0.77;295.0;-0.278465;-0.046668
3.11;9.5;2.75;9.0;1.75;0.75;0.0;0.25;0.0;1.25;0.0;0.0;0.0;0.0;2.25;0.0;0.0;-0.234375;0.016113;0.987793;-0.49;0.49;0.56;318.0;-0.244372;0.070326;5.5;7.0;4.5;5.0;0.75;0.5;0.0;0.0;0.25;0.25;0.5;0.0;0.0;1.0;0.0;0.0;-0.249512;0.029297;0.973145;-0.77;-0.98;0.7;284.0;-0.287407;-0.043843
3.12;10.0;2.5;9.0;2.0;0.75;0.0;0.25;0.0;1.5;0.0;0.0;0.0;0.0;2.25;0.25;0.0;-0.231445;0.010742;0.989746;-0.63;0.42;0.56;330.0;-0.235096;0.070998;4.75;7.0;5.0;5.25;0.75;0.75;0.0;0.0;0.25;0.25;0.5;0.0;0.25;1.0;0.0;0.0;-0.246582;0.027344;0.967773;-0.7;-0.98;0.77;290.0;-0.278456;-0.053128
3.13;10.0;2.75;9.0;2.0;0.75;0.0;0.25;0.0;1.5;0.0;0.0;0.0;0.0;2.25;0.25;0.0;-0.22998;0.007812;0.987793;-0.63;0.35;0.63;333.0;-0.23647;0.069203;5.5;7.0;4.75;5.25;0.75;0.75;0.0;0.0;0.25;0.25;0.5;0.0;0.25;1.0;0.25;0.0;-0.249023;0.026855;0.975586;-0.7;-0.91;0.77;298.0;-0.275549;-0.050254
3.14;9.75;2.75;8.75;2.0;0.75;0.0;0.25;0.0;1.25;0.25;0.0;0.0;0.0;2.25;0.0;0.0;-0.22998;0.009277;0.981934;-0.63;0.42;0.49;323.0;-0.241704;0.067694;5.5;7.0;4.75;5.25;0.75;0.75;0.0;0.0;0.25;0.5;0.5;0.25;0.25;1.25;0.0;0.0;-0.249023;0.02832;0.976074;-0.77;-0.98;0.77;303.0;-0.267301;-0.04947
3.15;10.0;2.5;8.75;2.0;0.75;0.0;0.25;0.0;1.75;0.25;0.0;0.0;0.0;2.25;0.0;0.0;-0.230469;0.013672;0.989258;-0.49;0.56;0.56;331.0;-0.230987;0.074293;5.5;7.25;4.75;5.25;0.75;0.75;0.0;0.0;0.25;0.5;0.5;0.0;0.25;1.25;0.0;0.0;-0.25;0.025391;0.975098;-0.77;-0.91;0.77;303.0;-0.273074;-0.048099
3.16;9.25;2.5;8.75;2.0;0.75;0.0;0.25;0.0;1.5;0.25;0.0;0.0;0.0;2.0;0.25;0.0;-0.227539;0.010254;0.986816;-0.63;0.42;0.56;319.0;-0.230811;0.068977;5.5;7.0;4.75;5.25;0.75;0.75;0.0;0.25;0.25;0.25;0.5;0.0;0.0;1.0;0.0;0.0;-0.25;0.027832;0.974121;-0.77;-0.84;0.77;297.0;-0.281976;-0.051471
3.17;9.5;2.5;8.75;2.0;0.75;0.0;0.25;0.0;1.5;0.25;0.0;0.0;0.0;2.25;0.25;0.0;-0.22998;0.015137;0.984863;-0.63;0.49;0.56;325.0;-0.227713;0.070103;5.25;6.75;5.0;5.25;0.75;0.75;0.0;0.0;0.25;0.0;0.5;0.0;0.0;1.0;0.0;0.25;-0.250977;0.025879;0.969727;-0.77;-0.84;0.7;289.0;-0.285164;-0.048135
3.18;9.75;2.75;8.75;2.0;0.75;0.0;0.25;0.0;1.5;0.0;0.0;0.0;0.0;2.0;0.0;0.0;-0.228027;0.010742;0.990723;-0.7;0.63;0.56;322.0;-0.245146;0.069229;5.25;7.0;4.75;5.25;0.75;0.75;0.0;0.0;0.25;0.25;0.75;0.25;0.0;1.0;0.25;0.25;-0.247559;0.030273;0.977051;-0.7;-0.91;0.7;300.0;-0.265267;-0.052806
3.19;9.5;2.75;8.75;2.0;0.75;0.0;0.0;0.0;1.5;0.25;0.0;0.0;0.0;1.75;0.0;0.0;-0.232422;0.014648;0.989746;-0.77;0.56;0.49;315.0;-0.248441;0.065762;5.25;6.75;4.5;5.25;0.75;0.75;0.0;0.0;0.25;0.25;0.75;0.25;0.0;1.0;0.25;0.25;-0.248047;0.029785;0.96875;-0.77;-0.84;0.7;295.0;-0.26397;-0.053308
3.2;9.5;2.75;9.0;2.0;0.75;0.0;0.25;0.0;1.25;0.0;0.0;0.0;0.0;2.25;0.25;0.0;-0.226074;0.009277;0.984863;-0.63;0.49;0.49;324.0;-0.238999;0.066243;5.5;7.25;4.75;5.25;0.75;1.0;0.0;0.25;0.25;0.25;0.5;0.25;0.0;1.0;0.25;0.25;-0.247559;0.035645;0.972168;-0.63;-0.91;0.84;310.0;-0.267809;-0.058337
3.21;9.0;2.75;9.0;2.0;0.75;0.0;0.25;0.0;1.75;0.0;0.0;0.0;0.0;2.5;0.5;0.0;-0.229004;0.016113;0.98584;-0.7;0.7;0.49;330.0;-0.215272;0.069512;5.0;7.0;4.75;5.0;0.75;1.0;0.0;0.25;0.25;0.25;0.5;0.25;0.0;1.0;0.25;0.25;-0.249023;0.025879;0.973633;-0.77;-0.91;0.63;299.0;-0.263788;-0.058922
3.22;9.5;2.75;9.25;2.0;0.75;0.0;0.25;0.0;1.75;0.0;0.0;0.0;0.0;2.25;0.25;0.0;-0.23291;0.013184;0.985352;-0.56;0.49;0.49;334.0;-0.228629;0.070909;5.0;6.75;4.75;4.75;0.75;0.75;0.0;0.25;0.25;0.25;0.5;0.25;0.0;1.0;0.5;0.0;-0.250977;0.026855;0.975586;-0.7;-0.91;0.7;292.0;-0.259932;-0.053042
3.23;9.25;2.75;9.0;2.0;0.75;0.0;0.25;0.0;1.5;0.0;0.0;0.0;0.0;2.25;0.0;0.0;-0.229492;0.017578;0.983398;-0.56;0.56;0.49;322.0;-0.237808;0.069503;5.25;6.75;4.75;5.0;0.75;1.0;0.0;0.25;0.25;0.25;0.5;0.25;0.0;1.0;0.5;0.0;-0.253418;0.027344;0.974121;-0.7;-0.84;0.77;300.0;-0.260492;-0.055409
3.24;9.25;3.0;9.0;2.0;0.75;0.0;0.25;0.0;1.5;0.0;0.0;0.0;0.0;2.25;0.0;0.0;-0.231445;0.01416;0.985352;-0.77;0.49;0.56;324.0;-0.239198;0.067671;5.25;7.0;4.75;5.25;0.75;1.0;0.0;0.25;0.25;0.25;0.5;0.25;0.25;1.0;0.25;0.0;-0.253418;0.02832;0.975586;-0.7;-0.91;0.7;305.0;-0.265002;-0.060867
3.25;9.5;2.75;8.75;1.75;0.75;0.0;0.25;0.0;1.5;0.0;0.0;0.0;0.0;2.25;0.25;0.0;-0.231934;0.016113;0.984863;-0.63;0.42;0.56;321.0;-0.232779;0.071058;5.25;7.0;4.75;5.25;0.75;0.75;0.0;0.0;0.25;0.25;0.5;0.25;0.0;0.75;0.5;0.0;-0.247559;0.02832;0.968262;-0.77;-0.91;0.77;296.0;-0.271934;-0.052984
3.26;9.5;2.75;8.75;2.0;0.75;0.0;0.25;0.0;1.5;0.0;0.0;0.0;0.0;2.25;0.0;0.0;-0.231934;0.013184;0.986328;-0.49;0.49;0.56;321.0;-0.239002;0.069663;5.5;7.0;4.75;5.25;0.75;0.75;0.0;0.25;0.25;0.25;0.5;0.25;0.0;1.25;0.5;0.0;-0.245605;0.030762;0.97168;-0.77;-1.05;0.77;308.0;-0.259319;-0.0526
3.27;9.75;2.75;9.0;1.75;0.75;0.0;0.25;0.0;1.5;0.25;0.25;0.0;0.0;2.5;0.25;0.0;-0.230469;0.016602;0.987793;-0.77;0.56;0.49;335.0;-0.222118;0.070627;5.75;7.25;5.0;5.25;0.75;1.0;0.0;0.25;0.25;0.25;0.5;0.25;0.0;1.0;0.5;0.0;-0.250977;0.028809;0.973633;-0.63;-0.98;0.77;317.0;-0.265826;-0.054449
3.28;9.5;2.75;9.0;2.0;0.75;0.0;0.25;0.0;1.5;0.0;0.0;0.0;0.0;2.25;0.25;0.0;-0.225586;0.012207;0.986816;-0.7;0.49;0.56;327.0;-0.233586;0.068516;5.0;7.0;4.75;5.0;0.75;0.75;0.0;0.0;0.25;0.25;0.5;0.0;0.0;1.0;0.5;0.0;-0.249512;0.033203;0.975098;-0.77;-0.98;0.7;290.0;-0.269793;-0.048529
3.29;9.75;2.5;9.0;2.0;0.75;0.0;0.25;0.0;1.25;0.0;0.0;0.0;0.0;2.25;0.25;0.0;-0.233398;0.015625;0.983887;-0.63;0.42;0.56;324.0;-0.239052;0.068423;4.75;6.75;4.75;5.25;0.75;0.75;0.0;0.0;0.25;0.25;0.75;0.0;0.0;1.0;0.5;0.25;-0.25293;0.028809;0.971191;-0.7;-0.98;0.77;292.0;-0.259363;-0.052852
3.3;9.5;2.5;9.0;2.0;0.75;0.0;0.25;0.0;1.75;0.0;0.0;0.0;0.0;2.25;0.0;0.0;-0.225586;0.009766;0.983887;-0.63;0.63;0.56;325.0;-0.232431;0.073921;5.0;6.75;4.75;5.25;0.75;0.75;0.0;0.25;0.25;0.25;0.75;0.25;0.0;1.25;0.5;0.25;-0.247559;0.027832;0.973633;-0.7;-0.84;0.77;304.0;-0.247759;-0.056527
3.31;9.5;2.5;9.0;2.0;0.75;0.0;0.25;0.0;1.5;0.0;0.0;0.0;0.0;2.25;0.25;0.0;-0.234863;0.012695;0.98291;-0.77;0.35;0.49;325.0;-0.232165;0.070337;5.0;7.0;4.75;5.25;0.75;0.75;0.0;0.0;0.25;0.25;0.75;0.25;0.0;1.0;0.5;0.25;-0.244629;0.025879;0.974121;-0.77;-0.98;0.77;300.0;-0.257544;-0.05461
3.32;9.75;2.75;9.0;2.0;0.75;0.0;0.25;0.0;1.5;0.0;0.0;0.0;0.0;2.25;0.25;0.0;-0.228027;0.018066;0.987305;-0.7;0.49;0.49;330.0;-0.23504;0.068863;5.0;6.75;4.75;4.75;0.75;0.75;0.0;0.0;0.25;0.25;0.75;0.0;0.0;1.0;0.5;0.25;-0.244629;0.028809;0.968262;-0.7;-0.91;0.7;289.0;-0.260188;-0.047698
3.33;10.0;2.5;9.0;2.0;0.75;0.0;0.25;0.0;1.5;0.0;0.0;0.0;0.0;2.5;0.25;0.0;-0.227539;0.014648;0.982422;-0.63;0.56;0.49;333.0;-0.230577;0.071743;5.0;6.75;4.75;4.75;1.0;0.75;0.0;0.0;0.25;0.25;0.75;0.0;0.25;1.25;0.5;0.25;-0.253906;0.023926;0.971191;-0.7;-0.98;0.7;297.0;-0.250147;-0.048117
3.34;9.5;2.5;9.0;2.0;0.75;0.0;0.25;0.0;1.5;0.25;0.0;0.0;0.0;2.25;0.25;0.0;-0.234375;0.012695;0.986816;-0.7;0.49;0.49;328.0;-0.228065;0.070281;5.25;6.75;4.75;5.0;0.75;0.75;0.0;0.25;0.25;0.25;0.75;0.0;0.25;1.0;0.0;0.25;-0.250977;0.02832;0.975098;-0.63;-0.98;0.77;296.0;-0.267876;-0.055474
3.35;9.5;2.75;9.0;2.0;0.75;0.0;0.25;0.0;1.75;0.0;0.0;0.0;0.0;2.75;0.25;0.0;-0.230469;0.013184;0.985352;-0.7;0.56;0.56;335.0;-0.219421;0.072222;5.5;6.75;4.75;5.25;0.75;0.75;0.0;0.25;0.25;0.25;0.75;0.0;0.0;1.0;0.0;0.25;-0.24707;0.027832;0.977539;-0.7;-0.98;0.77;299.0;-0.272799;-0.052419
3.36;9.5;2.75;9.0;2.0;0.75;0.0;0.25;0.0;1.75;0.0;0.0;0.0;0.0;2.5;0.0;0.0;-0.228027;0.013672;0.979492;-0.77;0.77;0.49;330.0;-0.229304;0.072819;5.25;7.0;4.75;5.25;0.75;0.75;0.0;0.25;0.25;0.25;0.75;0.25;0.25;1.0;0.0;0.25;-0.252441;0.029297;0.970703;-0.7;-0.91;0.77;304.0;-0.264781;-0.06034
3.37;9.75;2.5;9.0;2.0;0.75;0.0;0.25;0.0;1.5;0.0;0.0;0.0;0.0;2.25;0.25;0.0;-0.234375;0.01123;0.984863;-0.63;0.49;0.49;328.0;-0.233643;0.07067;5.25;6.75;4.75;4.75;0.75;0.75;0.0;0.25;0.25;0.25;0.75;0.0;0.25;1.0;0.0;0.25;-0.251953;0.029297;0.973633;-0.7;-0.91;0.84;293.0;-0.267674;-0.053738
3.38;9.25;2.5;9.0;2.0;0.75;0.0;0.25;0.0;1.75;0.0;0.25;0.0;0.0;2.5;0.0;0.0;-0.231445;0.009277;0.983398;-0.7;0.49;0.56;328.0;-0.22239;0.072698;5.5;6.75;4.5;5.0;0.75;0.75;0.0;0.25;0.25;0.25;0.75;0.0;0.0;1.25;0.25;0.25;-0.250488;0.027344;0.969238;-0.7;-0.91;0.7;298.0;-0.260847;-0.050629
3.39;9.5;2.75;9.0;1.75;0.75;0.0;0.25;0.0;1.75;0.0;0.25;0.0;0.0;2.75;0.0;0.0;-0.231445;0.013184;0.981934;-0.7;0.56;0.49;332.0;-0.220381;0.074613;5.0;6.75;4.5;4.75;0.75;0.75;0.0;0.25;0.25;0.25;0.75;0.25;0.0;1.0;0.25;0.25;-0.252441;0.02832;0.967773;-0.7;-0.91;0.7;290.0;-0.258511;-0.056201
3.4;9.75;2.75;9.0;2.0;0.75;0.0;0.25;0.0;1.75;0.0;0.0;0.0;0.0;2.25;0.25;0.0;-0.231445;0.01123;0.986816;-0.63;0.42;0.56;334.0;-0.229773;0.071065;4.75;6.75;4.75;5.25;0.75;0.75;0.0;0.25;0.25;0.25;1.0;0.25;0.25;1.0;0.25;0.25;-0.24707;0.03418;0.970215;-0.7;-0.91;0.77;301.0;-0.249863;-0.063366
3.41;10.0;2.75;9.0;2.0;0.75;0.0;0.25;0.0;1.75;0.0;0.0;0.0;0.0;2.25;0.25;0.0;-0.228027;0.009766;0.982422;-0.7;0.49;0.49;337.0;-0.231232;0.071383;5.25;6.75;4.75;5.25;0.75;0.75;0.0;0.25;0.25;0.25;0.75;0.25;0.25;1.25;0.5;0.0;-0.251953;0.027832;0.966797;-0.77;-0.98;0.7;308.0;-0.248924;-0.056869
3.42;9.25;2.75;9.0;2.0;0.75;0.0;0.25;0.0;1.5;0.0;0.0;0.0;0.0;2.25;0.25;0.0;-0.228516;0.016113;0.989258;-0.56;0.35;0.63;324.0;-0.232106;0.068164;5.25;7.0;4.75;5.25;0.75;0.75;0.0;0.25;0.25;0.25;0.75;0.25;0.0;1.0;0.0;0.0;-0.249512;0.027832;0.97168;-0.7;-0.91;0.77;300.0;-0.271274;-0.055942
3.43;9.25;2.5;9.0;2.0;0.5;0.0;0.25;0.0;1.5;0.0;0.0;0.0;0.0;2.5;0.25;0.0;-0.230957;0.015625;0.987305;-0.7;0.56;0.42;321.0;-0.226997;0.070857;4.75;6.75;4.75;5.25;0.75;0.75;0.0;0.25;0.25;0.5;1.0;0.25;0.0;1.0;0.0;0.0;-0.244629;0.023926;0.974609;-0.7;-0.91;0.77;298.0;-0.257868;-0.057574
3.44;9.5;2.5;9.0;2.0;0.75;0.0;0.25;0.0;1.5;0.0;0.0;0.0;0.0;2.5;0.25;0.0;-0.22998;0.005371;0.985352;-0.77;0.63;0.49;327.0;-0.227589;0.0711;4.75;6.75;4.75;5.25;0.75;0.75;0.0;0.25;0.25;0.25;0.75;0.25;0.0;1.0;0.0;0.25;-0.248047;0.023438;0.971191;-0.7;-0.91;0.77;293.0;-0.264288;-0.059474
3.45;9.75;2.5;9.0;2.0;0.75;0.0;0.25;0.0;1.5;0.0;0.0;0.0;0.0;2.25;0.25;0.0;-0.233398;0.011719;0.991211;-0.7;0.49;0.56;328.0;-0.233643;0.07067;5.0;6.75;4.5;5.25;0.75;0.75;0.0;0.25;0.25;0.25;0.75;0.25;0.25;1.0;0.25;0.25;-0.25293;0.027832;0.96875;-0.77;-0.91;0.77;298.0;-0.255719;-0.06279
3.46;9.25;2.75;9.0;2.0;0.75;0.0;0.25;0.0;1.5;0.0;0.0;0.0;0.0;2.25;0.25;0.0;-0.231445;0.020996;0.993652;-0.56;0.49;0.56;324.0;-0.232106;0.068164;5.25;6.75;4.75;5.25;0.75;0.75;0.0;0.25;0.25;0.25;0.75;0.25;0.0;1.0;0.5;0.25;-0.247559;0.025879;0.974609;-0.77;-0.84;0.7;305.0;-0.254232;-0.056776
3.47;9.25;2.75;9.25;2.0;0.75;0.0;0.25;0.0;1.5;0.0;0.0;0.0;0.0;2.25;0.25;0.0;-0.232422;0.011719;0.97998;-0.7;0.49;0.56;328.0;-0.232417;0.06836;5.25;6.75;4.75;5.25;0.75;1.0;0.0;0.25;0.25;0.25;0.75;0.25;0.0;1.0;0.25;0.0;-0.245605;0.025879;0.974121;-0.7;-0.84;0.56;303.0;-0.262486;-0.057402
3.48;9.25;2.75;8.75;2.0;0.75;0.0;0.25;0.0;1.5;0.0;0.0;0.0;0.0;2.25;0.0;0.0;-0.232422;0.012207;0.979492;-0.56;0.35;0.56;319.0;-0.237543;0.069314;5.25;6.75;4.75;5.25;0.75;0.75;0.0;0.25;0.25;0.25;0.5;0.25;0.0;1.25;0.25;0.0;-0.245117;0.027344;0.970215;-0.77;-0.84;0.7;300.0;-0.263012;-0.052887
3.49;9.5;2.75;9.0;2.0;0.75;0.0;0.25;0.0;1.75;0.0;0.0;0.0;0.0;2.25;0.25;0.0;-0.229004;0.013184;0.983887;-0.56;0.49;0.56;331.0;-0.228289;0.070741;5.25;7.0;4.75;5.0;0.75;0.75;0.0;0.25;0.25;0.5;0.75;0.25;0.0;1.0;0.25;0.0;-0.251953;0.024902;0.972168;-0.77;-0.91;0.77;303.0;-0.259884;-0.053393
3.5;9.5;2.5;9.25;2.0;0.75;0.0;0.25;0.0;1.75;0.0;0.0;0.0;0.0;2.0;0.25;0.0;-0.226562;0.01416;0.985352;-0.63;0.35;0.7;329.0;-0.231712;0.071971;5.25;6.75;5.0;5.0;0.75;0.75;0.0;0.25;0.25;0.25;0.75;0.25;0.0;1.0;0.0;0.25;-0.255371;0.02832;0.977539;-0.77;-0.91;0.77;299.0;-0.266697;-0.053115
3.51;9.25;2.5;8.75;2.0;0.75;0.0;0.25;0.0;1.75;0.0;0.0;0.0;0.0;2.25;0.0;0.0;-0.228516;0.016113;0.983398;-0.56;0.49;0.49;320.0;-0.230603;0.073464;4.75;6.75;4.5;5.25;0.75;0.75;0.0;0.25;0.25;0.25;0.75;0.0;0.25;1.0;0.25;0.0;-0.249512;0.025391;0.978516;-0.56;-0.84;0.7;291.0;-0.26202;-0.060878
3.52;9.25;2.5;9.0;2.0;0.75;0.0;0.25;0.0;1.75;0.0;0.0;0.0;0.0;2.25;0.25;0.0;-0.231445;0.015137;0.98584;-0.56;0.42;0.63;326.0;-0.22531;0.072242;4.75;6.75;4.75;5.0;0.75;0.75;0.0;0.25;0.25;0.5;0.75;0.25;0.25;1.0;0.25;0.0;-0.248535;0.029785;0.965332;-0.77;-0.84;0.7;297.0;-0.252416;-0.058764
3.53;9.5;2.75;9.25;1.75;0.75;0.0;0.25;0.0;1.75;0.0;0.0;0.0;0.0;2.5;0.25;0.0;-0.228027;0.013672;0.987793;-0.63;0.49;0.49;333.0;-0.223632;0.074315;4.75;6.75;4.75;4.75;0.75;0.75;0.0;0.25;0.25;0.25;0.5;0.25;0.25;1.25;0.5;0.25;-0.249023;0.02832;0.974121;-0.63;-0.91;0.77;295.0;-0.24672;-0.057349
3.54;9.75;2.75;9.0;1.75;0.75;0.0;0.25;0.0;1.5;0.0;0.0;0.0;0.0;2.5;0.25;0.0;-0.229492;0.007324;0.982422;-0.63;0.56;0.56;329.0;-0.229999;0.072304;4.75;6.75;4.5;5.0;0.75;0.75;0.0;0.25;0.25;0.25;0.5;0.0;0.0;1.25;0.5;0.0;-0.244629;0.029785;0.976074;-0.56;-0.84;0.7;288.0;-0.258027;-0.053641
3.55;9.25;2.75;9.0;2.0;0.75;0.0;0.25;0.0;1.75;0.0;0.0;0.0;0.0;2.5;0.25;0.0;-0.22998;0.013184;0.988281;-0.7;0.63;0.56;330.0;-0.222287;0.071166;4.75;6.5;4.5;5.0;0.75;0.75;0.0;0.25;0.25;0.5;0.5;0.0;0.0;1.25;0.5;0.0;-0.250488;0.033691;0.972168;-0.7;-0.84;0.63;288.0;-0.25173;-0.0515
3.56;9.0;2.5;9.25;1.75;0.75;0.0;0.25;0.0;1.5;0.0;0.0;0.0;0.0;2.25;0.25;0.0;-0.231934;0.006348;0.980469;-0.63;0.56;0.56;319.0;-0.228929;0.072606;4.5;6.5;4.5;4.5;0.75;1.0;0.0;0.25;0.25;0.25;0.5;0.25;0.25;1.25;0.5;0.25;-0.247559;0.02832;0.968262;-0.7;-0.77;0.77;287.0;-0.242071;-0.060079
3.57;9.25;2.5;9.25;1.75;0.75;0.0;0.25;0.0;1.5;0.0;0.0;0.0;0.0;2.25;0.0;0.0;-0.225586;0.011719;0.983398;-0.56;0.49;0.56;319.0;-0.236192;0.074318;4.5;6.5;4.75;4.75;0.75;1.0;0.0;0.25;0.25;0.25;0.5;0.25;0.25;1.25;0.25;0.0;-0.25293;0.026855;0.971191;-0.7;-0.84;0.7;288.0;-0.25235;-0.058691
3.58;9.5;2.75;9.25;1.75;0.75;0.0;0.25;0.0;1.5;0.0;0.0;0.0;0.0;2.25;0.25;0.0;-0.23291;0.008789;0.987305;-0.7;0.56;0.56;327.0;-0.233389;0.071396;4.75;6.5;4.75;5.0;0.75;0.75;0.0;0.25;0.25;0.25;0.5;0.25;0.25;1.25;0.25;0.0;-0.25293;0.026367;0.970215;-0.77;-0.91;0.7;291.0;-0.255203;-0.056585
3.59;9.5;2.75;8.75;1.75;0.75;0.0;0.25;0.0;1.75;0.0;0.0;0.0;0.0;2.5;0.25;0.0;-0.23291;0.009277;0.989258;-0.63;0.56;0.49;327.0;-0.222852;0.074037;4.75;6.75;4.75;5.0;0.75;0.75;0.0;0.25;0.5;0.25;0.75;0.0;0.0;1.25;0.5;0.0;-0.249023;0.026855;0.973633;-0.84;-0.77;0.7;298.0;-0.247272;-0.048834
3.6;9.5;2.5;8.75;2.0;0.75;0.0;0.25;0.0;1.75;0.0;0.0;0.0;0.0;2.5;0.25;0.0;-0.23291;0.012207;0.980957;-0.7;0.56;0.56;328.0;-0.221953;0.073149;4.5;6.75;4.75;4.75;0.75;0.75;0.0;0.25;0.25;0.5;0.5;0.0;0.0;1.25;0.5;0.25;-0.248535;0.026367;0.974609;-0.7;-0.77;0.7;290.0;-0.248328;-0.052127
3.61;9.5;2.75;9.0;2.0;0.75;0.0;0.25;0.0;1.5;0.25;0.0;0.0;0.0;2.5;0.25;0.0;-0.228027;0.015137;0.982422;-0.7;0.56;0.49;332.0;-0.225021;0.06924;4.5;6.5;4.75;4.75;0.75;0.75;0.0;0.25;0.25;0.5;1.0;0.25;0.0;1.25;0.5;0.25;-0.250488;0.029785;0.967773;-0.84;-0.98;0.63;296.0;-0.233267;-0.054761
3.62;9.5;2.5;9.0;2.0;0.75;0.0;0.25;0.0;1.5;0.0;0.0;0.0;0.0;2.5;0.25;0.0;-0.227539;0.012695;0.983887;-0.63;0.49;0.49;327.0;-0.227589;0.0711;4.5;6.5;4.75;4.75;0.75;0.75;0.0;0.25;0.25;0.5;1.0;0.25;0.0;1.25;0.5;0.25;-0.247559;0.024414;0.972168;-0.7;-0.84;0.63;296.0;-0.233267;-0.054761
3.63;9.5;2.5;9.0;1.75;0.75;0.0;0.25;0.0;1.5;0.0;0.0;0.0;0.0;2.25;0.0;0.0;-0.231934;0.010254;0.981445;-0.63;0.63;0.49;319.0;-0.237395;0.074482;4.5;6.5;4.75;4.75;0.75;0.75;0.0;0.25;0.25;0.5;0.75;0.25;0.25;1.25;0.5;0.25;-0.245117;0.033203;0.97168;-0.84;-0.77;0.77;295.0;-0.234503;-0.057413
3.64;9.5;2.75;8.75;1.75;0.75;0.0;0.25;0.0;1.75;0.0;0.0;0.0;0.0;2.25;0.0;0.0;-0.231934;0.01123;0.986328;-0.63;0.56;0.49;322.0;-0.233047;0.074679;4.25;6.5;4.75;4.75;0.75;0.75;0.0;0.25;0.25;0.5;0.75;0.25;0.25;1.5;0.25;0.25;-0.25293;0.020996;0.979004;-0.7;-0.84;0.63;292.0;-0.234027;-0.056912
3.65;9.5;2.75;8.75;1.75;0.75;0.0;0.25;0.0;1.75;0.0;0.0;0.0;0.0;2.25;0.0;0.0;-0.228516;0.013184;0.983887;-0.63;0.56;0.49;322.0;-0.233047;0.074679;4.25;6.25;4.75;4.5;0.75;0.75;0.0;0.25;0.25;0.25;0.5;0.25;0.0;1.25;0.25;0.25;-0.250977;0.028809;0.97168;-0.77;-0.84;0.63;276.0;-0.250307;-0.053243
3.66;9.5;2.75;8.75;1.75;0.75;0.0;0.25;0.0;1.75;0.0;0.0;0.0;0.0;2.5;0.0;0.0;-0.230469;0.012695;0.982422;-0.7;0.49;0.56;324.0;-0.228425;0.075417;4.5;6.25;4.75;4.5;0.75;0.5;0.0;0.25;0.5;0.25;0.5;0.25;0.0;1.25;0.0;0.5;-0.246094;0.024414;0.977539;-0.77;-0.84;0.63;278.0;-0.249924;-0.04612
3.67;9.5;2.5;8.75;1.75;0.75;0.0;0.25;0.0;1.5;0.0;0.0;0.0;0.0;2.5;0.0;0.0;-0.225586;0.012207;0.989746;-0.77;0.56;0.49;318.0;-0.232384;0.075095;4.5;6.25;4.5;4.5;0.75;0.5;0.0;0.25;0.5;0.25;0.75;0.25;0.0;1.5;0.0;0.0;-0.25;0.025391;0.973145;-0.77;-0.84;0.7;277.0;-0.245821;-0.043598
3.68;9.5;2.5;8.75;2.0;0.75;0.0;0.25;0.0;1.5;0.0;0.0;0.0;0.0;2.25;0.25;0.0;-0.226562;0.014648;0.98584;-0.77;0.42;0.49;322.0;-0.231849;0.070158;4.5;6.25;4.75;4.25;0.75;0.75;0.0;0.25;0.25;0.0;0.75;0.25;0.0;1.25;0.25;0.0;-0.25;0.02832;0.977051;-0.7;-0.91;0.77;274.0;-0.254895;-0.050158
3.69;9.75;2.5;8.75;2.0;0.75;0.0;0.25;0.0;1.5;0.0;0.0;0.0;0.0;2.25;0.25;0.0;-0.234375;0.01123;0.98291;-0.7;0.49;0.49;325.0;-0.233344;0.070496;4.5;6.25;4.5;4.25;0.75;0.5;0.0;0.25;0.25;0.25;0.5;0.5;0.25;1.25;0.25;0.0;-0.249512;0.028809;0.970215;-0.63;-0.91;0.63;274.0;-0.247235;-0.053546
3.7;9.25;2.5;9.0;2.0;0.75;0.0;0.25;0.0;1.75;0.0;0.0;0.0;0.0;2.25;0.25;0.0;-0.226074;0.018066;0.988281;-0.7;0.35;0.56;326.0;-0.22531;0.072242;4.5;6.25;4.5;4.25;0.75;0.5;0.0;0.0;0.25;0.25;0.75;0.25;0.0;1.5;0.5;0.0;-0.246582;0.031738;0.974609;-0.63;-0.77;0.7;272.0;-0.24177;-0.041265
3.71;9.25;2.5;9.0;1.75;0.75;0.0;0.25;0.0;1.75;0.0;0.0;0.0;0.0;2.25;0.25;0.0;-0.231445;0.01123;0.985352;-0.7;0.42;0.56;323.0;-0.224731;0.075004;4.5;6.25;4.5;4.5;0.75;0.5;0.0;0.25;0.25;0.25;1.0;0.25;0.0;1.25;0.5;0.25;-0.250488;0.024414;0.971191;-0.63;-0.84;0.7;281.0;-0.236337;-0.052405
3.72;9.5;2.5;9.0;2.0;0.75;0.0;0.25;0.0;1.75;0.0;0.0;0.0;0.0;2.25;0.25;0.0;-0.228516;0.009766;0.985352;-0.7;0.56;0.49;328.0;-0.226844;0.072559;4.5;6.25;4.5;4.75;0.75;0.75;0.0;0.25;0.25;0.25;1.0;0.25;0.0;1.25;0.25;0.25;-0.246094;0.03418;0.972656;-0.77;-0.84;0.7;285.0;-0.242485;-0.056228
3.73;9.5;2.5;9.0;1.75;0.75;0.0;0.25;0.0;1.5;0.0;0.0;0.0;0.0;2.5;0.0;0.0;-0.225586;0.015625;0.98584;-0.63;0.42;0.56;321.0;-0.232698;0.075229;4.5;6.25;4.5;4.5;0.75;0.75;0.0;0.25;0.5;0.25;1.0;0.25;0.0;1.25;0.25;0.25;-0.248047;0.028809;0.970703;-0.77;-0.91;0.77;285.0;-0.235753;-0.050307
3.74;9.25;2.75;9.0;2.0;0.75;0.0;0.25;0.0;1.5;0.25;0.0;0.0;0.0;2.25;0.0;0.0;-0.223633;0.015137;0.988281;-0.77;0.56;0.56;324.0;-0.233618;0.069454;4.5;6.0;4.5;4.5;0.75;0.5;0.0;0.25;0.5;0.5;1.0;0.25;0.25;1.5;0.25;0.25;-0.245117;0.026855;0.96582;-0.7;-0.84;0.84;287.0;-0.221753;-0.047384
3.75;9.75;2.5;9.0;1.75;0.75;0.0;0.25;0.0;1.5;0.0;0.0;0.0;0.0;2.25;0.25;0.0;-0.232422;0.01416;0.98584;-0.7;0.49;0.49;325.0;-0.233145;0.0734;4.75;6.25;4.5;4.5;1.0;0.75;0.0;0.25;0.25;0.5;1.0;0.25;0.25;1.25;0.5;0.25;-0.248047;0.026855;0.967285;-0.84;-0.91;0.7;295.0;-0.228141;-0.054068
3.76;9.25;2.5;9.0;1.75;0.75;0.0;0.25;0.0;1.5;0.0;0.0;0.0;0.0;2.25;0.25;0.0;-0.231445;0.006836;0.980469;-0.7;0.42;0.56;319.0;-0.230126;0.072769;4.5;6.25;4.5;4.25;0.75;0.75;0.0;0.25;0.25;0.25;0.5;0.25;0.0;1.25;0.0;0.25;-0.250488;0.02832;0.966797;-0.77;-0.91;0.77;270.0;-0.258312;-0.050941
3.77;9.5;2.5;9.0;1.75;0.75;0.0;0.25;0.0;1.5;0.0;0.0;0.0;0.0;2.25;0.0;0.0;-0.230957;0.013184;0.993164;-0.7;0.49;0.49;319.0;-0.237395;0.074482;4.25;6.25;4.5;4.5;0.75;0.75;0.0;0.25;0.5;0.25;0.5;0.25;0.0;1.5;0.25;0.25;-0.25;0.022461;0.972656;-0.7;-0.84;0.7;279.0;-0.238126;-0.048679
3.78;9.5;2.5;9.0;1.75;0.75;0.0;0.25;0.0;1.75;0.0;0.0;0.0;0.0;2.5;0.25;0.0;-0.230469;0.015137;0.989746;-0.63;0.42;0.49;328.0;-0.221758;0.076026;4.5;6.25;4.5;4.5;0.75;0.75;0.0;0.25;0.5;0.25;0.5;0.5;0.0;1.25;0.25;0.25;-0.246094;0.030273;0.975098;-0.77;-0.84;0.63;282.0;-0.240568;-0.051483
3.79;9.5;2.5;9.0;2.0;0.75;0.0;0.25;0.0;1.75;0.0;0.0;0.0;0.0;2.5;0.0;0.0;-0.227539;0.008789;0.984863;-0.7;0.49;0.49;328.0;-0.227863;0.074656;4.5;6.0;4.75;4.5;0.75;0.75;0.0;0.25;0.25;0.25;1.25;0.25;0.0;1.5;0.25;0.25;-0.252441;0.029785;0.975098;-0.77;-0.84;0.7;287.0;-0.230773;-0.050662
3.8;9.5;2.5;9.25;2.0;0.75;0.0;0.25;0.0;1.5;0.0;0.0;0.0;0.0;2.75;0.25;0.0;-0.234375;0.007324;0.989258;-0.56;0.49;0.49;332.0;-0.223467;0.072011;4.5;6.25;4.75;4.25;0.75;0.75;0.0;0.25;0.25;0.25;0.75;0.25;0.25;1.5;0.25;0.0;-0.252441;0.030762;0.97168;-0.77;-0.77;0.77;282.0;-0.240861;-0.050569
3.81;9.5;2.5;9.0;2.0;0.75;0.0;0.25;0.0;1.75;0.0;0.25;0.0;0.0;2.75;0.25;0.0;-0.229492;0.012207;0.984863;-0.7;0.7;0.49;336.0;-0.214148;0.072409;4.25;6.0;4.5;4.25;0.75;0.75;0.0;0.25;0.25;0.25;0.5;0.25;0.0;1.5;0.25;0.25;-0.253418;0.02832;0.972656;-0.7;-0.84;0.7;270.0;-0.242464;-0.049906
3.82;9.25;2.5;9.0;2.0;0.75;0.0;0.25;0.0;1.75;0.25;0.0;0.0;0.0;2.5;0.25;0.0;-0.223633;0.012695;0.987793;-0.7;0.63;0.56;331.0;-0.216828;0.072912;4.25;6.0;4.5;4.25;0.75;0.75;0.0;0.25;0.25;0.25;0.5;0.25;0.0;1.5;0.5;0.25;-0.245117;0.025879;0.977051;-0.7;-0.91;0.63;273.0;-0.23563;-0.050245
3.83;9.5;2.5;9.0;1.75;0.75;0.0;0.25;0.0;2.0;0.25;0.0;0.0;0.0;2.5;0.25;0.0;-0.225586;0.020508;0.986816;-0.7;0.49;0.63;334.0;-0.212707;0.078045;4.5;6.0;4.5;4.25;0.75;0.5;0.0;0.25;0.25;0.5;1.0;0.25;0.25;1.25;0.5;0.25;-0.247559;0.032227;0.970703;-0.84;-0.91;0.77;281.0;-0.225955;-0.051798
3.84;9.5;2.75;9.0;2.0;0.75;0.0;0.25;0.0;1.75;0.0;0.0;0.0;0.0;2.75;0.25;0.0;-0.228516;0.011719;0.986816;-0.56;0.56;0.49;335.0;-0.219421;0.072222;4.5;6.0;4.5;4.25;0.75;0.5;0.0;0.25;0.25;0.5;1.0;0.25;0.0;1.25;0.5;0.5;-0.246582;0.029785;0.96875;-0.7;-0.98;0.7;280.0;-0.226177;-0.049737
3.85;9.75;2.75;9.25;2.0;0.75;0.0;0.25;0.0;1.75;0.0;0.0;0.0;0.0;2.25;0.25;0.0;-0.225098;0.012207;0.98291;-0.7;0.49;0.56;337.0;-0.230097;0.071229;4.25;6.25;4.5;4.75;0.75;0.75;0.0;0.25;0.25;0.5;0.5;0.25;0.0;1.25;0.5;0.5;-0.250977;0.031738;0.97168;-0.7;-0.77;0.7;283.0;-0.235758;-0.057074
3.86;9.5;2.75;9.25;1.75;0.75;0.0;0.25;0.0;1.75;0.0;0.0;0.0;0.0;2.5;0.25;0.0;-0.22998;0.010254;0.989258;-0.7;0.63;0.56;333.0;-0.223632;0.074315;4.25;5.75;4.5;4.25;0.75;0.75;0.0;0.25;0.5;0.5;0.75;0.25;0.0;1.5;0.5;0.25;-0.244629;0.02832;0.970703;-0.84;-0.91;0.77;279.0;-0.218133;-0.044556
3.87;9.5;2.75;9.0;2.0;0.75;0.0;0.25;0.0;1.5;0.25;0.0;0.0;0.0;2.25;0.25;0.0;-0.227051;0.01709;0.98291;-0.7;0.63;0.56;330.0;-0.229505;0.068477;4.25;5.75;4.5;4.25;0.75;0.5;0.0;0.25;0.5;0.5;0.75;0.25;0.0;1.5;0.5;0.25;-0.249023;0.029297;0.974609;-0.77;-0.84;0.7;276.0;-0.218842;-0.042099
3.88;9.5;2.5;9.0;2.0;0.75;0.0;0.25;0.0;1.75;0.25;0.0;0.0;0.0;2.25;0.25;0.0;-0.22998;0.007324;0.984375;-0.63;0.49;0.49;331.0;-0.222833;0.072485;4.25;5.75;4.75;4.25;0.75;0.75;0.0;0.25;0.5;0.5;1.0;0.25;0.25;1.25;0.25;0.25;-0.254395;0.025879;0.97168;-0.7;-0.91;0.7;282.0;-0.22245;-0.048754
3.89;9.75;2.75;9.0;1.75;0.75;0.0;0.25;0.0;1.75;0.0;0.0;0.0;0.0;2.5;0.25;0.0;-0.23584;0.017578;0.98584;-0.56;0.63;0.56;333.0;-0.224775;0.074473;4.25;6.0;4.5;4.0;0.75;0.75;0.0;0.25;0.5;0.5;0.75;0.25;0.25;1.5;0.25;0.25;-0.249023;0.030273;0.97168;-0.84;-0.84;0.63;278.0;-0.222347;-0.046854
3.9;10.0;2.5;9.0;2.0;0.75;0.0;0.25;0.0;2.0;0.0;0.0;0.0;0.0;2.75;0.25;0.0;-0.233398;0.014648;0.981934;-0.63;0.56;0.56;342.0;-0.216036;0.076697;4.25;6.0;4.75;4.0;0.75;0.75;0.0;0.25;0.5;0.25;0.75;0.25;0.25;1.5;0.5;0.25;-0.253906;0.030762;0.978027;-0.77;-0.77;0.7;281.0;-0.221072;-0.046857
3.91;9.75;2.5;9.25;2.0;0.75;0.0;0.25;0.0;1.75;0.0;0.0;0.0;0.0;2.5;0.25;0.0;-0.229004;0.016602;0.988281;-0.7;0.49;0.63;337.0;-0.224267;0.073742;4.25;6.0;4.5;4.25;0.75;0.75;0.0;0.25;0.5;0.25;0.75;0.25;0.25;1.5;0.25;0.25;-0.25;0.033203;0.970215;-0.77;-0.91;0.77;279.0;-0.22777;-0.0499
3.92;9.25;2.5;9.0;2.0;0.75;0.0;0.25;0.0;1.75;0.0;0.0;0.0;0.0;2.5;0.0;0.0;-0.231445;0.005859;0.987305;-0.63;0.63;0.49;325.0;-0.226336;0.074358;4.25;5.75;4.5;4.0;1.0;0.75;0.0;0.25;0.5;0.25;0.75;0.25;0.25;1.25;0.5;0.25;-0.247559;0.026855;0.971191;-0.7;-0.84;0.7;277.0;-0.223079;-0.047982
3.93;9.5;2.75;9.0;2.0;0.75;0.0;0.25;0.0;1.75;0.0;0.0;0.0;0.0;2.75;0.25;0.0;-0.22998;0.01123;0.98877;-0.49;0.49;0.63;335.0;-0.219421;0.072222;4.25;5.75;4.5;4.25;1.0;0.75;0.0;0.25;0.5;0.25;1.0;0.25;0.25;1.25;0.5;0.25;-0.243164;0.028809;0.977539;-0.77;-0.84;0.77;282.0;-0.219217;-0.050548
3.94;9.0;2.5;9.0;2.0;0.75;0.0;0.25;0.0;1.75;0.0;0.0;0.0;0.0;2.25;0.25;0.0;-0.228516;0.01123;0.986816;-0.56;0.49;0.56;323.0;-0.223749;0.07192;4.5;6.0;4.5;4.25;1.0;1.0;0.0;0.25;0.5;0.25;1.25;0.25;0.25;1.5;0.5;0.25;-0.253906;0.026855;0.974121;-0.77;-0.91;0.7;296.0;-0.212728;-0.051084
3.95;9.25;2.5;9.0;2.0;0.75;0.0;0.25;0.0;1.75;0.25;0.0;0.0;0.0;2.25;0.25;0.0;-0.231445;0.01416;0.990234;-0.63;0.42;0.49;328.0;-0.221278;0.07217;4.5;5.75;4.5;4.25;0.75;0.75;0.0;0.25;0.5;0.25;1.0;0.25;0.25;1.75;0.5;0.25;-0.246094;0.026367;0.977051;-0.84;-0.91;0.77;287.0;-0.211792;-0.046453
3.96;9.5;2.5;9.25;2.0;0.75;0.0;0.25;0.0;1.75;0.0;0.0;0.0;0.0;2.5;0.25;0.0;-0.229004;0.011719;0.979004;-0.56;0.35;0.56;334.0;-0.222749;0.073443;4.25;5.75;4.5;4.25;0.75;0.75;0.0;0.25;0.5;0.5;1.0;0.5;0.25;1.5;0.5;0.25;-0.251953;0.02832;0.981445;-0.84;-0.91;0.63;288.0;-0.206261;-0.051198
3.97;9.75;2.75;9.25;2.0;0.75;0.0;0.25;0.0;1.75;0.0;0.0;0.0;0.0;2.5;0.0;0.0;-0.226074;0.012207;0.994141;-0.63;0.49;0.49;336.0;-0.231096;0.073272;4.25;6.0;4.5;4.25;0.75;0.5;0.0;0.0;0.5;0.5;1.0;0.5;0.25;1.75;0.5;0.5;-0.251465;0.030273;0.96875;-0.77;-0.91;0.63;287.0;-0.203549;-0.044465
3.98;9.5;2.75;9.0;2.0;0.75;0.0;0.25;0.0;1.75;0.0;0.0;0.0;0.0;2.5;0.25;0.0;-0.231934;0.015625;0.984375;-0.56;0.35;0.56;333.0;-0.223824;0.071486;4.5;6.0;4.5;4.25;1.0;0.5;0.0;0.0;0.5;0.5;1.25;0.25;0.25;1.75;0.5;0.25;-0.251465;0.026855;0.976562;-0.84;-0.91;0.7;291.0;-0.207418;-0.038728
3.99;9.75;2.75;9.0;2.0;0.75;0.0;0.25;0.0;2.0;0.0;0.0;0.0;0.0;2.5;0.25;0.0;-0.229492;0.015625;0.986328;-0.7;0.42;0.49;340.0;-0.220262;0.073935;4.5;6.0;4.5;4.25;0.75;0.5;0.0;0.25;0.5;0.5;0.75;0.25;0.25;1.75;0.25;0.25;-0.249023;0.024414;0.974609;-0.7;-0.84;0.7;284.0;-0.22038;-0.042974
4.0;9.75;2.75;9.0;2.0;0.75;0.0;0.25;0.0;1.75;0.25;0.0;0.0;0.0;2.75;0.25;0.0;-0.230469;0.007812;0.987305;-0.77;0.63;0.49;341.0;-0.217115;0.072458;4.25;6.0;4.5;4.25;0.75;0.5;0.0;0.25;0.5;1.0;1.0;0.5;0.25;1.5;0.5;0.25;-0.246094;0.027344;0.974609;-0.7;-0.84;0.7;293.0;-0.199947;-0.0477
4.01;9.75;2.5;9.0;2.0;0.75;0.0;0.25;0.0;1.5;0.25;0.0;0.0;0.0;2.75;0.0;0.0;-0.228027;0.01416;0.989258;-0.77;0.49;0.56;332.0;-0.226089;0.073428;4.25;5.75;4.5;4.25;0.75;0.5;0.0;0.25;0.5;0.75;0.75;0.5;0.25;1.5;0.25;0.5;-0.25;0.02832;0.971191;-0.7;-0.91;0.7;283.0;-0.20996;-0.048119
4.02;9.5;2.5;9.0;2.0;0.75;0.0;0.25;0.0;1.75;0.0;0.0;0.0;0.0;2.75;0.25;0.0;-0.233398;0.01123;0.985352;-0.77;0.63;0.63;333.0;-0.217928;0.074026;4.25;5.75;4.5;4.25;1.0;0.5;0.0;0.25;0.5;0.5;0.75;0.5;0.25;1.5;0.0;0.0;-0.250977;0.029785;0.971191;-0.7;-0.84;0.77;277.0;-0.226128;-0.044897
4.03;9.5;2.5;9.0;1.75;0.75;0.0;0.25;0.0;1.75;0.0;0.0;0.0;0.0;2.75;0.25;0.0;-0.226562;0.009766;0.986328;-0.77;0.56;0.42;330.0;-0.217295;0.076742;4.25;5.75;4.75;4.25;0.75;0.75;0.0;0.25;0.5;0.5;0.75;0.5;0.25;1.75;0.25;0.0;-0.246094;0.025391;0.973145;-0.7;-0.77;0.7;286.0;-0.215289;-0.04552
4.04;9.5;2.75;9.0;1.75;0.75;0.0;0.25;0.0;1.75;0.0;0.0;0.0;0.0;2.5;0.0;0.0;-0.230957;0.013672;0.993164;-0.77;0.49;0.56;327.0;-0.22877;0.075546;4.25;5.75;4.5;4.0;0.75;0.75;0.0;0.25;0.5;0.5;1.0;0.5;0.25;1.75;0.5;0.25;-0.246582;0.02832;0.970215;-0.63;-0.77;0.7;287.0;-0.200403;-0.047531
4.05;9.5;2.75;8.75;1.75;0.75;0.0;0.25;0.0;2.0;0.0;0.0;0.0;0.0;2.5;0.25;0.0;-0.22998;0.01416;0.98584;-0.77;0.49;0.56;331.0;-0.217669;0.076203;4.25;5.75;4.5;4.25;0.75;0.75;0.0;0.25;0.25;0.5;1.0;0.5;0.25;1.75;0.5;0.5;-0.249023;0.028809;0.96582;-0.63;-0.84;0.77;288.0;-0.204101;-0.054748
4.06;9.25;2.75;9.0;1.75;0.75;0.0;0.25;0.0;2.0;0.25;0.0;0.0;0.0;2.75;0.0;0.0;-0.228027;0.013184;0.987793;-0.84;0.63;0.49;333.0;-0.213611;0.078009;4.25;5.75;4.5;4.25;0.75;0.75;0.0;0.25;0.5;0.5;1.25;0.75;0.25;1.5;0.25;0.5;-0.25;0.024414;0.975098;-0.7;-0.77;0.63;292.0;-0.20108;-0.055273
4.07;9.25;2.5;9.25;2.0;1.0;0.0;0.25;0.0;1.75;0.25;0.0;0.0;0.0;2.75;0.0;0.0;-0.229004;0.015137;0.98291;-0.84;0.56;0.49;336.0;-0.217431;0.075003;4.25;5.75;4.5;4.5;1.0;0.75;0.0;0.25;0.5;0.5;1.0;0.5;0.0;1.5;0.25;0.25;-0.249512;0.025391;0.977051;-0.63;-0.84;0.7;288.0;-0.215436;-0.048173
4.08;9.25;2.5;9.25;2.0;0.75;0.0;0.25;0.0;1.75;0.0;0.0;0.0;0.0;2.75;0.0;0.0;-0.222168;0.01123;0.981934;-0.7;0.42;0.49;330.0;-0.222208;0.075222;4.25;5.75;4.25;4.25;1.0;0.75;0.0;0.25;0.5;0.5;1.0;0.5;0.0;1.75;0.5;0.25;-0.250977;0.030273;0.974609;-0.63;-0.77;0.7;287.0;-0.202867;-0.046303
4.09;9.5;2.5;9.25;2.0;0.75;0.0;0.25;0.0;1.75;0.0;0.0;0.0;0.0;2.5;0.0;0.0;-0.231445;0.013184;0.984375;-0.7;0.49;0.49;331.0;-0.22821;0.074791;4.0;5.75;4.25;4.0;1.0;0.75;0.0;0.25;0.5;0.5;1.0;0.25;0.0;1.75;0.5;0.5;-0.25293;0.024414;0.969727;-0.56;-0.84;0.77;280.0;-0.201194;-0.044807
4.1;9.25;2.5;9.0;1.75;0.75;0.0;0.25;0.0;2.0;0.0;0.0;0.0;0.0;2.75;0.25;0.0;-0.232422;0.019043;0.976074;-0.7;0.42;0.56;331.0;-0.210582;0.078602;3.75;5.5;4.5;3.75;1.0;0.75;0.0;0.25;0.5;0.25;1.0;0.5;0.0;1.75;0.5;0.0;-0.25;0.027832;0.976562;-0.7;-0.84;0.63;272.0;-0.203252;-0.04266
4.11;9.25;2.5;9.0;1.75;0.75;0.0;0.25;0.0;2.25;0.0;0.0;0.0;0.0;2.75;0.25;0.0;-0.226074;0.013672;0.990234;-0.84;0.35;0.49;334.0;-0.205586;0.080696;4.0;5.25;4.25;3.75;0.75;1.0;0.0;0.25;0.5;0.25;1.0;0.5;0.25;1.75;0.25;0.0;-0.249512;0.030273;0.966797;-0.7;-0.77;0.7;269.0;-0.206206;-0.048364
4.12;9.25;2.5;9.0;1.75;0.75;0.0;0.25;0.0;2.0;0.0;0.0;0.0;0.0;2.75;0.0;0.0;-0.22998;0.015137;0.989746;-0.84;0.49;0.49;328.0;-0.215987;0.080007;3.75;5.25;4.25;3.75;0.75;1.0;0.0;0.25;0.5;0.5;1.25;0.5;0.25;1.75;0.25;0.25;-0.249512;0.024414;0.975586;-0.7;-0.77;0.7;273.0;-0.191916;-0.05097
4.13;9.25;2.5;9.0;1.75;1.0;0.0;0.25;0.0;2.0;0.0;0.0;0.0;0.0;2.75;0.25;0.0;-0.22998;0.01123;0.984863;-0.77;0.42;0.42;334.0;-0.209815;0.078448;4.0;5.5;4.5;4.0;0.75;0.75;0.0;0.25;0.5;0.25;1.0;0.5;0.25;1.75;0.5;0.25;-0.250977;0.024902;0.971191;-0.77;-0.91;0.7;279.0;-0.200884;-0.049182
4.14;9.25;2.5;9.0;1.75;0.75;0.0;0.25;0.0;2.0;0.0;0.0;0.0;0.0;2.75;0.0;0.0;-0.231445;0.015137;0.984375;-0.7;0.42;0.49;328.0;-0.215987;0.080007;3.75;5.5;4.5;3.75;1.0;0.75;0.0;0.25;0.5;0.25;1.0;0.75;0.25;1.75;0.5;0.25;-0.247559;0.025879;0.970703;-0.63;-0.77;0.84;279.0;-0.192846;-0.050255
4.15;9.25;2.75;9.25;1.75;0.75;0.0;0.25;0.0;1.75;0.25;0.0;0.0;0.0;2.75;0.0;0.0;-0.229492;0.014648;0.986816;-0.7;0.56;0.49;333.0;-0.219139;0.076001;3.75;5.5;4.5;3.75;0.75;0.75;0.0;0.25;0.5;0.5;0.5;0.5;0.25;1.75;0.5;0.0;-0.257324;0.021973;0.97168;-0.77;-0.91;0.7;268.0;-0.205301;-0.044808
4.16;9.25;2.5;9.25;1.75;0.75;0.0;0.25;0.0;2.0;0.0;0.25;0.0;0.0;2.75;0.25;0.0;-0.225586;0.01123;0.989746;-0.7;0.42;0.42;337.0;-0.207371;0.077046;3.75;5.5;4.5;3.75;0.75;0.75;0.0;0.25;0.5;0.25;0.75;0.5;0.25;1.75;0.75;0.0;-0.247559;0.026855;0.970215;-0.77;-0.84;0.7;271.0;-0.19895;-0.047091
