Time;left pressure 1[N/cm²];left pressure 2[N/cm²];left pressure 3[N/cm²];left pressure 4[N/cm²];left pressure 5[N/cm²];left pressure 6[N/cm²];left pressure 7[N/cm²];left pressure 8[N/cm²];left pressure 9[N/cm²];left pressure 10[N/cm²];left pressure 11[N/cm²];left pressure 12[N/cm²];left pressure 13[N/cm²];left pressure 14[N/cm²];left pressure 15[N/cm²];left pressure 16[N/cm²];left acceleration X[g];left acceleration Y[g];left acceleration Z[g];left angular X[dps];left angular Y[dps];left angular Z[dps];left total force[N];left center of pressure X[-0.5...+0.5];left center of pressure Y[-0.5...+0.5];right pressure 1[N/cm²];right pressure 2[N/cm²];right pressure 3[N/cm²];right pressure 4[N/cm²];right pressure 5[N/cm²];right pressure 6[N/cm²];right pressure 7[N/cm²];right pressure 8[N/cm²];right pressure 9[N/cm²];right pressure 10[N/cm²];right pressure 11[N/cm²];right pressure 12[N/cm²];right pressure 13[N/cm²];right pressure 14[N/cm²];right pressure 15[N/cm²];right pressure 16[N/cm²];right acceleration X[g];right acceleration Y[g];right acceleration Z[g];right angular X[dps];right angular Y[dps];right angular Z[dps];right total force[N];right center of pressure X[-0.5...+0.5];right center of pressure Y[-0.5...+0.5]
0.0;2.25;1.25;2.75;2.5;2.75;3.0;0.25;1.25;0.75;0.75;0.5;0.5;0.5;3.0;0.0;0.5;-0.182129;0.020508;1.000488;-0.42;1.33;0.49;261.0;-0.083677;-0.057264;0.75;2.5;1.5;3.25;3.0;7.25;0.0;4.25;0.0;0.5;0.5;0.75;1.5;1.5;0.25;0.25;-0.210938;0.03418;0.993164;-0.77;-1.33;0.35;336.0;-0.101623;-0.199321
0.01;2.0;1.5;2.5;2.75;2.5;3.0;0.25;1.25;0.75;0.75;0.25;0.5;0.5;2.5;0.0;0.5;-0.184082;0.025879;1.000488;-0.63;1.12;0.56;251.0;-0.095876;-0.069127;0.75;2.75;1.75;3.75;3.0;7.25;0.0;4.25;0.0;0.5;0.5;0.75;1.5;1.5;0.25;0.25;-0.208496;0.033203;0.992676;-0.77;-1.05;0.35;348.0;-0.108545;-0.196992
0.02;1.75;1.25;2.75;2.25;2.5;3.0;0.25;1.25;0.75;0.5;0.25;0.5;0.5;2.5;0.25;0.5;-0.186035;0.021973;0.99707;-0.63;1.12;0.49;242.0;-0.084335;-0.066062;0.75;2.5;1.75;3.25;3.0;7.25;0.0;4.25;0.0;0.25;0.5;1.0;1.5;1.25;0.0;0.5;-0.210938;0.037598;0.983398;-0.77;-0.91;0.35;336.0;-0.109212;-0.203854
0.03;1.5;1.25;2.5;2.25;2.25;3.0;0.25;1.25;1.0;0.5;0.25;0.5;0.5;2.75;0.0;0.25;-0.184082;0.022949;0.999023;-0.77;0.77;0.42;235.0;-0.07633;-0.062467;0.75;2.5;1.5;3.0;3.25;7.0;0.0;4.25;0.0;0.25;0.75;1.0;1.5;1.0;0.0;0.25;-0.209473;0.032715;0.986816;-0.7;-0.91;0.42;329.0;-0.108777;-0.204773
0.04;1.75;1.0;2.5;2.5;2.25;2.75;0.25;1.25;0.75;0.75;0.25;0.5;0.25;3.0;0.0;0.0;-0.1875;0.022461;1.001953;-0.84;0.56;0.42;233.0;-0.079994;-0.054278;0.25;2.5;1.5;3.0;2.75;6.75;0.0;4.25;0.25;0.25;0.5;1.0;1.5;1.0;0.25;0.25;-0.215332;0.034668;0.994141;-0.77;-0.56;0.42;318.0;-0.097063;-0.209043
0.05;1.75;1.0;2.25;1.75;2.25;2.75;0.25;1.25;0.5;1.0;0.25;0.5;0.25;3.0;0.0;0.25;-0.180176;0.026367;0.994141;-0.98;0.35;0.35;222.0;-0.067404;-0.054849;0.25;2.25;1.5;3.0;2.75;6.75;0.0;4.25;0.0;0.25;0.5;1.0;1.5;1.0;0.25;0.25;-0.20752;0.032715;0.984375;-0.7;-0.35;0.42;312.0;-0.098535;-0.214936
0.06;1.75;1.0;2.5;2.0;2.5;2.75;0.25;1.25;0.75;0.75;0.0;0.5;0.5;2.75;0.0;0.25;-0.182617;0.027344;0.989746;-1.05;0.14;0.35;229.0;-0.078554;-0.055744;0.5;2.25;1.5;3.0;2.75;6.75;0.0;4.25;0.25;0.25;0.5;1.0;1.5;1.5;0.25;0.25;-0.210938;0.03418;0.989258;-0.63;-0.21;0.49;323.0;-0.089919;-0.201032
0.07;1.5;1.0;2.5;2.0;2.5;2.75;0.25;1.0;1.0;0.75;0.0;0.5;0.5;3.0;0.0;0.25;-0.175293;0.020996;0.992188;-0.98;-0.0;0.28;228.0;-0.065461;-0.044078;0.5;2.25;1.5;3.0;2.75;6.75;0.0;4.25;0.0;0.5;0.5;0.75;1.5;1.5;0.25;0.25;-0.208984;0.03418;0.984375;-0.56;-0.14;0.49;319.0;-0.093551;-0.203152
0.08;2.0;1.25;2.75;2.25;2.75;2.75;0.25;1.0;0.75;0.75;0.25;0.5;0.5;3.0;0.0;0.25;-0.180664;0.027832;0.996094;-0.98;0.21;0.35;244.0;-0.084173;-0.046558;0.25;2.25;1.5;3.0;2.75;6.75;0.0;4.25;0.0;0.25;0.25;0.75;1.5;1.25;0.25;0.25;-0.212891;0.037598;0.984863;-0.63;-0.07;0.56;308.0;-0.100565;-0.212151
0.09;1.75;1.25;2.75;2.25;2.75;3.0;0.25;1.25;1.0;0.5;0.25;0.75;0.25;3.25;0.25;0.25;-0.178711;0.023926;0.999512;-0.91;0.07;0.35;255.0;-0.068077;-0.050633;0.25;2.25;1.5;3.0;2.75;6.75;0.0;4.25;0.0;0.5;0.5;0.5;1.5;1.25;0.25;0.25;-0.213379;0.034668;0.989258;-0.63;-0.14;0.56;311.0;-0.097309;-0.207979
0.1;1.5;1.0;2.75;2.25;2.75;3.0;0.25;1.25;0.75;0.5;0.25;0.75;0.25;3.25;0.25;0.25;-0.183105;0.026855;0.995605;-0.77;0.14;0.42;246.0;-0.065369;-0.056008;0.25;2.0;1.5;3.0;2.75;6.75;0.0;4.25;0.0;0.25;0.25;0.5;1.75;1.25;0.25;0.25;-0.211914;0.035645;0.990723;-0.63;-0.42;0.56;305.0;-0.098789;-0.213675
0.11;1.75;1.0;2.75;2.0;2.75;3.0;0.25;1.25;1.0;0.75;0.25;0.5;0.5;3.5;0.0;0.25;-0.178223;0.026367;0.995605;-0.63;0.35;0.35;251.0;-0.060397;-0.044669;0.0;2.25;1.25;2.75;2.75;6.75;0.0;4.25;0.0;0.25;0.25;0.75;1.75;1.5;0.25;0.25;-0.210938;0.036133;0.987305;-0.77;-0.56;0.56;304.0;-0.088241;-0.216993
0.12;1.75;1.25;2.75;2.0;2.75;3.0;0.25;1.25;1.25;0.75;0.25;0.5;0.5;3.5;0.0;0.25;-0.179199;0.026367;1.001953;-0.63;0.49;0.49;257.0;-0.059484;-0.041424;0.0;2.0;1.5;2.75;2.5;6.5;0.0;4.0;0.0;0.25;0.5;0.5;1.5;1.5;0.25;0.25;-0.206543;0.037598;0.986328;-0.77;-0.77;0.63;292.0;-0.089238;-0.210298
0.13;2.0;1.0;2.5;2.25;2.75;3.0;0.25;1.25;1.25;0.75;0.25;0.75;0.5;3.5;0.25;0.5;-0.179688;0.025879;0.999512;-0.42;0.42;0.42;265.0;-0.049646;-0.046946;0.25;1.75;1.5;2.25;2.5;6.5;0.0;4.0;0.0;0.25;0.5;0.75;1.75;1.75;0.25;0.25;-0.211426;0.032227;0.986328;-0.91;-1.12;0.63;294.0;-0.076455;-0.207089
0.14;1.75;0.75;2.5;1.75;2.75;3.0;0.25;1.25;1.0;0.75;0.25;0.75;0.5;3.25;0.25;0.25;-0.183594;0.026855;0.995605;-0.56;0.77;0.42;246.0;-0.047302;-0.048364;0.25;2.0;1.5;2.75;2.75;7.0;0.0;4.25;0.0;0.25;0.5;1.0;1.5;1.75;0.25;0.25;-0.215332;0.036133;0.987793;-1.12;-1.26;0.63;316.0;-0.08345;-0.20713
0.15;1.5;1.25;2.75;1.75;2.75;3.0;0.25;1.25;1.0;0.75;0.5;0.5;0.5;3.75;0.0;0.25;-0.181152;0.026855;0.998535;-0.42;0.98;0.42;253.0;-0.049845;-0.044225;0.25;2.0;1.5;2.75;2.75;6.75;0.0;4.25;0.25;0.0;0.5;0.75;1.5;1.75;0.5;0.25;-0.208496;0.032227;0.993652;-1.05;-1.4;0.49;314.0;-0.080053;-0.201527
0.16;1.5;1.0;2.75;1.75;2.75;2.75;0.25;1.25;1.25;1.0;0.5;0.5;0.5;3.75;0.0;0.5;-0.188477;0.029785;0.99707;-0.42;1.05;0.42;255.0;-0.03514;-0.036259;0.0;2.25;1.25;2.75;2.75;6.75;0.0;4.25;0.25;0.0;0.75;0.5;1.5;1.75;0.25;0.25;-0.208496;0.035645;0.987793;-1.12;-1.4;0.49;308.0;-0.082401;-0.206415
0.17;1.75;0.75;2.25;1.75;2.75;2.5;0.25;1.25;1.25;0.75;0.25;0.5;0.75;3.75;0.25;0.25;-0.179688;0.026367;0.998047;-0.35;1.19;0.49;245.0;-0.029786;-0.03668;0.25;2.25;1.25;2.75;2.75;6.75;0.0;4.25;0.25;0.25;0.75;0.75;1.5;2.0;0.25;0.25;-0.209961;0.037109;0.993652;-1.05;-1.4;0.35;318.0;-0.07613;-0.199207
0.18;1.25;0.75;2.5;1.75;2.5;2.75;0.25;1.25;1.0;0.75;0.25;0.5;0.5;3.75;0.0;0.0;-0.179199;0.026367;0.995605;-0.49;0.98;0.42;232.0;-0.038451;-0.041026;0.25;2.25;1.25;3.0;2.75;6.75;0.0;4.25;0.0;0.0;0.5;0.75;1.5;2.0;0.5;0.25;-0.209961;0.03418;0.983398;-1.05;-1.26;0.42;315.0;-0.083112;-0.206892
0.19;1.0;0.75;2.5;1.75;2.5;2.75;0.25;1.25;1.25;0.75;0.25;0.5;0.25;4.0;0.0;0.25;-0.183594;0.020508;0.995117;-0.42;0.91;0.42;234.0;-0.024632;-0.033342;0.25;2.25;1.5;2.75;2.75;6.75;0.0;4.25;0.0;0.25;0.5;0.75;1.5;1.75;0.25;0.25;-0.213867;0.036133;0.989746;-0.98;-1.19;0.42;313.0;-0.088169;-0.205365
0.2;1.25;0.75;2.5;1.75;2.75;2.75;0.25;1.25;1.25;0.75;0.0;0.5;0.25;4.0;0.25;0.25;-0.189453;0.021484;0.995605;-0.49;1.12;0.42;240.0;-0.028176;-0.030079;0.25;2.25;1.5;2.75;2.75;6.75;0.0;4.25;0.0;0.25;0.5;0.5;1.5;1.75;0.25;0.25;-0.208496;0.033691;0.991211;-0.91;-1.05;0.42;310.0;-0.090926;-0.204532
0.21;1.5;0.75;2.25;1.75;2.5;2.5;0.25;1.25;1.25;0.75;0.25;0.5;0.25;3.75;0.25;0.25;-0.184082;0.024902;0.99707;-0.56;0.91;0.35;234.0;-0.028063;-0.03115;0.25;2.0;1.5;2.75;3.0;7.0;0.0;4.25;0.25;0.25;0.5;0.75;1.5;2.0;0.25;0.25;-0.210938;0.033203;0.98584;-1.05;-1.05;0.28;322.0;-0.079102;-0.195727
0.22;1.5;0.75;2.25;1.75;2.25;2.5;0.25;1.25;1.5;0.75;0.25;0.5;0.5;3.75;0.25;0.25;-0.179199;0.025391;0.999023;-0.63;0.56;0.42;237.0;-0.020581;-0.031987;0.0;2.0;1.5;2.75;3.0;6.75;0.0;4.25;0.25;0.25;0.5;0.75;1.5;2.25;0.0;0.25;-0.210449;0.03125;0.987793;-1.05;-0.77;0.35;316.0;-0.076313;-0.196013
0.23;1.5;0.75;1.75;1.5;2.25;2.75;0.25;1.25;1.0;0.75;0.0;0.5;0.25;3.75;0.0;0.25;-0.178711;0.030273;0.999023;-0.7;0.56;0.42;216.0;-0.031975;-0.039744;0.25;2.0;1.5;2.5;2.75;6.5;0.0;4.25;0.25;0.25;0.5;0.75;1.5;2.25;0.25;0.25;-0.213379;0.035645;0.988281;-0.98;-0.7;0.42;313.0;-0.071614;-0.193673
0.24;1.0;0.75;2.25;1.5;2.5;2.75;0.0;1.25;1.25;0.75;0.25;0.5;0.25;3.75;0.0;0.25;-0.184082;0.021484;0.994629;-0.56;0.63;0.42;222.0;-0.024293;-0.039779;0.25;2.25;1.25;2.75;2.75;6.25;0.0;4.0;0.25;0.0;0.5;0.75;1.5;2.0;0.25;0.25;-0.211914;0.033691;0.993652;-0.98;-0.42;0.42;303.0;-0.08134;-0.198366
0.25;1.5;0.75;2.25;1.75;2.5;2.75;0.25;1.25;1.25;0.75;0.25;0.75;0.5;3.75;0.25;0.0;-0.180664;0.024902;0.995117;-0.56;0.35;0.35;241.0;-0.027225;-0.03977;0.25;2.0;1.25;2.75;2.75;6.25;0.0;4.0;0.25;0.25;0.5;1.0;1.5;1.75;0.25;0.25;-0.209961;0.037109;0.986816;-0.84;-0.42;0.49;304.0;-0.076572;-0.19997
0.26;1.75;0.75;2.5;1.5;2.75;2.5;0.25;1.0;1.25;0.75;0.25;0.25;0.25;3.75;0.25;0.25;-0.180664;0.021973;0.988281;-0.56;0.21;0.42;233.0;-0.036841;-0.014472;0.25;2.0;1.25;2.25;2.75;6.5;0.0;4.25;0.0;0.25;0.5;1.0;1.5;1.75;0.25;0.25;-0.208984;0.032227;0.992188;-0.77;-0.35;0.49;301.0;-0.076183;-0.208479
0.27;1.5;0.75;2.5;1.75;2.75;2.5;0.25;1.25;1.5;1.0;0.25;0.25;0.25;3.75;0.0;0.0;-0.175781;0.026855;1.002441;-0.7;0.28;0.35;239.0;-0.03533;-0.017221;0.25;2.0;1.5;2.25;2.5;6.5;0.0;4.0;0.0;0.0;0.5;1.0;1.5;1.75;0.25;0.25;-0.21582;0.030273;0.990723;-0.91;-0.35;0.56;294.0;-0.08161;-0.208179
0.28;1.5;0.75;2.5;1.75;2.75;2.5;0.0;1.25;1.5;1.0;0.25;0.25;0.5;3.75;0.0;0.0;-0.178711;0.024902;0.994141;-0.63;0.28;0.35;238.0;-0.035305;-0.026126;0.0;2.25;1.25;2.25;2.5;6.75;0.0;4.0;0.25;0.0;0.5;1.0;1.5;1.75;0.25;0.25;-0.209473;0.038086;0.987793;-0.77;-0.56;0.56;297.0;-0.076146;-0.208733
0.29;1.5;1.0;2.5;1.75;2.75;2.75;0.25;1.25;1.25;0.75;0.0;0.25;0.5;4.0;0.25;0.25;-0.181641;0.023438;0.995117;-0.7;0.21;0.35;245.0;-0.037394;-0.030897;0.25;1.75;1.25;2.5;2.75;6.5;0.0;4.0;0.25;0.25;0.75;1.0;1.5;2.0;0.0;0.25;-0.213867;0.033691;0.982422;-0.77;-0.77;0.56;303.0;-0.070383;-0.19815
0.3;1.75;0.75;2.5;1.75;2.75;2.5;0.25;1.25;1.25;0.75;0.25;0.25;0.75;4.0;0.0;0.25;-0.183105;0.023438;0.998047;-0.56;0.28;0.49;244.0;-0.036464;-0.029482;0.25;1.75;1.25;2.25;2.75;6.25;0.0;4.25;0.25;0.25;0.75;1.0;1.5;2.0;0.0;0.25;-0.210938;0.029297;0.990234;-0.77;-0.63;0.63;302.0;-0.066615;-0.199821
0.31;1.75;0.75;2.5;1.75;2.75;2.75;0.25;1.25;1.25;0.75;0.25;0.25;0.5;4.0;0.0;0.25;-0.183105;0.023926;0.996094;-0.56;0.35;0.49;245.0;-0.03985;-0.028284;0.0;1.75;1.25;2.75;2.75;6.5;0.0;4.25;0.0;0.25;0.75;0.75;1.5;2.0;0.25;0.25;-0.212402;0.036133;0.982422;-0.7;-0.7;0.56;304.0;-0.070609;-0.207468
0.32;1.75;0.75;2.5;1.75;2.75;2.75;0.25;1.25;1.25;1.0;0.25;0.5;0.5;4.0;0.25;0.25;-0.17627;0.024414;0.996582;-0.63;0.56;0.49;254.0;-0.028829;-0.0309;0.25;2.0;1.25;2.5;2.75;6.5;0.0;4.25;0.0;0.25;0.75;0.5;1.5;1.75;0.0;0.25;-0.20752;0.032715;0.994141;-0.84;-0.91;0.56;298.0;-0.085556;-0.207299
0.33;1.75;0.75;2.25;1.75;2.75;2.75;0.25;1.25;1.5;1.25;0.5;0.25;0.5;3.75;0.25;0.25;-0.176758;0.027832;0.998535;-0.56;0.49;0.49;255.0;-0.022825;-0.026852;0.25;1.75;1.25;2.25;2.75;6.75;0.0;4.25;0.25;0.25;0.75;0.75;1.5;2.25;0.25;0.25;-0.212402;0.032227;0.991211;-0.7;-0.77;0.49;310.0;-0.062835;-0.196423
0.34;1.5;0.75;2.25;1.75;2.75;2.75;0.25;1.25;1.5;1.25;0.25;0.25;0.5;4.0;0.0;0.25;-0.177246;0.027344;1.000977;-0.63;0.56;0.56;248.0;-0.022256;-0.024822;0.25;2.0;1.25;2.5;2.75;6.5;0.0;4.0;0.25;0.25;0.75;1.0;1.75;2.25;0.25;0.25;-0.208984;0.034668;0.989258;-0.84;-0.77;0.56;313.0;-0.063414;-0.196031
0.35;1.5;0.75;2.5;1.75;2.75;2.75;0.25;1.25;1.0;1.0;0.25;0.25;0.5;4.0;0.0;0.25;-0.179199;0.026367;0.997559;-0.77;0.77;0.42;241.0;-0.036679;-0.03329;0.25;1.75;1.25;2.5;2.75;6.5;0.0;4.0;0.25;0.25;0.75;1.25;1.5;2.25;0.25;0.5;-0.213379;0.03125;0.987305;-0.7;-0.84;0.49;313.0;-0.057816;-0.195738
0.36;1.5;0.75;2.25;1.75;2.75;2.75;0.25;1.25;1.5;1.0;0.5;0.25;0.5;4.0;0.0;0.25;-0.177734;0.022461;1.001465;-0.63;0.77;0.49;248.0;-0.022404;-0.026886;0.25;1.75;1.25;2.25;2.5;6.5;0.0;4.25;0.0;0.0;0.75;1.0;1.5;2.0;0.25;0.25;-0.217773;0.036133;0.98584;-0.7;-0.91;0.42;298.0;-0.069122;-0.210255
0.37;1.75;0.75;2.5;1.75;2.75;2.5;0.25;1.25;1.5;1.25;0.5;0.25;0.5;4.0;0.0;0.25;-0.179199;0.019043;0.995605;-0.63;0.77;0.63;254.0;-0.025102;-0.020085;0.25;1.5;1.5;2.25;2.5;6.5;0.0;4.25;0.0;0.0;0.75;0.5;1.5;2.25;0.25;0.25;-0.20752;0.028809;0.98877;-0.7;-0.84;0.49;295.0;-0.069812;-0.202829
0.38;1.5;0.75;2.25;1.75;2.75;2.5;0.25;1.25;1.5;1.0;0.25;0.5;0.5;3.75;0.25;0.5;-0.180176;0.028809;1.001465;-0.77;0.63;0.63;247.0;-0.017841;-0.030308;0.25;1.75;1.25;2.25;2.75;6.5;0.0;4.25;0.0;0.25;0.75;0.75;1.75;2.25;0.5;0.5;-0.208496;0.039062;0.991699;-0.7;-0.77;0.42;310.0;-0.057521;-0.20264
0.39;1.25;0.75;2.25;1.75;2.75;2.75;0.25;1.25;1.0;0.75;0.25;0.5;0.5;4.0;0.25;0.25;-0.179688;0.020996;0.992188;-0.7;0.63;0.56;238.0;-0.024405;-0.041463;0.25;2.0;1.25;2.25;2.75;6.75;0.0;4.25;0.25;0.25;0.25;0.25;1.5;2.0;0.25;0.25;-0.20752;0.036621;0.990723;-0.63;-0.98;0.42;298.0;-0.08029;-0.198715
0.4;1.5;0.75;2.25;1.5;2.75;2.5;0.25;1.0;1.0;0.75;0.25;0.25;0.5;3.75;0.25;0.0;-0.188477;0.022949;0.995117;-0.77;0.49;0.63;224.0;-0.03424;-0.024756;0.25;2.0;1.5;2.75;2.75;6.25;0.0;4.25;0.0;0.25;0.25;0.25;1.5;2.0;0.25;0.25;-0.211914;0.035156;0.991699;-0.63;-0.84;0.56;298.0;-0.08896;-0.200491
0.41;1.5;0.75;2.25;1.75;2.75;2.5;0.25;1.0;1.25;0.75;0.25;0.5;0.5;3.75;0.0;0.0;-0.178711;0.025879;0.999512;-0.77;0.77;0.63;231.0;-0.035489;-0.025392;0.25;1.75;1.5;2.5;2.75;6.5;0.0;4.25;0.0;0.25;0.25;0.5;1.5;2.0;0.0;0.25;-0.216797;0.034668;0.988281;-0.63;-0.84;0.56;295.0;-0.086706;-0.203333
0.42;1.5;0.75;2.25;1.75;2.75;2.5;0.25;1.0;1.25;0.75;0.5;0.25;0.5;4.0;0.25;0.25;-0.186035;0.029297;0.997559;-0.7;0.77;0.49;238.0;-0.023108;-0.0237;0.25;1.75;1.25;2.25;2.75;6.25;0.0;4.0;0.0;0.0;0.5;0.25;1.5;1.75;0.0;0.25;-0.209961;0.033203;0.98877;-0.56;-0.98;0.42;277.0;-0.09036;-0.206818
0.43;1.5;0.75;2.5;1.75;2.75;2.5;0.25;1.25;1.25;0.75;0.5;0.25;0.5;3.75;0.25;0.25;-0.18457;0.023926;0.991699;-0.84;0.84;0.49;243.0;-0.030142;-0.030525;0.0;2.0;1.25;2.5;2.75;6.25;0.0;4.0;0.0;0.0;0.75;0.25;1.5;1.75;0.0;0.0;-0.206055;0.030762;0.986328;-0.56;-1.12;0.56;281.0;-0.091395;-0.208338
0.44;1.5;0.75;2.25;1.75;2.5;2.5;0.25;1.25;1.5;1.0;0.5;0.25;0.5;3.75;0.0;0.25;-0.181152;0.022949;0.989746;-0.63;0.63;0.63;240.0;-0.023719;-0.026919;0.0;1.75;1.25;2.25;2.5;6.5;0.0;4.25;0.0;0.25;0.75;0.25;1.5;1.5;0.0;0.25;-0.208984;0.027832;0.994141;-0.63;-1.12;0.49;282.0;-0.083945;-0.215786
0.45;1.5;0.75;2.0;1.5;2.5;2.5;0.25;1.25;1.25;1.0;0.25;0.5;0.5;3.75;0.0;0.25;-0.178223;0.021973;0.997559;-0.63;0.7;0.63;230.0;-0.021633;-0.032814;0.25;1.75;1.25;2.25;2.75;6.5;0.0;4.25;0.0;0.25;0.5;0.25;1.75;1.75;0.25;0.25;-0.208984;0.038086;0.989746;-0.7;-1.12;0.49;292.0;-0.079683;-0.208327
0.46;1.5;1.0;2.25;1.75;2.5;2.5;0.25;1.0;1.25;1.0;0.25;0.5;0.5;3.75;0.0;0.25;-0.179688;0.021973;0.992676;-0.7;0.77;0.49;235.0;-0.032599;-0.028748;0.25;2.0;1.25;2.75;2.75;6.75;0.0;4.25;0.0;0.25;0.5;0.5;1.75;2.0;0.25;0.25;-0.210449;0.032715;0.988281;-0.7;-1.26;0.42;309.0;-0.080778;-0.206836
0.47;1.5;0.75;2.25;1.5;2.75;2.5;0.25;1.0;1.5;0.75;0.25;0.5;0.25;3.75;0.0;0.25;-0.183105;0.023926;0.996094;-0.63;0.63;0.63;231.0;-0.027245;-0.015553;0.25;2.0;1.5;2.5;2.75;6.5;0.0;4.25;0.25;0.25;0.75;0.75;1.75;1.75;0.5;0.25;-0.213379;0.036621;0.986816;-0.7;-1.33;0.56;316.0;-0.069892;-0.199411
0.48;1.5;0.75;2.5;1.5;2.5;2.5;0.25;1.0;1.0;0.75;0.25;0.25;0.25;3.75;0.25;0.25;-0.182617;0.020508;0.991211;-0.7;0.63;0.56;224.0;-0.03571;-0.02167;0.25;2.25;1.25;2.5;2.75;6.75;0.0;4.25;0.25;0.25;0.5;0.25;1.5;1.5;0.25;0.25;-0.213379;0.030762;0.98584;-0.63;-1.33;0.49;302.0;-0.089826;-0.203701
0.49;1.5;0.75;2.25;1.75;2.5;2.5;0.25;1.0;1.0;0.75;0.25;0.25;0.5;3.75;0.0;0.25;-0.179199;0.026855;0.997559;-0.77;0.7;0.49;223.0;-0.039483;-0.029786;0.25;2.25;1.25;2.75;2.75;6.75;0.0;4.25;0.0;0.25;0.25;0.5;1.75;2.0;0.25;0.0;-0.213867;0.040527;0.985352;-0.77;-1.12;0.42;307.0;-0.088515;-0.206836
0.5;1.5;0.75;2.5;1.75;2.5;2.5;0.25;1.0;1.0;0.75;0.25;0.5;0.5;3.75;0.0;0.25;-0.189453;0.025879;0.998535;-0.63;0.84;0.49;229.0;-0.039378;-0.031547;0.25;2.0;1.5;2.75;3.0;6.75;0.0;4.25;0.0;0.25;0.5;0.75;1.5;2.0;0.0;0.0;-0.209961;0.030762;0.985352;-0.7;-1.19;0.56;311.0;-0.088831;-0.200877
0.51;1.25;0.75;2.25;1.5;2.5;2.5;0.25;1.0;1.25;0.75;0.25;0.25;0.5;4.0;0.25;0.25;-0.183594;0.022949;0.996094;-0.77;0.84;0.49;226.0;-0.016638;-0.022653;0.25;1.75;1.5;2.75;2.75;6.75;0.0;4.25;0.0;0.25;0.5;0.75;1.75;1.25;0.0;0.25;-0.215332;0.039062;0.990234;-0.7;-1.33;0.56;303.0;-0.093074;-0.215054
0.52;1.5;0.75;2.25;1.5;2.5;2.25;0.25;1.0;1.0;0.75;0.25;0.25;0.25;4.0;0.25;0.0;-0.183105;0.026855;0.996582;-0.91;0.91;0.42;218.0;-0.02883;-0.015698;0.25;2.25;1.5;2.75;2.75;6.75;0.0;4.25;0.0;0.25;0.5;0.75;1.5;1.0;0.25;0.0;-0.209961;0.033691;0.98877;-0.63;-1.4;0.63;304.0;-0.101811;-0.213602
0.53;1.5;0.75;2.25;1.5;2.75;2.5;0.25;1.0;1.25;1.0;0.5;0.25;0.25;4.0;0.25;0.25;-0.178711;0.020996;0.992676;-0.7;0.63;0.63;235.0;-0.01848;-0.015691;0.25;1.75;1.75;2.75;3.0;7.25;0.0;4.25;0.0;0.25;0.75;0.75;1.5;1.25;0.25;0.25;-0.209961;0.035645;0.989746;-0.7;-1.33;0.56;318.0;-0.0907;-0.206693
0.54;1.5;0.75;2.25;1.5;2.75;2.5;0.25;1.0;1.0;0.75;0.5;0.5;0.25;3.75;0.25;0.25;-0.18457;0.02002;0.997559;-0.7;0.77;0.49;229.0;-0.027495;-0.026679;0.25;2.25;1.5;2.75;2.75;6.75;0.0;4.25;0.0;0.25;0.25;0.75;1.5;1.25;0.0;0.25;-0.213867;0.037598;0.991211;-0.84;-1.33;0.49;302.0;-0.103528;-0.213256
0.55;1.25;0.75;2.25;1.75;2.75;2.5;0.25;1.0;1.25;0.75;0.0;0.5;0.25;4.0;0.0;0.25;-0.183105;0.022949;0.996094;-0.63;0.7;0.49;227.0;-0.029158;-0.0212;0.5;2.25;1.25;2.5;2.75;6.75;0.0;4.25;0.0;0.0;0.25;0.75;1.5;1.25;0.0;0.0;-0.208984;0.035645;0.991211;-0.84;-1.33;0.56;295.0;-0.108502;-0.215347
0.56;1.5;0.75;2.25;1.75;2.5;2.5;0.25;1.0;1.0;1.0;0.0;0.25;0.5;4.0;0.0;0.25;-0.182617;0.020508;0.996094;-0.77;0.77;0.49;225.0;-0.034662;-0.025374;0.25;2.5;1.5;3.0;3.0;7.0;0.0;4.25;0.0;0.25;0.25;1.0;1.75;1.0;0.0;0.0;-0.212891;0.03418;0.990234;-0.91;-1.4;0.49;315.0;-0.109534;-0.215951
0.57;1.5;0.75;2.0;1.5;2.5;2.0;0.25;1.0;1.5;0.75;0.25;0.0;0.75;4.5;0.0;0.25;-0.181641;0.023438;0.990234;-0.56;0.63;0.42;225.0;-0.007658;-0.007355;0.25;2.0;1.5;3.25;2.75;6.75;0.0;4.25;0.0;0.25;0.25;0.5;1.5;1.0;0.0;0.25;-0.213379;0.031738;0.990234;-0.84;-1.4;0.56;301.0;-0.111548;-0.216117
0.58;1.5;1.0;2.25;1.5;2.75;2.5;0.25;1.25;1.5;0.75;0.0;0.25;0.5;4.25;0.0;0.25;-0.178223;0.024902;0.998047;-0.63;0.56;0.63;239.0;-0.02647;-0.019761;0.25;2.0;1.25;2.75;3.0;6.75;0.0;4.25;0.0;0.25;0.25;0.25;1.5;1.5;0.25;0.0;-0.214844;0.032227;0.995605;-0.91;-1.47;0.42;298.0;-0.098837;-0.207602
0.59;1.25;0.75;2.25;1.5;2.75;2.25;0.25;1.25;1.25;0.75;0.25;0.25;0.25;4.0;0.0;0.25;-0.177246;0.023926;0.996582;-0.56;0.56;0.49;225.0;-0.02357;-0.019702;0.25;2.25;1.25;3.25;3.25;7.0;0.0;4.25;0.0;0.0;0.0;0.5;1.5;1.5;0.25;0.0;-0.213379;0.036621;0.987305;-0.84;-1.4;0.49;309.0;-0.109108;-0.209775
0.6;1.5;0.75;2.25;1.5;2.5;2.25;0.25;1.0;1.0;0.75;0.25;0.25;0.5;4.0;0.0;0.25;-0.175293;0.023438;0.990723;-0.56;0.77;0.56;219.0;-0.029779;-0.021628;0.25;2.5;1.5;3.25;3.25;7.0;0.0;4.25;0.0;0.0;0.0;0.25;1.5;1.25;0.0;0.0;-0.208496;0.035156;0.984375;-0.77;-1.26;0.49;307.0;-0.124941;-0.209765
0.61;1.75;0.75;2.0;1.5;2.25;2.5;0.25;1.0;1.5;0.75;0.25;0.5;0.25;3.75;0.0;0.5;-0.181641;0.021484;0.994141;-0.63;0.77;0.49;226.0;-0.023596;-0.019406;0.25;2.25;1.5;3.25;3.25;7.25;0.0;4.25;0.25;0.25;0.25;0.25;1.5;1.25;0.25;0.0;-0.212402;0.033203;0.986328;-0.84;-1.33;0.56;320.0;-0.107458;-0.20086
0.62;1.75;1.0;2.0;1.5;2.5;2.25;0.0;1.0;1.25;0.5;0.0;0.25;0.25;3.75;0.25;0.25;-0.182617;0.022949;0.997559;-0.49;0.77;0.63;214.0;-0.041411;-0.021331;0.25;2.25;1.5;3.25;3.25;7.0;0.0;4.25;0.25;0.0;0.25;0.75;1.5;1.25;0.25;0.0;-0.209473;0.029297;0.991211;-0.77;-1.26;0.49;320.0;-0.104438;-0.204242
0.63;1.5;1.0;2.25;1.5;2.5;2.0;0.25;1.0;1.0;0.75;0.25;0.25;0.25;3.75;0.25;0.25;-0.182617;0.030762;0.98877;-0.63;0.84;0.56;217.0;-0.033709;-0.018021;0.25;2.25;1.5;3.25;3.0;7.0;0.0;4.25;0.0;0.25;0.0;0.25;1.5;1.25;0.25;0.25;-0.209961;0.035156;0.989746;-0.91;-1.26;0.56;309.0;-0.111915;-0.209548
0.64;1.5;0.75;2.25;1.5;2.5;2.25;0.25;1.0;1.0;0.25;0.0;0.25;0.25;3.75;0.25;0.25;-0.181152;0.025391;0.993164;-0.63;0.84;0.56;209.0;-0.041789;-0.020751;0.5;2.25;1.75;3.25;3.0;7.0;0.0;4.25;0.0;0.25;0.0;0.5;1.5;1.25;0.25;0.0;-0.209473;0.038086;0.986328;-0.91;-1.26;0.42;316.0;-0.115298;-0.204105
0.65;1.5;0.75;2.25;1.5;2.5;2.25;0.25;1.0;1.0;0.25;0.0;0.25;0.25;3.75;0.0;0.25;-0.180176;0.026855;0.992676;-0.63;0.7;0.63;206.0;-0.048039;-0.019898;0.75;2.5;1.75;3.25;3.25;7.0;0.0;4.25;0.0;0.25;0.25;0.25;1.5;1.5;0.25;0.0;-0.209473;0.035156;0.98877;-0.98;-1.33;0.42;327.0;-0.116325;-0.194376
0.66;1.25;0.75;2.25;1.5;2.5;2.25;0.25;1.0;1.25;0.25;0.25;0.25;0.25;3.75;0.0;0.25;-0.182129;0.021973;0.995117;-0.63;0.7;0.63;210.0;-0.034325;-0.017927;0.75;2.5;1.5;3.25;3.25;7.0;0.0;4.25;0.0;0.25;0.25;0.25;1.5;1.5;0.0;0.0;-0.212891;0.03418;0.991699;-0.98;-1.33;0.49;321.0;-0.11959;-0.198077
0.67;1.25;0.75;2.25;1.5;2.5;2.25;0.25;1.0;1.75;0.25;0.25;0.25;0.25;3.75;0.0;0.25;-0.183594;0.029297;0.991699;-0.63;0.91;0.63;217.0;-0.024741;-0.008291;0.5;2.25;1.25;3.25;3.0;7.0;0.0;4.25;0.0;0.25;0.25;0.25;1.5;1.25;0.0;0.0;-0.211426;0.036621;0.983887;-0.91;-1.26;0.49;307.0;-0.117057;-0.209401
0.68;1.25;0.5;2.25;1.5;2.25;2.25;0.25;1.0;1.25;0.5;0.0;0.25;0.25;3.75;0.25;0.25;-0.176758;0.022461;0.997559;-0.77;0.91;0.49;207.0;-0.022061;-0.015685;0.5;2.25;1.5;3.25;3.25;7.25;0.0;4.25;0.0;0.0;0.25;0.25;1.5;1.5;0.25;0.25;-0.20752;0.034668;0.98584;-0.98;-1.54;0.42;320.0;-0.111294;-0.203562
0.69;1.5;0.25;2.25;1.5;2.25;2.25;0.25;1.0;1.25;0.75;0.0;0.25;0.25;4.0;0.25;0.25;-0.183594;0.023438;0.995605;-0.7;0.84;0.56;213.0;-0.014196;-0.009068;0.75;2.5;2.0;3.25;3.25;7.25;0.0;4.25;0.0;0.0;0.25;0.25;1.75;1.25;0.25;0.25;-0.210938;0.035645;0.98584;-0.91;-1.54;0.42;331.0;-0.120627;-0.199723
0.7;1.5;0.75;2.0;1.5;2.25;1.75;0.25;0.75;1.25;0.75;0.25;0.25;0.25;4.0;0.25;0.0;-0.182129;0.021973;0.99707;-0.77;0.7;0.63;206.0;-0.01573;0.001704;0.25;2.5;2.0;3.5;3.25;7.25;0.0;4.25;0.0;0.25;0.25;0.25;1.25;1.0;0.25;0.25;-0.205566;0.038574;0.990234;-1.05;-1.54;0.42;324.0;-0.122105;-0.201922
0.71;1.25;1.0;2.0;1.5;2.25;1.75;0.25;0.75;1.0;0.75;0.25;0.25;0.25;3.75;0.25;0.0;-0.18457;0.023926;1.0;-0.63;0.63;0.49;200.0;-0.025157;-0.008866;0.25;2.75;2.0;3.5;3.75;7.25;0.0;4.25;0.0;0.0;0.25;0.25;1.5;1.25;0.0;0.0;-0.210449;0.033691;0.993164;-1.05;-1.61;0.49;330.0;-0.128451;-0.198881
0.72;1.25;0.75;2.25;1.5;2.25;2.0;0.25;1.0;1.0;0.75;0.25;0.25;0.0;3.75;0.0;0.25;-0.182617;0.021484;0.992676;-0.77;0.77;0.56;204.0;-0.031053;-0.013088;0.5;3.0;1.75;3.75;3.75;7.75;0.0;4.25;0.0;0.0;0.25;0.25;1.5;1.25;0.25;0.0;-0.208008;0.02832;0.98584;-0.98;-1.61;0.42;344.0;-0.128936;-0.199201
0.73;1.5;0.75;2.0;1.5;2.25;2.0;0.25;0.75;1.0;0.75;0.25;0.25;0.0;3.5;0.25;0.25;-0.176758;0.022949;0.992188;-0.63;1.05;0.63;200.0;-0.031995;-0.008237;0.5;3.0;1.75;3.75;3.75;7.5;0.0;4.25;0.0;0.25;0.25;0.5;1.25;1.0;0.25;0.25;-0.210449;0.033691;0.983887;-1.05;-1.75;0.42;344.0;-0.126447;-0.198429
0.74;1.5;0.75;1.5;1.5;2.25;1.75;0.25;0.75;1.0;0.75;0.25;0.25;0.25;3.75;0.0;0.25;-0.182129;0.026367;0.993164;-0.63;1.26;0.56;192.0;-0.021451;-0.009439;0.5;3.0;2.0;3.75;3.25;7.5;0.0;4.25;0.0;0.25;0.25;0.5;1.25;0.75;0.25;0.25;-0.211426;0.035645;0.984375;-1.05;-1.75;0.49;339.0;-0.131414;-0.203015
0.75;1.25;0.75;1.75;1.5;2.25;1.75;0.25;0.75;1.0;0.75;0.25;0.25;0.25;3.25;0.0;0.0;-0.184082;0.023926;0.98877;-0.56;1.05;0.63;187.0;-0.033489;-0.011863;0.75;3.0;2.0;4.25;3.75;8.25;0.0;4.25;0.25;0.25;0.25;0.25;1.5;1.0;0.0;0.25;-0.200195;0.036133;0.987305;-0.84;-1.61;0.42;365.0;-0.13421;-0.193116
0.76;1.25;0.75;2.0;1.5;2.25;1.5;0.25;0.75;0.75;0.75;0.25;0.25;0.25;3.75;0.0;0.0;-0.182129;0.023438;0.993164;-0.63;1.26;0.56;188.0;-0.029862;-0.006846;0.75;3.0;1.5;4.25;3.75;8.25;0.0;4.25;0.25;0.25;0.25;0.25;1.25;1.0;0.25;0.25;-0.205078;0.032715;0.995605;-0.91;-1.68;0.56;359.0;-0.12965;-0.195265
0.77;1.5;0.25;1.75;1.5;2.0;1.5;0.25;0.75;0.75;0.75;0.25;0.25;0.25;3.5;0.0;0.25;-0.180176;0.025879;1.000488;-0.77;1.19;0.63;179.0;-0.021753;-0.008248;0.75;2.25;1.75;4.0;4.0;8.25;0.0;4.25;0.0;0.25;0.25;0.5;1.5;1.0;0.25;0.25;-0.20459;0.032227;0.989746;-0.7;-1.4;0.56;357.0;-0.122526;-0.198315
0.78;1.25;0.25;1.5;1.25;2.0;1.75;0.25;0.75;1.0;0.5;0.25;0.25;0.25;3.25;0.0;0.25;-0.184082;0.022949;0.998535;-0.63;1.19;0.56;171.0;-0.013152;-0.010543;0.75;2.75;2.0;4.0;4.0;7.75;0.0;4.25;0.0;0.25;0.25;0.5;1.5;0.75;0.25;0.25;-0.211426;0.038574;0.989746;-0.7;-1.4;0.56;356.0;-0.130898;-0.196603
0.79;1.25;0.5;1.75;1.5;2.0;1.75;0.25;0.75;0.75;0.5;0.25;0.25;0.25;3.25;0.0;0.25;-0.187012;0.025391;0.99707;-0.63;0.98;0.63;176.0;-0.033442;-0.020476;0.75;3.0;2.5;4.0;3.75;7.75;0.0;4.25;0.0;0.25;0.25;0.25;1.5;0.75;0.0;0.0;-0.212891;0.033691;0.993652;-0.7;-1.4;0.56;355.0;-0.144448;-0.19329
0.8;1.0;0.5;1.75;1.5;2.0;1.75;0.25;0.75;0.75;0.5;0.25;0.25;0.0;3.25;0.25;0.25;-0.183594;0.027344;0.989258;-0.49;1.19;0.63;174.0;-0.022897;-0.017623;0.75;3.25;2.0;4.0;4.0;7.75;0.0;4.0;0.0;0.25;0.25;0.25;1.5;1.0;0.25;0.0;-0.208008;0.03418;0.980469;-0.63;-1.47;0.56;355.0;-0.137592;-0.190154
0.81;1.25;0.75;1.75;1.25;2.0;1.75;0.25;0.75;0.75;0.5;0.25;0.25;0.25;2.75;0.0;0.25;-0.182617;0.020508;1.002441;-0.63;1.26;0.63;171.0;-0.046751;-0.024421;1.0;3.25;2.0;4.0;4.0;8.25;0.0;4.25;0.0;0.0;0.25;0.25;1.25;0.75;0.25;0.0;-0.209961;0.039062;0.987305;-0.77;-1.4;0.63;361.0;-0.146996;-0.194097
0.82;1.0;0.75;1.75;1.25;1.75;1.75;0.25;0.75;1.0;0.75;0.25;0.25;0.25;3.0;0.0;0.25;-0.183105;0.026367;0.999512;-0.56;1.4;0.56;174.0;-0.022535;-0.017783;1.0;3.25;2.0;4.0;4.0;8.25;0.0;4.25;0.0;0.25;0.0;0.5;1.25;0.25;0.25;0.0;-0.212402;0.03418;0.988281;-0.84;-1.61;0.63;359.0;-0.151283;-0.198295
0.83;1.75;0.75;1.75;1.25;2.0;1.75;0.0;0.75;0.75;0.75;0.25;0.25;0.0;3.25;0.0;0.25;-0.183105;0.021973;0.997559;-0.63;1.47;0.56;178.0;-0.047313;-0.013874;1.0;3.25;2.0;4.25;4.0;8.25;0.0;4.25;0.0;0.25;0.0;0.5;1.5;0.5;0.25;0.0;-0.20459;0.038086;0.985352;-0.91;-1.75;0.42;367.0;-0.146767;-0.197825
0.84;1.25;0.75;1.75;1.25;1.75;1.25;0.0;0.75;0.75;0.75;0.25;0.0;0.0;3.75;0.0;0.25;-0.183105;0.023438;1.000488;-0.63;1.54;0.49;165.0;-0.021394;0.000221;1.25;3.75;2.25;4.5;4.0;8.5;0.0;4.25;0.0;0.25;0.25;0.25;1.5;1.0;0.0;0.0;-0.209961;0.032227;0.987793;-0.63;-1.75;0.56;385.0;-0.151534;-0.188678
0.85;1.5;0.75;1.75;1.25;1.75;1.25;0.25;0.5;0.75;0.75;0.25;0.0;0.0;3.25;0.0;0.25;-0.181641;0.024414;0.995605;-0.63;1.4;0.56;163.0;-0.038055;0.013194;1.25;3.75;2.5;4.25;4.0;8.5;0.0;4.25;0.0;0.25;0.25;0.5;1.5;1.0;0.0;0.25;-0.20752;0.034668;0.98584;-0.56;-1.68;0.63;390.0;-0.14677;-0.187482
0.86;0.75;0.5;1.75;1.25;1.75;1.25;0.25;0.5;0.75;0.75;0.25;0.25;0.0;2.75;0.0;0.0;-0.187012;0.023926;1.000977;-0.63;1.33;0.49;149.0;-0.024069;0.002897;1.0;3.75;2.5;4.5;4.0;8.75;0.0;4.25;0.0;0.25;0.25;0.5;1.5;1.0;0.25;0.0;-0.208984;0.03418;0.984863;-0.63;-1.54;0.63;394.0;-0.143915;-0.1893
0.87;1.0;0.5;1.5;1.25;1.75;1.25;0.0;0.5;0.5;0.75;0.25;0.0;0.0;2.75;0.25;0.0;-0.183105;0.023926;0.992676;-0.63;1.19;0.49;141.0;-0.032595;-0.006368;1.0;4.0;2.5;4.75;4.25;9.0;0.0;4.25;0.0;0.25;0.25;0.5;1.5;0.75;0.25;0.0;-0.206055;0.036133;0.991211;-0.56;-1.61;0.63;403.0;-0.149812;-0.190284
0.88;1.0;0.5;1.75;1.0;1.75;1.25;0.0;0.75;0.5;0.5;0.25;0.25;0.0;2.75;0.25;0.0;-0.180664;0.021973;0.995605;-0.77;1.12;0.56;145.0;-0.032211;-0.018035;1.0;4.0;2.5;4.75;4.25;9.0;0.0;4.5;0.0;0.0;0.5;0.25;1.5;0.75;0.0;0.25;-0.209473;0.035645;0.988281;-0.49;-1.47;0.56;403.0;-0.153129;-0.1941
0.89;1.5;0.5;1.5;1.25;1.5;1.25;0.0;0.5;0.75;0.5;0.0;0.0;0.0;2.75;0.0;0.0;-0.185547;0.024414;0.996582;-0.77;0.98;0.56;138.0;-0.05834;0.006517;1.25;3.75;2.5;4.75;4.25;9.0;0.0;4.5;0.0;0.0;0.25;0.25;1.5;0.5;0.0;0.25;-0.202637;0.036621;0.989746;-0.49;-1.47;0.63;398.0;-0.159257;-0.194852
0.9;1.0;0.5;1.5;1.25;1.5;1.25;0.0;0.5;0.75;0.75;0.0;0.0;0.25;2.75;0.0;0.25;-0.183594;0.027344;0.993164;-0.7;0.84;0.56;139.0;-0.029963;-0.007773;1.25;3.75;2.25;4.75;4.25;9.0;0.0;4.25;0.0;0.25;0.25;0.5;1.5;0.5;0.0;0.25;-0.20752;0.029785;0.990234;-0.56;-1.47;0.7;397.0;-0.154448;-0.193845
0.91;0.75;0.5;1.5;1.0;1.75;1.25;0.0;0.5;0.75;0.75;0.0;0.25;0.25;2.75;0.0;0.25;-0.183594;0.024902;0.997559;-0.7;0.77;0.49;140.0;-0.013991;-0.009937;1.25;3.75;2.5;4.75;4.5;9.0;0.0;4.25;0.0;0.25;0.25;0.5;1.25;0.25;0.25;0.25;-0.20752;0.033203;0.986328;-0.35;-1.54;0.7;401.0;-0.15624;-0.189562
0.92;1.0;0.5;1.75;1.0;1.75;1.25;0.0;0.5;0.75;0.25;0.25;0.25;0.25;2.25;0.0;0.25;-0.195801;0.025391;0.985352;-1.05;0.84;0.49;138.0;-0.047415;-0.016864;1.25;4.0;2.5;5.0;4.5;9.0;0.0;4.25;0.0;0.0;0.25;0.25;1.5;0.25;0.0;0.0;-0.205078;0.03418;0.992188;-0.35;-1.47;0.63;399.0;-0.168382;-0.192643
0.93;1.0;0.5;1.75;1.25;1.75;1.25;0.0;0.5;0.75;0.25;0.25;0.25;0.25;2.0;0.0;0.25;-0.18457;0.021484;0.995117;-1.12;0.84;0.42;139.0;-0.060316;-0.024622;1.0;3.75;2.5;5.0;4.5;9.0;0.0;4.5;0.0;0.0;0.25;0.25;1.5;0.5;0.25;0.0;-0.209961;0.037109;0.987793;-0.35;-1.4;0.7;403.0;-0.156122;-0.194064
0.94;1.25;0.5;1.5;1.25;1.75;1.0;0.0;0.75;0.25;0.5;0.25;0.0;0.0;2.5;0.0;0.25;-0.186523;0.022461;0.999512;-0.91;0.7;0.42;135.0;-0.063283;-0.023856;1.25;4.0;2.5;5.5;4.5;9.25;0.0;4.5;0.0;0.25;0.25;0.5;1.5;0.75;0.0;0.0;-0.208984;0.038574;0.980957;-0.28;-1.47;0.7;422.0;-0.156712;-0.190533
0.95;0.5;0.75;1.5;1.25;1.75;1.25;0.0;0.5;0.25;0.75;0.25;0.0;0.0;2.5;0.0;0.25;-0.185059;0.021973;0.996094;-0.91;0.98;0.42;130.0;-0.045016;-0.027268;1.25;4.25;2.5;5.5;4.5;9.0;0.0;4.5;0.0;0.25;0.25;0.5;1.25;1.0;0.0;0.0;-0.205566;0.036621;0.986816;-0.28;-1.47;0.7;422.0;-0.156984;-0.186269
0.96;0.5;0.5;1.5;1.25;1.75;1.0;0.0;0.5;0.5;0.75;0.0;0.25;0.25;2.75;0.0;0.0;-0.183594;0.021973;0.998047;-0.84;0.98;0.56;132.0;-0.020284;-0.01575;1.25;4.0;2.5;5.0;4.25;9.0;0.0;4.75;0.0;0.25;0.25;0.5;1.5;0.5;0.0;0.0;-0.20459;0.033691;0.984863;-0.21;-1.4;0.63;412.0;-0.156818;-0.195377
0.97;1.0;0.25;1.5;1.25;1.75;1.0;0.0;0.5;0.5;0.75;0.0;0.25;0.0;3.0;0.0;0.0;-0.187012;0.019531;0.993164;-0.91;0.98;0.42;135.0;-0.024806;0.00342;1.25;5.25;2.5;5.5;4.5;9.0;0.0;4.75;0.0;0.25;0.25;0.75;1.5;0.75;0.0;0.25;-0.205566;0.037598;0.990234;-0.07;-1.26;0.77;441.0;-0.158684;-0.192279
0.98;1.25;0.5;1.5;1.0;1.75;1.0;0.0;0.5;0.75;0.75;0.0;0.0;0.0;3.0;0.0;0.0;-0.186035;0.024414;0.995605;-0.98;1.05;0.49;138.0;-0.031599;0.020746;1.25;4.5;2.5;5.5;4.5;9.0;0.0;4.75;0.0;0.25;0.25;0.5;1.5;0.75;0.25;0.25;-0.206543;0.036133;0.98877;-0.21;-1.26;0.77;433.0;-0.152876;-0.191322
0.99;1.25;0.25;1.5;1.0;1.75;1.0;0.0;0.25;0.75;0.5;0.0;0.0;0.25;2.5;0.25;0.0;-0.187988;0.027344;0.995605;-0.98;1.26;0.35;129.0;-0.033256;0.020019;1.0;4.0;2.5;5.25;4.5;9.25;0.0;4.75;0.0;0.25;0.25;0.5;1.5;0.5;0.25;0.25;-0.206543;0.033691;0.992676;-0.21;-1.33;0.7;423.0;-0.150202;-0.195991
1.0;1.0;0.25;1.5;1.0;1.5;1.0;0.0;0.25;0.75;0.25;0.0;0.0;0.25;2.75;0.25;0.25;-0.187012;0.024414;0.995605;-0.84;1.19;0.49;124.0;-0.015815;0.014949;1.0;4.0;2.5;5.25;4.5;9.5;0.0;4.75;0.0;0.0;0.25;0.25;1.5;0.5;0.25;0.25;-0.202148;0.036621;0.988281;-0.28;-1.33;0.77;420.0;-0.155321;-0.197614
1.01;1.25;0.5;1.5;1.0;1.5;1.0;0.0;0.25;0.25;0.25;0.0;0.25;0.0;2.75;0.0;0.0;-0.179688;0.026367;0.991211;-0.91;1.33;0.49;118.0;-0.063255;0.006038;1.25;4.25;2.5;5.0;4.5;9.5;0.0;4.75;0.0;0.25;0.25;0.25;1.5;0.75;0.0;0.25;-0.206543;0.041016;0.985352;-0.28;-1.33;0.77;425.0;-0.155637;-0.192172
1.02;1.0;0.25;1.5;1.0;1.5;1.0;0.0;0.25;0.25;0.5;0.0;0.25;0.0;2.75;0.0;0.0;-0.183594;0.021484;0.996094;-0.98;1.4;0.49;116.0;-0.039814;0.008691;1.0;4.25;2.5;5.5;4.5;9.25;0.0;4.75;0.0;0.25;0.25;0.25;1.5;0.75;0.25;0.25;-0.202148;0.033691;0.986816;-0.14;-1.4;0.84;428.0;-0.152097;-0.193323
1.03;0.75;0.25;1.5;1.0;1.25;0.5;0.0;0.25;0.5;0.25;0.25;0.25;0.0;2.75;0.0;0.0;-0.183594;0.022461;0.993164;-0.91;1.12;0.49;108.0;-0.012178;0.024205;1.0;4.25;2.5;5.75;4.5;9.25;0.0;5.0;0.0;0.0;0.25;0.25;1.5;0.75;0.25;0.0;-0.204102;0.036133;0.984375;-0.14;-1.33;0.84;431.0;-0.156042;-0.196748
1.04;1.0;0.25;1.5;1.0;1.25;0.5;0.0;0.25;0.75;0.5;0.0;0.25;0.0;2.75;0.0;0.0;-0.184082;0.024414;0.992188;-0.91;1.33;0.49;114.0;-0.013131;0.038652;1.25;4.5;2.5;5.75;4.5;9.5;0.0;5.0;0.0;0.0;0.25;0.5;1.5;0.75;0.25;0.25;-0.200684;0.033203;0.985352;-0.14;-1.4;0.84;443.0;-0.15498;-0.196163
1.05;1.25;0.25;1.5;0.75;1.25;0.5;0.0;0.25;0.75;0.5;0.0;0.25;0.0;2.25;0.25;0.25;-0.18457;0.022461;0.996582;-0.77;1.19;0.49;114.0;-0.017526;0.034029;1.5;4.5;2.5;5.75;4.5;9.25;0.0;5.0;0.0;0.0;0.25;0.5;1.5;0.75;0.0;0.25;-0.206055;0.036621;0.987793;-0.14;-1.26;0.84;440.0;-0.160257;-0.194427
1.06;1.25;0.25;1.0;0.75;1.25;0.5;0.0;0.25;0.75;0.25;0.0;0.25;0.0;2.75;0.0;0.25;-0.18457;0.029785;0.998535;-0.77;1.26;0.56;106.0;-0.002882;0.039464;1.75;4.5;2.25;5.75;4.5;9.5;0.0;5.25;0.0;0.25;0.25;0.5;1.75;0.75;0.25;0.25;-0.206055;0.033203;0.990723;-0.0;-1.26;0.91;455.0;-0.151873;-0.195826
1.07;0.75;0.25;1.0;0.75;1.25;0.5;0.0;0.25;0.75;0.25;0.0;0.25;0.25;2.75;0.0;0.0;-0.187012;0.019531;0.999023;-0.63;1.33;0.56;102.0;0.01811;0.029138;1.25;4.5;2.5;5.5;4.5;9.5;0.0;5.25;0.0;0.25;0.25;0.75;1.75;1.0;0.0;0.25;-0.203613;0.030762;0.990723;-0.14;-1.4;1.05;452.0;-0.146944;-0.196957
1.08;0.75;0.25;0.75;0.75;1.25;0.5;0.0;0.25;0.5;0.0;0.0;0.25;0.0;2.75;0.0;0.0;-0.188965;0.02002;0.991211;-0.63;1.61;0.42;90.0;0.007248;0.029098;1.0;4.25;2.5;5.75;4.5;9.5;0.0;5.25;0.0;0.25;0.25;0.5;1.75;0.5;0.0;0.25;-0.201172;0.032227;0.986816;-0.07;-1.33;0.98;442.0;-0.152914;-0.202572
1.09;1.25;0.25;1.0;0.75;1.25;0.5;0.0;0.25;0.75;0.25;0.0;0.25;0.0;2.75;0.25;0.0;-0.185059;0.025879;0.995605;-0.7;1.68;0.56;108.0;0.003052;0.041085;1.0;4.25;2.5;5.75;4.5;9.5;0.0;5.5;0.0;0.25;0.25;0.5;1.75;0.5;0.0;0.25;-0.207031;0.037109;0.98877;-0.14;-1.54;0.91;446.0;-0.151602;-0.204337
1.1;1.0;0.25;1.0;0.75;1.25;0.5;0.0;0.25;0.75;0.25;0.0;0.25;0.25;2.75;0.25;0.0;-0.183594;0.029297;0.994629;-0.7;1.96;0.56;107.0;0.017414;0.02827;1.0;4.5;2.5;5.75;4.5;9.75;0.0;5.5;0.25;0.25;0.25;0.5;1.75;0.5;0.0;0.25;-0.203125;0.036621;0.986328;-0.35;-1.54;0.84;455.0;-0.149869;-0.200814
1.11;0.75;0.25;0.75;0.75;1.0;0.5;0.0;0.25;0.25;0.25;0.0;0.0;0.0;2.75;0.25;0.0;-0.187012;0.023438;0.991211;-0.63;2.17;0.56;86.0;0.01584;0.026114;0.75;4.5;2.5;5.25;4.75;9.75;0.0;5.5;0.0;0.25;0.25;0.75;1.75;0.75;0.0;0.25;-0.205566;0.035645;0.984375;-0.42;-1.54;0.49;451.0;-0.144322;-0.203114
1.12;0.75;0.25;0.75;1.0;1.0;0.5;0.0;0.25;0.25;0.25;0.0;0.25;0.0;2.75;0.0;0.0;-0.184082;0.020508;0.996582;-0.49;1.96;0.56;89.0;-0.000769;0.010728;0.75;4.25;2.5;5.5;4.75;9.75;0.0;5.5;0.0;0.25;0.25;0.75;1.75;0.75;0.0;0.25;-0.203125;0.035156;0.98584;-0.56;-1.61;0.56;452.0;-0.143754;-0.203464
1.13;0.25;0.25;1.0;0.5;1.0;0.5;0.0;0.25;0.5;0.25;0.0;0.25;0.0;2.75;0.0;0.25;-0.181152;0.025879;0.994629;-0.63;2.1;0.49;86.0;0.053497;0.028951;1.25;4.25;2.5;5.5;4.75;9.75;0.0;5.5;0.25;0.25;0.25;1.0;2.5;0.75;0.25;0.25;-0.210938;0.035645;0.990723;-0.42;-1.4;0.63;474.0;-0.133681;-0.199803
1.14;0.25;0.25;0.75;0.75;1.0;0.5;0.0;0.0;0.75;0.5;0.0;0.25;0.0;2.75;0.0;0.0;-0.182617;0.027832;0.993164;-0.7;2.24;0.49;86.0;0.065415;0.055514;1.5;4.25;2.5;5.5;4.75;10.0;0.0;5.5;0.25;0.25;0.5;1.0;2.25;0.75;0.25;0.5;-0.206543;0.041016;0.988281;-0.49;-1.33;0.7;481.0;-0.133206;-0.197011
1.15;0.75;0.25;0.75;0.75;1.0;0.5;0.0;0.25;0.75;0.25;0.25;0.25;0.0;2.25;0.0;0.0;-0.187012;0.022461;0.993652;-0.7;2.31;0.42;91.0;0.014835;0.02663;1.5;4.0;2.5;5.75;4.75;10.0;0.0;5.5;0.0;0.25;0.25;1.0;1.75;0.5;0.25;0.25;-0.206055;0.032227;0.987793;-0.56;-1.26;0.7;467.0;-0.145181;-0.200286
1.16;0.25;0.25;1.0;0.5;1.0;0.5;0.0;0.0;0.5;0.25;0.0;0.0;0.0;2.5;0.25;0.0;-0.188965;0.02002;0.994141;-0.7;2.24;0.56;78.0;0.047786;0.061603;1.25;4.0;2.5;5.5;5.0;9.75;0.0;5.75;0.0;0.25;0.5;0.75;2.5;0.75;0.0;0.25;-0.208984;0.037109;0.98584;-0.49;-1.33;0.77;472.0;-0.1372;-0.203235
1.17;0.25;0.25;0.75;0.25;0.75;0.5;0.0;0.25;0.5;0.25;0.0;0.0;0.0;2.25;0.25;0.0;-0.188477;0.020508;0.993652;-0.56;2.24;0.49;70.0;0.067442;0.041956;1.0;3.75;2.75;5.75;4.75;9.75;0.0;5.5;0.0;0.25;0.5;0.75;2.5;1.0;0.0;0.25;-0.20459;0.041016;0.984863;-0.63;-1.19;0.63;468.0;-0.134345;-0.201681
1.18;0.25;0.25;0.75;0.25;0.5;0.5;0.0;0.25;0.5;0.25;0.0;0.25;0.0;1.75;0.25;0.0;-0.181152;0.016602;0.993652;-0.63;2.31;0.56;66.0;0.057964;0.016603;1.5;4.25;2.75;5.5;5.0;9.75;0.0;5.5;0.0;0.5;0.25;1.0;2.5;0.5;0.25;0.5;-0.206055;0.037109;0.994629;-0.63;-1.4;0.56;481.0;-0.137855;-0.198664
1.19;0.25;0.25;0.75;0.5;0.5;0.5;0.0;0.0;0.5;0.25;0.0;0.0;0.25;1.75;0.25;0.0;-0.188477;0.02832;0.991699;-0.42;2.1;0.49;64.0;0.043692;0.028361;1.0;4.5;2.5;5.5;5.25;9.75;0.0;5.5;0.25;0.5;0.25;0.25;2.0;0.5;0.25;0.25;-0.206055;0.040527;0.992676;-0.63;-1.33;0.56;467.0;-0.143308;-0.193997
1.2;0.25;0.25;0.75;0.5;0.75;0.5;0.0;0.0;0.25;0.25;0.0;0.0;0.0;2.25;0.25;0.0;-0.183105;0.024414;0.993652;-0.56;2.17;0.42;66.0;0.045981;0.04462;0.75;4.0;2.5;5.5;5.25;10.0;0.0;5.5;0.25;0.5;0.25;0.25;2.5;0.75;0.0;0.25;-0.208984;0.03418;0.987305;-0.63;-1.26;0.49;466.0;-0.136286;-0.198183
1.21;0.5;0.25;0.75;0.5;0.5;0.5;0.0;0.25;0.5;0.25;0.0;0.0;0.0;2.25;0.25;0.0;-0.185547;0.019531;0.990234;-0.49;1.96;0.35;73.0;0.042602;0.032815;1.0;3.75;2.5;5.5;5.0;9.75;0.0;5.5;0.25;0.75;0.5;0.5;2.25;1.0;0.0;0.25;-0.210938;0.033203;0.993652;-0.63;-1.33;0.56;469.0;-0.128561;-0.193009
1.22;0.25;0.25;0.75;0.5;0.75;0.5;0.0;0.25;0.25;0.25;0.0;0.0;0.25;2.0;0.25;0.0;-0.187012;0.022949;0.994629;-0.42;1.68;0.49;70.0;0.034478;-0.002916;1.0;3.75;2.5;5.75;5.0;9.75;0.0;5.5;0.25;0.75;0.5;0.5;2.5;0.25;0.0;0.25;-0.208496;0.039551;0.98877;-0.63;-1.33;0.56;467.0;-0.136148;-0.200094
1.23;0.25;0.0;0.25;0.25;0.5;0.25;0.0;0.0;0.0;0.25;0.0;0.0;0.25;2.0;0.0;0.0;-0.191895;0.025391;0.998535;-0.28;1.68;0.56;42.0;0.0;0.0;1.0;4.0;2.5;5.75;5.0;9.75;0.0;5.75;0.25;0.25;0.75;0.75;2.5;0.5;0.25;0.25;-0.20459;0.038574;0.986328;-0.7;-1.26;0.56;479.0;-0.130867;-0.202247
1.24;0.5;0.25;0.25;0.25;0.5;0.25;0.0;0.0;0.25;0.25;0.25;0.0;0.0;2.0;0.0;0.0;-0.191895;0.021484;0.992676;-0.42;1.68;0.56;51.0;0.07262;0.068277;1.5;3.75;2.75;5.75;5.0;9.75;0.0;5.75;0.25;0.25;0.75;1.0;2.5;0.75;0.25;0.25;-0.202637;0.04248;0.990723;-0.56;-1.26;0.63;490.0;-0.128811;-0.195778
1.25;0.25;0.25;0.5;0.25;0.5;0.25;0.0;0.25;0.25;0.25;0.0;0.0;0.25;1.5;0.0;0.0;-0.19043;0.022461;0.996094;-0.28;1.54;0.63;50.0;0.036237;0.004702;1.25;3.75;2.75;5.75;5.25;9.75;0.0;5.5;0.25;0.25;0.75;0.75;2.5;1.0;0.25;0.5;-0.205566;0.033691;0.986816;-0.49;-1.19;0.56;487.0;-0.126121;-0.19228
1.26;0.25;0.25;0.5;0.5;0.5;0.25;0.0;0.0;0.25;0.25;0.0;0.25;0.25;1.25;0.0;0.0;-0.187988;0.021973;0.991211;-0.28;1.4;0.63;50.0;0.0;0.0;1.0;4.25;2.5;5.75;5.5;9.75;0.0;5.75;0.0;0.25;0.5;0.75;2.5;1.0;0.25;0.5;-0.205078;0.032227;0.992676;-0.56;-1.19;0.56;487.0;-0.130541;-0.199538
1.27;0.25;0.25;0.75;0.5;0.5;0.25;0.0;0.0;0.25;0.25;0.0;0.25;0.25;2.0;0.0;0.0;-0.191406;0.027344;0.999023;-0.49;1.33;0.56;60.0;0.04551;0.024091;1.0;4.5;2.5;5.75;5.75;9.75;0.0;5.75;0.0;0.25;0.25;1.0;2.25;1.0;0.0;0.25;-0.210938;0.041016;0.98877;-0.7;-1.12;0.56;486.0;-0.138202;-0.197888
1.28;0.25;0.25;0.5;0.5;0.5;0.25;0.0;0.0;0.25;0.25;0.0;0.0;0.0;2.0;0.0;0.0;-0.183594;0.024902;0.995605;-0.42;1.26;0.56;51.0;0.049188;0.060427;1.0;4.25;2.75;5.5;5.5;10.0;0.25;5.75;0.0;0.25;0.25;1.0;2.0;0.75;0.0;0.25;-0.206055;0.035645;0.989258;-0.63;-1.26;0.49;483.0;-0.139077;-0.194907
1.29;0.5;0.25;0.75;0.5;0.5;0.25;0.0;0.25;0.25;0.25;0.0;0.0;0.0;1.5;0.0;0.0;-0.192871;0.022461;0.992676;-0.56;1.12;0.42;57.0;-0.024483;0.021646;1.5;4.25;2.75;5.75;5.25;10.0;0.25;6.25;0.0;0.25;0.5;1.0;2.25;0.75;0.25;0.25;-0.209473;0.03418;0.985352;-0.7;-1.26;0.49;505.0;-0.134301;-0.19661
1.3;0.5;0.25;0.5;0.5;0.25;0.25;0.0;0.25;0.25;0.25;0.0;0.25;0.0;1.75;0.0;0.0;-0.191406;0.022949;0.995605;-0.63;1.05;0.49;56.0;0.024176;0.005947;1.25;4.5;2.75;5.75;5.25;9.75;0.0;6.25;0.25;0.25;0.5;1.0;2.5;0.25;0.25;0.25;-0.207031;0.039062;0.991211;-0.77;-1.05;0.49;499.0;-0.136723;-0.202714
1.31;0.5;0.25;0.5;0.5;0.25;0.25;0.0;0.0;0.25;0.5;0.0;0.0;0.0;2.0;0.0;0.0;-0.185547;0.023926;0.987793;-0.7;0.98;0.56;54.0;0.045256;0.063097;1.0;4.25;2.75;5.5;5.5;9.75;0.0;5.75;0.25;0.25;0.75;1.0;2.25;0.25;0.25;0.25;-0.204102;0.039551;0.98877;-0.63;-1.12;0.49;486.0;-0.134198;-0.197941
1.32;0.5;0.25;0.5;0.25;0.25;0.25;0.0;0.0;0.25;0.25;0.0;0.25;0.0;2.0;0.0;0.0;-0.192871;0.021973;0.992188;-0.63;1.05;0.56;51.0;0.063077;0.059685;1.0;4.25;3.0;5.75;5.5;9.75;0.0;6.25;0.0;0.25;0.5;1.0;2.25;0.75;0.25;0.5;-0.20166;0.036133;0.989258;-0.63;-1.12;0.49;500.0;-0.132199;-0.200282
1.33;0.5;0.25;0.5;0.25;0.25;0.25;0.0;0.25;0.25;0.0;0.0;0.25;0.0;2.0;0.0;0.0;-0.187988;0.020508;0.995117;-0.77;1.05;0.56;52.0;0.047476;0.023609;0.75;4.25;2.75;5.75;5.25;9.75;0.0;6.25;0.25;0.0;0.25;1.0;2.25;0.75;0.0;0.5;-0.210938;0.038574;0.995605;-0.49;-1.05;0.49;486.0;-0.13444;-0.204758
1.34;0.25;0.25;0.5;0.25;0.5;0.25;0.0;0.0;0.5;0.25;0.0;0.0;0.0;2.0;0.0;0.0;-0.187988;0.019043;0.990234;-0.77;1.19;0.63;52.0;0.082865;0.091604;1.0;4.0;2.5;5.75;5.0;10.0;0.0;5.75;0.25;0.0;0.25;0.75;2.25;0.75;0.0;0.5;-0.205078;0.038086;0.993164;-0.49;-0.98;0.63;472.0;-0.138117;-0.203255
1.35;0.25;0.25;0.5;0.5;0.5;0.25;0.0;0.0;0.5;0.25;0.0;0.0;0.0;2.0;0.0;0.25;-0.183105;0.015137;0.995605;-0.77;1.19;0.49;56.0;0.070458;0.064157;1.0;4.0;2.5;5.75;5.5;9.75;0.0;5.75;0.25;0.25;0.5;0.75;2.25;0.75;0.0;0.5;-0.203125;0.035156;0.98584;-0.56;-1.05;0.49;481.0;-0.133464;-0.197423
1.36;0.5;0.25;0.5;0.5;0.5;0.25;0.0;0.0;0.75;0.25;0.0;0.0;0.25;2.25;0.0;0.0;-0.191406;0.022461;0.987793;-0.84;1.19;0.42;66.0;0.069323;0.071186;1.0;4.25;2.75;5.5;5.5;9.75;0.0;5.75;0.25;0.25;0.5;0.75;2.5;1.0;0.25;0.25;-0.200684;0.035156;0.98877;-0.56;-0.98;0.49;489.0;-0.129078;-0.193775
1.37;0.25;0.0;0.25;0.25;0.25;0.25;0.0;0.0;0.5;0.25;0.0;0.25;0.0;2.0;0.0;0.0;-0.1875;0.026367;0.994141;-0.84;0.91;0.49;46.0;0.0;0.0;1.5;4.0;2.75;5.75;5.25;9.75;0.0;6.25;0.25;0.25;0.5;0.75;2.25;0.25;0.25;0.25;-0.205566;0.038086;0.98584;-0.7;-1.12;0.49;491.0;-0.138878;-0.199513
1.38;0.25;0.0;0.25;0.25;0.25;0.25;0.0;0.25;0.5;0.25;0.0;0.0;0.0;2.25;0.0;0.0;-0.192383;0.018066;0.993652;-0.77;0.77;0.49;50.0;0.0;0.0;1.5;4.5;2.75;5.5;5.5;10.0;0.0;6.25;0.25;0.25;0.5;0.75;2.25;0.25;0.25;0.25;-0.205566;0.039551;0.991211;-0.56;-1.26;0.49;500.0;-0.140786;-0.197895
1.39;0.25;0.25;0.5;0.5;0.25;0.25;0.0;0.25;0.5;0.25;0.0;0.0;0.0;2.0;0.0;0.0;-0.194336;0.021484;0.99707;-0.77;0.28;0.56;56.0;0.067147;0.040461;1.25;4.75;2.75;5.75;5.5;10.0;0.0;6.25;0.0;0.25;0.5;1.0;2.5;0.25;0.25;0.5;-0.203613;0.03418;0.98291;-0.35;-1.47;0.56;505.0;-0.139467;-0.205077
1.4;0.25;0.25;0.5;0.25;0.25;0.25;0.0;0.25;0.5;0.25;0.0;0.25;0.25;2.25;0.25;0.0;-0.186035;0.022461;0.991211;-0.77;0.07;0.63;64.0;0.122032;0.018609;1.25;5.0;2.75;5.75;5.25;10.0;0.0;6.25;0.0;0.0;0.25;0.75;2.25;0.5;0.25;0.25;-0.200684;0.041992;0.987793;-0.28;-1.47;0.56;495.0;-0.147663;-0.204691
1.41;0.25;0.0;0.75;0.25;0.25;0.25;0.0;0.0;0.25;0.25;0.0;0.25;0.0;2.5;0.0;0.0;-0.186035;0.023438;0.993652;-0.77;-0.07;0.56;53.0;0.121985;0.079665;1.25;4.5;2.75;5.75;5.5;10.25;0.0;6.25;0.0;0.0;0.25;0.75;2.5;1.0;0.0;0.25;-0.20459;0.035645;0.987793;-0.21;-1.4;0.56;500.0;-0.141329;-0.202251
1.42;0.25;0.0;0.5;0.25;0.25;0.25;0.0;0.0;0.25;0.25;0.0;0.0;0.0;2.5;0.0;0.0;-0.193359;0.014648;0.996582;-0.84;-0.0;0.49;48.0;0.0;0.0;1.25;4.5;2.75;5.5;5.75;10.25;0.25;6.25;0.25;0.25;0.5;0.75;2.5;0.75;0.0;0.0;-0.209473;0.039062;0.98877;-0.35;-1.54;0.49;509.0;-0.135581;-0.193063
1.43;0.25;0.0;0.5;0.25;0.25;0.25;0.0;0.0;0.5;0.25;0.0;0.0;0.0;2.25;0.0;0.0;-0.1875;0.018066;0.991211;-0.84;-0.07;0.63;49.0;0.0;0.0;1.25;4.5;3.0;5.75;5.5;10.0;0.25;6.25;0.0;0.25;0.5;1.0;2.5;0.75;0.25;0.0;-0.20166;0.036133;0.994629;-0.21;-1.61;0.42;512.0;-0.134968;-0.195814
1.44;0.25;0.0;0.75;0.25;0.5;0.25;0.0;0.25;0.75;0.25;0.0;0.0;0.25;2.75;0.0;0.0;-0.191895;0.022949;0.992676;-0.84;0.28;0.49;70.0;0.124889;0.071205;1.5;5.0;3.0;6.0;6.0;10.5;0.25;6.25;0.0;0.0;0.25;1.25;2.5;0.25;0.25;0.25;-0.207031;0.039062;0.995117;-0.28;-1.68;0.42;529.0;-0.145561;-0.197993
1.45;0.25;0.0;0.5;0.5;0.25;0.25;0.0;0.25;0.25;0.25;0.0;0.0;0.0;2.25;0.0;0.0;-0.191406;0.021973;0.995117;-0.77;0.56;0.56;52.0;0.092841;0.040519;1.75;5.25;3.0;5.75;6.25;10.5;0.25;6.25;0.25;0.25;0.25;1.0;2.5;0.25;0.25;0.25;-0.206543;0.041016;0.986816;-0.14;-1.47;0.42;537.0;-0.144466;-0.189582
1.46;0.25;0.25;0.5;0.25;0.25;0.25;0.0;0.0;0.25;0.25;0.0;0.25;0.0;2.75;0.0;0.0;-0.186035;0.024902;0.996094;-0.84;0.7;0.63;55.0;0.131042;0.072049;1.5;5.25;3.0;5.5;5.75;10.5;0.0;6.5;0.25;0.25;0.5;1.0;2.5;0.5;0.25;0.25;-0.210449;0.039551;0.986328;-0.21;-1.26;0.42;531.0;-0.138771;-0.196745
1.47;0.25;0.0;0.5;0.25;0.25;0.25;0.0;0.0;0.5;0.5;0.0;0.25;0.0;2.5;0.0;0.25;-0.187988;0.024902;0.991699;-0.77;1.26;0.56;58.0;0.162313;0.08034;1.25;5.0;3.0;5.75;5.75;10.5;0.0;6.25;0.0;0.0;0.5;1.0;2.5;0.75;0.25;0.25;-0.208008;0.040527;0.991699;-0.07;-1.12;0.49;520.0;-0.140184;-0.200148
1.48;0.25;0.0;0.25;0.25;0.25;0.25;0.0;0.25;0.75;0.5;0.0;0.0;0.0;2.5;0.0;0.0;-0.185059;0.026855;0.997559;-0.7;1.68;0.56;59.0;0.170728;0.086657;1.5;5.0;3.0;5.75;5.5;10.5;0.0;6.25;0.0;0.0;0.75;0.75;2.5;1.0;0.25;0.25;-0.19873;0.038086;0.989258;-0.28;-0.98;0.42;522.0;-0.139157;-0.197314
1.49;0.25;0.0;0.5;0.25;0.25;0.25;0.0;0.0;0.75;0.25;0.25;0.25;0.0;3.0;0.0;0.0;-0.192871;0.023926;0.992676;-0.77;2.31;0.49;65.0;0.180257;0.099024;1.5;4.75;3.0;5.75;5.5;10.75;0.0;6.25;0.0;0.25;0.75;1.0;2.5;0.25;0.25;0.25;-0.207031;0.03418;0.986816;-0.49;-0.77;0.49;522.0;-0.141269;-0.202018
1.5;0.25;0.0;0.5;0.0;0.25;0.25;0.0;0.0;0.75;0.25;0.25;0.25;0.0;3.25;0.0;0.0;-0.189453;0.027344;0.995605;-0.77;2.73;0.49;64.0;0.21043;0.116948;1.0;5.0;2.75;5.75;5.5;10.5;0.0;6.25;0.0;0.25;0.75;1.0;2.75;0.25;0.25;0.25;-0.20166;0.037598;0.990723;-0.56;-0.63;0.49;515.0;-0.137516;-0.207763
1.51;0.25;0.0;0.75;0.0;0.25;0.25;0.0;0.0;0.75;0.25;0.0;0.0;0.0;3.25;0.0;0.0;-0.181641;0.02832;0.999023;-0.77;2.94;0.42;62.0;0.186323;0.145686;1.0;5.0;3.0;5.5;5.5;10.5;0.0;6.5;0.0;0.25;1.0;1.0;3.0;0.5;0.25;0.25;-0.206055;0.041504;0.992676;-0.63;-0.42;0.42;526.0;-0.13064;-0.206338
1.52;0.25;0.0;0.25;0.0;0.0;0.25;0.0;0.0;0.75;0.25;0.0;0.0;0.0;3.0;0.0;0.0;-0.19043;0.023926;0.991699;-0.91;3.08;0.28;50.0;0.249309;0.156088;1.0;4.5;3.0;5.75;5.5;10.0;0.0;6.5;0.25;0.25;0.75;1.25;3.0;0.5;0.25;0.25;-0.206055;0.040039;0.990723;-0.7;-0.42;0.42;522.0;-0.125964;-0.203766
1.53;0.0;0.0;0.25;0.25;0.25;0.25;0.0;0.0;0.75;0.25;0.0;0.0;0.0;3.0;0.0;0.0;-0.191406;0.018555;0.996094;-0.77;2.8;0.28;53.0;0.232699;0.131887;1.0;4.5;3.0;5.75;5.5;10.0;0.0;6.25;0.0;0.25;0.75;1.25;3.0;0.5;0.0;0.25;-0.208496;0.041016;0.984863;-0.77;-0.49;0.42;511.0;-0.132553;-0.206259
1.54;0.25;0.25;0.25;0.25;0.25;0.25;0.0;0.0;0.75;0.5;0.0;0.0;0.0;3.0;0.0;0.0;-0.194336;0.020996;0.991699;-0.77;2.31;0.42;62.0;0.177321;0.115515;1.75;4.5;2.75;5.75;5.25;10.0;0.0;6.25;0.0;0.25;0.5;1.25;2.5;0.5;0.0;0.25;-0.202148;0.036621;0.991211;-0.77;-0.49;0.28;506.0;-0.141166;-0.202479
1.55;0.25;0.0;0.25;0.0;0.25;0.25;0.0;0.0;0.75;0.25;0.0;0.0;0.0;2.75;0.0;0.0;-0.192383;0.02002;0.989746;-0.63;1.68;0.42;51.0;0.219794;0.149519;1.75;4.75;2.75;5.75;5.25;10.0;0.0;6.25;0.0;0.0;0.5;1.25;2.5;0.5;0.0;0.25;-0.201172;0.036133;0.990723;-0.91;-0.91;0.42;506.0;-0.144682;-0.203794
1.56;0.25;0.0;0.25;0.0;0.25;0.0;0.0;0.0;0.75;0.25;0.0;0.0;0.25;2.75;0.0;0.0;-0.190918;0.021484;0.992676;-0.56;1.26;0.35;50.0;0.239451;0.145902;1.5;4.75;2.75;5.75;5.25;10.0;0.0;6.25;0.0;0.0;0.25;1.0;2.5;0.75;0.0;0.25;-0.202637;0.038574;0.992676;-0.84;-0.98;0.49;500.0;-0.144787;-0.203769
1.57;0.25;0.0;0.25;0.25;0.25;0.0;0.0;0.0;0.5;0.25;0.0;0.0;0.0;3.0;0.0;0.0;-0.19043;0.020508;0.991211;-0.56;0.21;0.49;50.0;0.0;0.0;1.5;4.75;3.0;5.75;5.5;10.25;0.0;6.25;0.0;0.25;0.25;1.0;2.5;0.75;0.25;0.25;-0.204102;0.037598;0.984863;-0.84;-1.19;0.49;515.0;-0.140226;-0.19873
1.58;0.25;0.0;0.25;0.25;0.25;0.0;0.0;0.25;0.5;0.25;0.0;0.0;0.0;3.0;0.0;0.0;-0.195801;0.019043;0.992188;-0.42;-0.49;0.63;54.0;0.200076;0.10311;1.5;5.0;3.0;5.75;5.5;10.25;0.0;6.25;0.25;0.25;0.5;1.0;2.5;0.5;0.25;0.25;-0.207031;0.038574;0.992188;-0.91;-1.33;0.49;521.0;-0.139294;-0.196548
1.59;0.25;0.0;0.25;0.25;0.25;0.0;0.0;0.0;0.25;0.25;0.0;0.0;0.0;3.0;0.0;0.0;-0.196289;0.022949;0.996094;-0.42;-0.77;0.7;46.0;0.0;0.0;1.25;5.0;3.0;5.75;5.5;10.5;0.0;6.25;0.0;0.25;0.5;1.25;2.5;0.5;0.25;0.25;-0.205078;0.036133;0.984863;-0.7;-1.26;0.49;521.0;-0.138726;-0.202423
1.6;0.25;0.0;0.5;0.25;0.25;0.25;0.0;0.0;0.25;0.25;0.0;0.0;0.0;3.0;0.0;0.0;-0.194336;0.022461;0.994629;-0.35;-0.84;0.7;52.0;0.165836;0.108618;1.0;4.75;3.0;5.75;5.75;10.5;0.0;6.25;0.25;0.25;0.5;1.25;2.75;0.75;0.25;0.25;-0.20166;0.035645;0.994141;-0.7;-1.33;0.56;527.0;-0.129405;-0.199011
1.61;0.25;0.0;0.5;0.25;0.25;0.25;0.0;0.0;0.25;0.25;0.0;0.0;0.0;2.25;0.0;0.0;-0.192871;0.020508;0.991699;-0.28;-0.77;0.7;45.0;0.0;0.0;1.25;4.75;3.0;5.75;5.5;10.5;0.0;6.25;0.25;0.25;0.5;1.0;2.75;0.75;0.25;0.25;-0.206543;0.041992;0.990234;-0.7;-1.4;0.56;523.0;-0.132769;-0.198312
1.62;0.5;0.0;0.75;0.25;0.25;0.0;0.0;0.25;0.5;0.25;0.0;0.25;0.0;2.75;0.0;0.0;-0.195801;0.024414;0.999023;-0.35;-0.35;0.63;63.0;0.120836;0.081129;1.25;5.0;3.0;5.5;5.5;10.5;0.0;6.25;0.25;0.25;0.5;1.0;2.75;0.75;0.25;0.25;-0.208496;0.037598;0.990234;-0.7;-1.26;0.63;523.0;-0.13325;-0.198004
1.63;0.25;0.0;0.5;0.25;0.25;0.25;0.0;0.0;0.75;0.5;0.0;0.25;0.0;3.0;0.0;0.0;-0.193359;0.018555;0.994629;-0.42;0.07;0.63;65.0;0.180881;0.106941;1.75;5.0;3.0;5.5;5.75;10.5;0.0;6.25;0.0;0.25;0.5;1.0;3.0;1.0;0.25;0.25;-0.20752;0.040527;0.990723;-0.77;-1.12;0.49;533.0;-0.134971;-0.195987
1.64;0.25;0.0;0.75;0.25;0.25;0.25;0.0;0.0;0.5;0.25;0.0;0.25;0.0;3.0;0.0;0.0;-0.188965;0.018066;1.003906;-0.35;0.28;0.63;62.0;0.151674;0.09834;1.5;5.0;3.0;5.75;5.5;10.5;0.0;6.25;0.0;0.5;0.5;1.0;2.75;1.0;0.0;0.25;-0.208008;0.039062;0.987793;-0.77;-1.05;0.56;528.0;-0.13674;-0.19728
1.65;0.25;0.0;0.5;0.25;0.25;0.25;0.0;0.0;0.5;0.25;0.0;0.25;0.0;2.5;0.0;0.0;-0.196777;0.021484;0.999023;-0.28;0.7;0.7;54.0;0.152783;0.09202;1.75;5.25;3.0;5.5;5.75;10.5;0.0;6.25;0.0;0.25;0.5;1.0;2.75;0.75;0.25;0.5;-0.208984;0.043457;0.989746;-0.91;-0.84;0.49;532.0;-0.138663;-0.196625
1.66;0.25;0.0;0.5;0.25;0.25;0.25;0.0;0.0;0.75;0.25;0.25;0.25;0.0;2.75;0.0;0.0;-0.191406;0.022949;0.99707;-0.28;1.19;0.63;63.0;0.171647;0.096108;1.5;5.25;3.0;5.75;5.75;10.5;0.0;6.25;0.0;0.25;0.75;1.0;3.0;1.0;0.25;0.25;-0.202637;0.036621;0.991211;-0.98;-0.84;0.49;538.0;-0.133812;-0.197184
1.67;0.0;0.0;0.25;0.25;0.25;0.0;0.0;0.25;0.5;0.25;0.0;0.0;0.0;2.75;0.0;0.0;-0.193359;0.021484;0.991211;-0.28;1.47;0.49;49.0;0.0;0.0;1.5;5.0;3.0;5.5;5.75;10.0;0.0;6.25;0.0;0.25;0.5;1.0;2.5;0.75;0.0;0.25;-0.206543;0.035156;0.992188;-1.05;-0.77;0.35;514.0;-0.141583;-0.19666
1.68;0.25;0.25;0.25;0.0;0.25;0.0;0.0;0.25;0.5;0.25;0.0;0.25;0.0;2.75;0.0;0.0;-0.189453;0.019043;0.98584;-0.28;1.61;0.49;54.0;0.189579;0.08421;1.5;4.5;3.0;5.75;5.75;10.25;0.0;6.25;0.0;0.25;0.5;1.0;2.5;0.75;0.0;0.25;-0.205566;0.043457;0.991699;-1.12;-0.77;0.35;515.0;-0.139802;-0.197563
1.69;0.25;0.25;0.25;0.25;0.25;0.0;0.0;0.25;0.5;0.25;0.0;0.25;0.0;3.0;0.0;0.0;-0.188965;0.021484;0.994141;-0.42;1.54;0.56;59.0;0.174199;0.072243;1.0;4.5;3.0;5.75;5.75;10.5;0.0;6.25;0.0;0.25;1.0;1.25;2.5;1.0;0.25;0.25;-0.205566;0.041016;0.992676;-1.19;-0.63;0.28;526.0;-0.125733;-0.198646
1.7;0.25;0.0;0.25;0.25;0.0;0.25;0.0;0.25;0.75;0.25;0.0;0.0;0.0;3.25;0.0;0.0;-0.197266;0.024414;0.998047;-0.49;1.68;0.49;60.0;0.210504;0.099633;1.0;4.5;3.0;5.75;6.0;10.5;0.0;6.25;0.0;0.25;1.0;1.25;3.0;0.5;0.25;0.25;-0.205566;0.038574;0.987305;-1.33;-0.91;0.35;529.0;-0.127827;-0.202814
1.71;0.25;0.0;0.5;0.25;0.0;0.25;0.0;0.25;0.75;0.25;0.0;0.0;0.25;2.75;0.0;0.0;-0.188965;0.022461;0.996094;-0.56;1.54;0.49;61.0;0.169376;0.071269;1.0;4.5;3.0;5.75;5.75;10.5;0.0;6.25;0.25;0.5;0.5;1.25;2.75;0.75;0.0;0.25;-0.203125;0.035645;0.986328;-1.26;-0.91;0.35;524.0;-0.128955;-0.198382
1.72;0.25;0.0;0.25;0.25;0.0;0.0;0.0;0.25;0.5;0.5;0.0;0.0;0.0;2.5;0.0;0.25;-0.187012;0.025391;0.987793;-0.49;1.61;0.42;51.0;0.206768;0.084301;1.5;4.5;3.0;5.75;6.0;10.5;0.0;6.25;0.0;0.5;0.25;1.0;2.75;0.25;0.0;0.25;-0.206055;0.04248;0.986328;-1.19;-1.05;0.28;519.0;-0.143263;-0.200072
1.73;0.25;0.0;0.25;0.25;0.25;0.0;0.0;0.0;0.5;0.75;0.25;0.0;0.0;2.75;0.0;0.0;-0.193848;0.024414;0.993652;-0.63;1.61;0.42;56.0;0.21249;0.121671;1.5;4.5;3.0;5.75;6.25;10.5;0.0;6.25;0.0;0.25;0.25;1.0;2.25;0.25;0.25;0.25;-0.203125;0.038574;0.987793;-1.19;-1.19;0.28;517.0;-0.145063;-0.196969
1.74;0.0;0.0;0.25;0.25;0.25;0.25;0.0;0.25;0.5;0.5;0.0;0.0;0.0;2.75;0.0;0.0;-0.189453;0.022949;0.994629;-0.56;1.4;0.42;55.0;0.205193;0.077074;1.25;4.5;3.0;5.75;6.0;10.5;0.0;6.25;0.0;0.25;0.5;1.0;2.25;0.5;0.0;0.25;-0.206055;0.039551;0.992188;-1.05;-1.33;0.28;513.0;-0.142254;-0.198659
1.75;0.0;0.0;0.25;0.25;0.25;0.25;0.0;0.25;0.5;0.5;0.0;0.25;0.0;2.75;0.0;0.0;-0.186035;0.020996;0.992188;-0.63;1.4;0.42;57.0;0.205285;0.05834;1.75;4.5;3.25;5.75;6.25;10.25;0.0;6.25;0.0;0.25;0.5;1.0;2.5;1.0;0.25;0.5;-0.209961;0.038086;0.992188;-1.05;-1.47;0.35;534.0;-0.135021;-0.189456
1.76;0.25;0.0;0.25;0.25;0.25;0.0;0.0;0.0;0.5;0.5;0.25;0.25;0.25;2.75;0.0;0.0;-0.197754;0.02832;0.995605;-0.56;1.12;0.56;58.0;0.209126;0.080286;1.25;4.5;3.25;5.75;6.0;10.0;0.0;6.25;0.0;0.5;0.5;1.0;2.25;0.5;0.25;0.5;-0.203125;0.037598;0.991699;-0.98;-1.33;0.28;518.0;-0.136282;-0.194351
1.77;0.25;0.0;0.25;0.25;0.0;0.0;0.0;0.0;0.75;0.5;0.25;0.0;0.25;2.75;0.0;0.0;-0.195801;0.021484;0.993652;-0.63;1.12;0.56;56.0;0.230149;0.113059;1.25;4.5;3.25;5.75;6.0;10.5;0.25;6.25;0.0;0.25;0.5;1.25;2.25;0.5;0.25;0.25;-0.205078;0.038574;0.993164;-0.91;-1.33;0.35;526.0;-0.136311;-0.193432
1.78;0.25;0.0;0.25;0.25;0.25;0.0;0.0;0.0;0.5;0.5;0.0;0.25;0.0;2.25;0.0;0.0;-0.192871;0.023926;0.996094;-0.56;0.98;0.49;48.0;0.0;0.0;1.5;4.5;3.0;5.75;6.25;10.5;0.25;6.25;0.0;0.25;0.5;1.0;2.5;0.75;0.25;0.25;-0.20459;0.03418;0.996582;-0.84;-1.19;0.42;531.0;-0.135044;-0.191023
1.79;0.25;0.25;0.25;0.25;0.25;0.0;0.0;0.0;0.5;0.5;0.0;0.0;0.0;2.75;0.0;0.0;-0.195312;0.024902;0.992676;-0.63;0.84;0.63;53.0;0.180183;0.123911;1.25;4.75;3.0;5.75;6.5;10.5;0.0;6.5;0.25;0.5;0.75;1.25;2.5;1.0;0.25;0.25;-0.201172;0.038574;0.989746;-0.84;-1.12;0.35;548.0;-0.125077;-0.190094
1.8;0.25;0.25;0.25;0.25;0.0;0.25;0.0;0.0;0.75;0.25;0.0;0.0;0.0;2.75;0.0;0.0;-0.19043;0.021484;0.995605;-0.63;0.56;0.63;53.0;0.1807;0.118586;1.5;5.0;3.0;5.75;6.25;10.25;0.0;6.5;0.0;0.5;1.0;1.0;2.5;1.0;0.25;0.25;-0.20459;0.037598;0.991211;-0.7;-1.05;0.42;544.0;-0.130155;-0.19147
1.81;0.25;0.0;0.25;0.0;0.0;0.25;0.0;0.25;0.5;0.25;0.0;0.0;0.0;2.5;0.0;0.0;-0.192871;0.024414;0.993164;-0.56;0.14;0.7;46.0;0.0;0.0;1.75;5.0;3.25;5.75;6.5;10.25;0.0;6.25;0.0;0.25;1.0;1.0;2.5;1.0;0.0;0.0;-0.203613;0.039062;0.990723;-0.63;-0.84;0.56;541.0;-0.139357;-0.186964
1.82;0.25;0.0;0.25;0.0;0.25;0.25;0.0;0.0;0.5;0.25;0.0;0.25;0.0;2.75;0.0;0.0;-0.195801;0.02832;0.987793;-0.56;0.07;0.63;50.0;0.216463;0.115059;1.5;4.75;3.25;5.75;6.5;10.5;0.0;6.25;0.25;0.25;1.0;1.0;2.5;1.0;0.0;0.0;-0.203613;0.039062;0.992188;-0.56;-0.84;0.49;543.0;-0.134156;-0.186033
1.83;0.25;0.0;0.25;0.25;0.25;0.0;0.0;0.0;0.75;0.25;0.0;0.25;0.0;2.5;0.0;0.0;-0.19043;0.026855;0.994629;-0.63;-0.07;0.63;52.0;0.202335;0.125899;1.25;4.5;3.0;5.75;6.25;10.5;0.0;6.25;0.25;0.25;0.75;1.0;2.5;1.0;0.25;0.25;-0.208008;0.035645;0.990234;-0.49;-0.84;0.49;533.0;-0.128333;-0.190833
1.84;0.25;0.25;0.25;0.25;0.25;0.0;0.0;0.0;0.25;0.25;0.0;0.0;0.0;2.75;0.0;0.0;-0.195312;0.024902;0.993652;-0.49;-0.07;0.7;46.0;0.0;0.0;1.5;4.5;3.0;5.75;6.0;10.25;0.0;6.25;0.25;0.25;0.75;1.0;2.5;1.0;0.25;0.25;-0.205566;0.035156;0.992676;-0.56;-0.63;0.49;530.0;-0.129685;-0.1902
1.85;0.25;0.0;0.25;0.25;0.25;0.0;0.0;0.0;0.25;0.25;0.0;0.25;0.0;3.0;0.0;0.25;-0.1875;0.024902;0.992676;-0.56;0.07;0.7;51.0;0.218666;0.096756;1.5;4.5;3.0;5.75;6.0;10.25;0.0;6.25;0.0;0.25;0.75;1.0;2.5;1.0;0.25;0.25;-0.206055;0.039551;0.990723;-0.56;-0.7;0.49;526.0;-0.132309;-0.193359
1.86;0.25;0.0;0.5;0.0;0.25;0.25;0.0;0.0;0.5;0.25;0.25;0.25;0.0;2.75;0.0;0.0;-0.191406;0.022949;0.995117;-0.56;-0.0;0.56;56.0;0.190767;0.101896;1.0;4.5;3.0;5.75;6.0;10.25;0.0;6.25;0.0;0.25;0.75;1.0;2.5;1.0;0.25;0.25;-0.203613;0.037598;0.991699;-0.56;-0.7;0.56;520.0;-0.129363;-0.196644
1.87;0.25;0.0;0.5;0.25;0.25;0.0;0.0;0.0;0.5;0.25;0.0;0.0;0.0;3.0;0.0;0.0;-0.192871;0.024414;0.992188;-0.63;0.07;0.63;53.0;0.189902;0.141363;1.5;4.5;3.0;5.75;6.0;10.5;0.0;6.25;0.0;0.0;1.0;1.0;2.75;0.75;0.0;0.25;-0.204102;0.039551;0.994629;-0.49;-0.56;0.56;526.0;-0.136483;-0.19822
1.88;0.25;0.0;0.5;0.0;0.25;0.0;0.0;0.25;0.75;0.5;0.0;0.0;0.0;3.0;0.0;0.0;-0.19043;0.019043;0.996582;-0.77;0.07;0.56;60.0;0.205999;0.127006;1.0;4.25;3.0;5.75;5.75;10.25;0.0;6.5;0.0;0.0;1.0;1.0;2.5;0.75;0.0;0.25;-0.200195;0.043457;0.984375;-0.56;-0.56;0.63;514.0;-0.132542;-0.203201
1.89;0.25;0.0;0.5;0.0;0.0;0.25;0.0;0.0;0.75;0.25;0.0;0.0;0.0;3.0;0.0;0.0;-0.189453;0.023926;0.993652;-0.7;-0.0;0.49;53.0;0.219843;0.15226;1.25;4.75;3.0;5.5;5.75;10.25;0.0;6.5;0.0;0.25;0.5;1.25;2.5;1.0;0.25;0.25;-0.20459;0.044434;0.994629;-0.63;-0.56;0.56;524.0;-0.130493;-0.198696
1.9;0.25;0.0;0.75;0.25;0.25;0.0;0.0;0.0;0.75;0.25;0.0;0.0;0.0;3.0;0.0;0.25;-0.192383;0.017578;0.998535;-0.63;0.14;0.42;61.0;0.175097;0.135475;1.25;4.75;3.0;5.5;5.75;10.5;0.0;6.25;0.25;0.25;0.5;1.25;2.5;1.0;0.25;0.0;-0.204102;0.036133;0.98291;-0.7;-0.49;0.56;525.0;-0.130303;-0.194038
1.91;0.25;0.0;0.25;0.25;0.25;0.0;0.0;0.0;0.75;0.25;0.0;0.25;0.0;2.75;0.0;0.25;-0.193359;0.018555;0.999023;-0.63;0.28;0.42;55.0;0.215374;0.116303;1.0;4.25;3.0;5.75;5.75;10.25;0.0;6.25;0.0;0.5;0.75;1.75;2.5;1.0;0.25;0.25;-0.200195;0.041016;0.993652;-0.7;-0.56;0.42;526.0;-0.120464;-0.198469
1.92;0.25;0.0;0.25;0.25;0.25;0.25;0.0;0.0;0.75;0.25;0.0;0.25;0.0;3.25;0.0;0.0;-0.190918;0.026367;0.995605;-0.63;0.35;0.56;61.0;0.209043;0.112486;1.0;4.25;3.0;5.75;6.0;10.25;0.0;6.25;0.0;0.5;0.75;1.25;2.5;0.75;0.0;0.25;-0.209473;0.039062;0.992676;-0.77;-0.63;0.49;518.0;-0.129457;-0.198219
1.93;0.25;0.0;0.25;0.25;0.25;0.25;0.0;0.0;0.75;0.5;0.0;0.25;0.0;3.25;0.0;0.0;-0.194336;0.026855;0.994629;-0.63;0.42;0.42;64.0;0.210438;0.110341;1.5;4.5;3.0;5.75;5.75;10.25;0.0;6.25;0.0;0.5;0.75;1.25;2.5;0.75;0.0;0.25;-0.200684;0.041016;0.992188;-0.63;-0.7;0.49;524.0;-0.133822;-0.196234
1.94;0.25;0.0;0.25;0.25;0.25;0.25;0.0;0.0;0.75;0.25;0.25;0.0;0.0;3.0;0.25;0.0;-0.197266;0.024902;0.994629;-0.7;0.56;0.42;62.0;0.211479;0.109515;1.25;4.0;2.75;5.75;5.5;10.0;0.0;6.5;0.0;0.5;0.25;1.0;2.75;1.0;0.0;0.25;-0.203125;0.038574;0.991211;-0.77;-0.56;0.49;507.0;-0.129753;-0.202501
1.95;0.5;0.0;0.25;0.25;0.25;0.25;0.0;0.25;0.75;0.25;0.0;0.25;0.0;3.25;0.25;0.0;-0.194336;0.025391;0.994141;-0.63;0.49;0.42;71.0;0.179842;0.075092;1.0;4.0;3.0;5.5;5.5;10.25;0.0;6.25;0.0;0.25;0.25;1.0;2.75;1.0;0.25;0.5;-0.204102;0.036621;0.987793;-0.91;-0.63;0.56;504.0;-0.126798;-0.202343
1.96;0.5;0.25;0.25;0.25;0.25;0.0;0.0;0.0;0.75;0.5;0.0;0.25;0.0;3.25;0.0;0.0;-0.191895;0.024414;0.998047;-0.63;0.21;0.49;67.0;0.176894;0.116931;1.25;4.25;3.0;5.75;5.5;10.25;0.0;6.25;0.0;0.25;0.5;1.0;2.75;1.0;0.0;0.5;-0.202637;0.038574;0.992188;-0.91;-0.7;0.49;513.0;-0.131708;-0.200771
1.97;0.5;0.25;0.5;0.0;0.25;0.0;0.0;0.0;0.75;0.25;0.25;0.0;0.0;3.25;0.0;0.0;-0.192383;0.018555;1.000488;-0.63;0.14;0.56;64.0;0.175558;0.14224;1.25;4.0;3.0;5.5;5.5;10.5;0.0;6.25;0.25;0.25;0.5;1.25;3.0;1.0;0.0;0.5;-0.210938;0.039062;0.990234;-0.91;-0.84;0.49;519.0;-0.123613;-0.199646
1.98;0.25;0.0;0.25;0.25;0.25;0.0;0.0;0.0;0.75;0.25;0.25;0.0;0.0;3.25;0.0;0.0;-0.193359;0.018555;0.992188;-0.7;-0.0;0.56;58.0;0.228358;0.141082;1.0;4.25;2.75;5.5;5.5;10.0;0.25;6.25;0.25;0.5;0.75;1.25;3.0;1.0;0.25;0.5;-0.203613;0.037598;0.983398;-0.91;-0.84;0.42;522.0;-0.113941;-0.195986
1.99;0.25;0.0;0.25;0.25;0.25;0.25;0.0;0.0;0.75;0.5;0.25;0.0;0.0;3.25;0.0;0.0;-0.193848;0.021973;0.996094;-0.7;-0.0;0.63;64.0;0.211286;0.118512;1.25;4.0;3.0;5.5;5.75;10.0;0.25;6.25;0.0;0.5;0.75;1.25;2.5;1.0;0.25;0.5;-0.205078;0.035645;0.988281;-0.84;-0.91;0.35;521.0;-0.120109;-0.192147
2.0;0.5;0.25;0.25;0.0;0.25;0.25;0.0;0.0;0.75;0.5;0.25;0.25;0.25;3.25;0.0;0.0;-0.188965;0.024414;0.993164;-0.63;-0.0;0.49;72.0;0.184366;0.086841;1.25;3.75;2.75;5.75;5.75;10.0;0.0;6.25;0.25;0.5;1.0;1.0;2.75;1.0;0.25;0.5;-0.20459;0.038574;0.992676;-0.84;-0.91;0.49;520.0;-0.116388;-0.194579
2.01;0.5;0.25;0.25;0.0;0.25;0.25;0.0;0.25;0.75;0.5;0.25;0.0;0.25;3.0;0.0;0.0;-0.193848;0.022949;0.996094;-0.63;0.07;0.7;71.0;0.164389;0.071313;1.25;3.75;2.75;5.75;5.75;10.0;0.0;6.25;0.25;0.5;0.75;1.25;2.75;1.0;0.25;0.5;-0.19873;0.040039;0.981445;-0.84;-0.77;0.35;520.0;-0.11647;-0.195569
2.02;0.5;0.25;0.25;0.25;0.25;0.25;0.0;0.25;0.75;0.5;0.25;0.25;0.25;3.25;0.25;0.0;-0.191895;0.015625;0.992676;-0.7;-0.0;0.56;82.0;0.16492;0.045185;1.0;3.75;2.75;5.75;6.0;10.25;0.25;6.25;0.0;0.25;0.5;1.0;2.75;1.0;0.25;0.5;-0.20459;0.040527;0.98877;-0.91;-0.84;0.49;515.0;-0.121859;-0.197269
2.03;0.5;0.25;0.5;0.25;0.25;0.25;0.0;0.25;0.75;0.5;0.25;0.25;0.25;3.25;0.0;0.0;-0.192871;0.020508;0.994141;-0.63;-0.07;0.56;82.0;0.140437;0.051267;1.0;4.0;2.75;5.5;6.0;10.25;0.0;6.25;0.0;0.25;0.75;1.25;2.75;1.0;0.25;0.5;-0.204102;0.039062;0.990723;-0.91;-0.84;0.49;516.0;-0.120177;-0.200561
2.04;0.5;0.0;0.5;0.25;0.25;0.25;0.0;0.0;0.75;0.75;0.25;0.0;0.0;3.25;0.0;0.0;-0.189453;0.023438;0.991699;-0.63;0.07;0.56;73.0;0.168689;0.114794;1.0;4.0;2.75;5.5;5.75;10.25;0.25;6.25;0.0;0.25;1.0;1.25;2.75;1.0;0.25;0.5;-0.203613;0.043457;0.989258;-0.77;-1.05;0.42;520.0;-0.116656;-0.198097
2.05;0.5;0.0;0.25;0.25;0.25;0.25;0.0;0.0;0.75;0.25;0.25;0.0;0.0;3.25;0.0;0.0;-0.187012;0.024414;0.990234;-0.63;-0.0;0.63;64.0;0.182945;0.120506;1.0;3.75;2.75;5.75;5.75;10.25;0.0;6.25;0.0;0.25;0.75;1.0;2.5;1.0;0.25;0.5;-0.206055;0.036133;0.990723;-0.91;-0.84;0.42;508.0;-0.12287;-0.200675
2.06;0.25;0.0;0.25;0.0;0.5;0.25;0.0;0.0;1.0;0.25;0.0;0.25;0.25;3.25;0.0;0.0;-0.1875;0.016602;0.995117;-0.63;0.07;0.63;67.0;0.21739;0.113753;1.0;3.75;2.75;5.75;6.0;10.25;0.0;6.25;0.25;0.25;0.75;1.25;2.5;1.0;0.25;0.5;-0.200195;0.036621;0.989258;-0.91;-0.84;0.35;518.0;-0.11842;-0.196401
2.07;0.25;0.0;0.5;0.25;0.5;0.25;0.0;0.0;0.75;0.5;0.25;0.0;0.0;3.5;0.0;0.0;-0.191406;0.018066;0.99707;-0.63;0.21;0.49;73.0;0.183811;0.116819;1.0;3.75;2.75;5.75;5.75;10.25;0.0;6.25;0.25;0.25;0.75;1.25;2.75;1.0;0.25;0.25;-0.205566;0.038086;0.98877;-0.84;-0.84;0.35;516.0;-0.11844;-0.198777
2.08;0.25;0.0;0.25;0.25;0.5;0.0;0.0;0.0;0.75;0.5;0.25;0.25;0.0;3.5;0.25;0.25;-0.194336;0.024414;0.990234;-0.77;0.28;0.56;74.0;0.229031;0.101173;1.0;4.0;2.75;5.75;6.0;10.25;0.0;6.25;0.0;0.5;0.75;1.0;3.0;1.0;0.25;0.25;-0.207031;0.037109;0.987793;-0.77;-0.7;0.28;520.0;-0.121049;-0.199595
2.09;0.25;0.0;0.25;0.25;0.25;0.25;0.0;0.25;0.75;0.25;0.25;0.25;0.0;3.5;0.25;0.0;-0.186523;0.020508;0.996094;-0.7;0.28;0.49;74.0;0.211361;0.069615;1.25;4.0;3.0;5.75;6.0;10.0;0.0;6.25;0.0;0.25;0.5;1.25;2.75;1.0;0.25;0.5;-0.20752;0.044434;0.986816;-0.77;-0.77;0.35;519.0;-0.125264;-0.197364
2.1;0.25;0.25;0.5;0.25;0.25;0.25;0.0;0.25;0.75;0.25;0.0;0.25;0.0;3.5;0.0;0.0;-0.192383;0.024414;0.991211;-0.77;0.14;0.56;74.0;0.161814;0.075478;1.0;4.0;2.5;5.5;5.75;10.0;0.0;6.25;0.0;0.25;0.5;1.25;2.75;1.0;0.5;0.5;-0.209961;0.033691;0.986328;-0.84;-0.77;0.42;507.0;-0.118053;-0.203239
2.11;0.25;0.0;0.5;0.25;0.25;0.25;0.0;0.25;0.75;0.25;0.0;0.25;0.0;3.25;0.0;0.0;-0.189941;0.020508;0.992188;-0.77;0.21;0.56;69.0;0.174549;0.080885;1.0;3.75;2.5;5.75;5.75;10.0;0.0;6.25;0.0;0.25;0.75;1.25;2.5;1.0;0.25;0.5;-0.204102;0.040039;0.991211;-0.77;-0.98;0.42;505.0;-0.119945;-0.202539
2.12;0.25;0.0;0.5;0.25;0.25;0.25;0.0;0.25;0.75;0.5;0.25;0.0;0.0;3.75;0.0;0.0;-0.189941;0.020996;0.992188;-0.77;0.07;0.49;76.0;0.192254;0.093049;1.0;3.75;2.75;5.75;5.75;10.0;0.0;6.25;0.0;0.25;0.75;1.25;3.0;1.25;0.25;0.5;-0.205566;0.037598;0.984863;-0.84;-0.91;0.42;515.0;-0.115761;-0.201468
2.13;0.5;0.25;0.25;0.25;0.25;0.25;0.0;0.25;0.75;0.75;0.0;0.0;0.0;3.75;0.0;0.0;-0.190918;0.026855;0.991699;-0.7;0.14;0.56;78.0;0.16954;0.092009;1.0;3.25;2.75;5.75;5.75;10.0;0.0;6.25;0.0;0.25;0.5;1.25;2.75;1.0;0.25;0.5;-0.203613;0.040039;0.994141;-0.91;-0.84;0.35;503.0;-0.118466;-0.20284
2.14;0.5;0.0;0.25;0.25;0.25;0.25;0.0;0.25;1.0;0.5;0.0;0.25;0.0;3.75;0.0;0.0;-0.193848;0.020996;0.993164;-0.84;0.14;0.56;80.0;0.190843;0.095318;1.0;3.5;2.75;5.5;6.0;10.25;0.0;6.25;0.25;0.25;0.5;1.25;2.5;1.0;0.25;0.5;-0.205566;0.035156;0.990234;-0.77;-0.77;0.28;509.0;-0.117882;-0.196834
2.15;0.5;0.0;0.5;0.25;0.5;0.25;0.0;0.25;0.75;0.25;0.25;0.0;0.0;3.75;0.0;0.0;-0.191406;0.020996;0.99707;-0.7;0.28;0.63;79.0;0.157193;0.093464;1.0;3.75;2.75;5.5;6.0;10.0;0.0;6.25;0.0;0.5;0.5;1.25;2.5;1.0;0.25;0.75;-0.201172;0.040527;0.992188;-0.84;-0.84;0.35;510.0;-0.118397;-0.19843
2.16;0.5;0.0;0.5;0.25;0.5;0.25;0.0;0.25;1.0;0.75;0.0;0.0;0.0;3.75;0.0;0.0;-0.1875;0.016113;0.996094;-0.63;0.07;0.56;86.0;0.164579;0.106067;1.25;3.5;2.5;5.5;5.75;10.0;0.0;6.25;0.0;0.25;0.75;1.25;2.75;1.25;0.25;0.5;-0.19873;0.038086;0.987305;-0.84;-0.84;0.28;507.0;-0.115278;-0.200315
2.17;0.75;0.0;0.75;0.25;0.5;0.25;0.0;0.25;0.75;0.25;0.0;0.25;0.0;3.5;0.0;0.0;-0.192383;0.020508;0.993164;-0.63;0.21;0.63;83.0;0.114622;0.085127;1.25;3.75;2.75;5.5;5.75;10.0;0.0;6.25;0.25;0.25;1.0;1.25;2.5;1.25;0.25;0.5;-0.203613;0.044922;0.993164;-0.98;-0.77;0.28;517.0;-0.114472;-0.193495
2.18;0.5;0.25;0.75;0.25;0.5;0.25;0.0;0.25;0.75;0.25;0.0;0.25;0.0;3.25;0.0;0.0;-0.188477;0.019531;0.997559;-0.56;0.07;0.56;80.0;0.107546;0.073691;1.0;3.5;2.5;5.5;6.0;10.0;0.0;6.25;0.0;0.25;1.0;1.25;2.5;1.0;0.25;0.5;-0.205078;0.036133;0.989258;-0.98;-0.91;0.28;505.0;-0.115546;-0.200532
2.19;0.5;0.25;0.5;0.25;0.5;0.0;0.0;0.25;0.75;0.25;0.0;0.0;0.25;3.5;0.0;0.0;-0.191895;0.027832;0.99707;-0.49;0.14;0.63;76.0;0.140228;0.087289;0.75;3.75;2.75;5.5;5.75;10.0;0.0;6.25;0.25;0.5;0.5;1.25;2.75;1.0;0.25;0.5;-0.208984;0.038086;0.990723;-0.98;-0.91;0.42;508.0;-0.114195;-0.199231
2.2;0.5;0.0;0.5;0.25;0.5;0.25;0.0;0.25;0.75;0.5;0.0;0.0;0.25;3.5;0.0;0.0;-0.190918;0.024414;0.996582;-0.56;0.28;0.63;79.0;0.150572;0.080981;1.0;3.75;2.75;5.25;5.75;10.0;0.0;6.25;0.25;0.5;0.75;1.25;2.75;1.0;0.25;0.5;-0.204102;0.040527;0.988281;-0.91;-0.77;0.35;511.0;-0.112875;-0.196909
2.21;0.75;0.0;0.5;0.25;0.75;0.0;0.0;0.25;0.75;0.25;0.25;0.0;0.0;3.5;0.25;0.0;-0.182129;0.021973;0.991211;-0.49;0.21;0.49;83.0;0.140386;0.097567;1.0;3.75;3.0;5.5;6.0;10.0;0.0;6.25;0.25;0.5;0.25;1.25;2.75;1.25;0.25;0.5;-0.206543;0.036621;0.991699;-0.98;-0.84;0.28;517.0;-0.116251;-0.193096
2.22;0.25;0.0;0.5;0.25;0.75;0.0;0.0;0.25;0.75;0.25;0.25;0.25;0.0;3.5;0.0;0.0;-0.188477;0.025879;0.994629;-0.42;0.21;0.7;77.0;0.172915;0.088659;1.0;3.5;3.0;5.5;6.0;10.0;0.0;6.25;0.25;0.5;0.25;1.25;2.5;1.25;0.25;0.5;-0.202637;0.040039;0.990234;-0.84;-0.63;0.35;512.0;-0.116087;-0.191992
2.23;0.25;0.0;0.75;0.25;0.75;0.0;0.0;0.0;0.75;0.25;0.25;0.25;0.0;3.75;0.0;0.25;-0.1875;0.021973;0.994141;-0.49;0.14;0.63;80.0;0.176266;0.108923;1.0;3.75;2.5;5.75;5.75;10.0;0.0;6.25;0.25;0.5;0.5;1.25;2.5;1.25;0.0;0.75;-0.208496;0.038086;0.98877;-0.98;-0.7;0.35;510.0;-0.116381;-0.197459
2.24;0.25;0.0;0.75;0.5;0.75;0.25;0.0;0.25;0.75;0.25;0.25;0.25;0.0;3.75;0.0;0.25;-0.195312;0.015625;0.991211;-0.42;0.07;0.56;90.0;0.141127;0.061872;1.0;3.75;2.5;5.75;5.75;10.0;0.0;6.25;0.25;0.5;0.5;0.75;2.75;1.5;0.25;0.25;-0.206543;0.041504;0.990723;-0.98;-0.7;0.35;508.0;-0.116147;-0.194542
2.25;0.25;0.0;0.75;0.5;0.75;0.25;0.0;0.25;0.75;0.5;0.0;0.25;0.0;3.75;0.0;0.25;-0.187012;0.023438;0.990723;-0.49;0.28;0.56;90.0;0.141572;0.067605;1.0;3.5;2.5;5.25;5.25;9.75;0.0;6.25;0.25;0.25;0.5;0.75;2.75;1.25;0.25;0.25;-0.208008;0.037598;0.988281;-0.98;-0.63;0.42;486.0;-0.116753;-0.200285
2.26;0.25;0.0;0.75;0.25;0.75;0.25;0.0;0.25;0.75;0.5;0.0;0.25;0.0;3.75;0.0;0.0;-0.188477;0.019531;0.993652;-0.49;0.21;0.63;85.0;0.152881;0.084527;1.0;3.5;2.5;5.25;5.5;9.75;0.0;6.25;0.0;0.25;0.75;1.0;2.5;1.5;0.25;0.25;-0.208984;0.038574;0.985352;-1.05;-0.77;0.28;491.0;-0.114486;-0.199168
2.27;0.25;0.25;0.75;0.25;0.75;0.25;0.0;0.25;0.75;0.25;0.25;0.25;0.0;3.25;0.0;0.0;-0.185547;0.021484;0.991211;-0.42;-0.0;0.7;83.0;0.120603;0.065523;1.0;3.5;2.5;5.75;5.75;10.0;0.0;6.25;0.25;0.25;1.0;0.25;2.75;1.75;0.25;0.25;-0.209961;0.038574;0.98584;-1.12;-0.63;0.35;505.0;-0.114055;-0.192391
2.28;0.25;0.25;0.75;0.25;0.75;0.25;0.0;0.25;1.0;0.25;0.0;0.0;0.25;3.25;0.0;0.0;-0.190918;0.022949;0.99707;-0.42;-0.0;0.63;83.0;0.121195;0.078334;1.0;3.5;2.5;5.0;5.5;9.75;0.0;6.25;0.25;0.25;1.0;1.0;2.5;1.5;0.0;0.5;-0.208008;0.04541;0.990723;-0.98;-0.7;0.35;493.0;-0.110378;-0.196115
2.29;0.5;0.0;0.5;0.25;0.5;0.25;0.0;0.25;1.0;0.5;0.0;0.25;0.25;3.5;0.0;0.25;-0.188477;0.024414;1.0;-0.49;0.07;0.63;87.0;0.160343;0.06972;1.0;3.5;2.5;5.0;5.5;10.0;0.0;6.25;0.25;0.25;1.0;1.0;2.5;2.25;0.25;0.25;-0.209473;0.038086;0.98584;-1.12;-0.7;0.35;504.0;-0.101838;-0.190416
2.3;0.5;0.0;0.5;0.25;0.5;0.25;0.0;0.25;1.0;0.75;0.25;0.25;0.25;3.5;0.0;0.25;-0.191406;0.022949;1.000488;-0.49;0.21;0.56;93.0;0.164826;0.063822;1.25;3.25;2.5;5.0;5.5;10.0;0.0;5.75;0.25;0.5;1.0;1.0;2.5;1.75;0.25;0.25;-0.203125;0.038086;0.989746;-1.19;-0.56;0.35;494.0;-0.10633;-0.18743
2.31;0.25;0.25;0.5;0.25;0.75;0.25;0.0;0.25;0.75;0.5;0.25;0.25;0.25;3.5;0.0;0.0;-0.191895;0.022949;0.999023;-0.49;0.14;0.56;88.0;0.147019;0.053451;1.0;3.25;2.5;5.0;5.5;10.0;0.0;5.75;0.0;0.5;0.5;1.25;2.5;2.0;0.25;0.25;-0.203125;0.035645;0.986328;-0.98;-0.56;0.35;488.0;-0.106834;-0.192273
2.32;0.25;0.25;0.5;0.25;0.75;0.25;0.0;0.25;0.75;0.25;0.25;0.25;0.25;3.5;0.0;0.0;-0.187012;0.021973;0.996094;-0.49;0.21;0.56;85.0;0.14388;0.0531;1.0;3.25;2.5;5.0;5.5;9.75;0.0;6.25;0.0;0.25;0.5;1.25;2.5;2.25;0.25;0.25;-0.206543;0.039062;0.98877;-1.12;-0.49;0.42;492.0;-0.104517;-0.194896
2.33;0.25;0.25;0.75;0.5;0.5;0.5;0.0;0.25;1.0;0.75;0.25;0.25;0.0;3.75;0.0;0.25;-0.188477;0.023438;0.991211;-0.49;-0.21;0.63;101.0;0.136179;0.054012;1.25;2.75;2.5;5.0;5.0;9.75;0.0;6.25;0.0;0.25;0.75;1.0;2.5;2.25;0.25;0.5;-0.207031;0.036133;0.992188;-1.12;-0.63;0.35;486.0;-0.101255;-0.195892
2.34;0.5;0.25;0.5;0.5;0.5;0.25;0.0;0.25;1.0;0.75;0.25;0.25;0.0;3.75;0.0;0.25;-0.186035;0.026367;0.998047;-0.49;-0.0;0.56;98.0;0.141858;0.064397;1.0;3.25;2.5;5.0;5.5;9.75;0.0;5.75;0.0;0.25;1.0;1.0;2.5;2.25;0.0;0.5;-0.207031;0.036621;0.984863;-1.05;-0.63;0.42;485.0;-0.105669;-0.191019
2.35;0.25;0.25;0.5;0.5;0.5;0.25;0.0;0.25;1.0;0.75;0.0;0.25;0.0;3.5;0.0;0.0;-0.186035;0.02002;0.999023;-0.56;-0.07;0.56;89.0;0.145792;0.07213;0.75;3.25;2.5;5.0;5.5;9.75;0.0;6.25;0.25;0.25;1.0;1.0;2.5;2.0;0.25;0.5;-0.204102;0.037109;0.984375;-1.12;-0.56;0.35;495.0;-0.099242;-0.193846
2.36;0.25;0.25;0.5;0.25;0.5;0.25;0.0;0.25;1.0;0.75;0.0;0.25;0.0;3.5;0.0;0.0;-0.1875;0.018066;0.996582;-0.56;-0.0;0.56;86.0;0.160936;0.082511;1.0;3.25;2.5;5.0;5.5;9.75;0.0;5.75;0.0;0.5;0.25;1.25;2.5;2.25;0.5;0.5;-0.206055;0.036133;0.991699;-1.12;-0.56;0.49;488.0;-0.101601;-0.190192
2.37;0.5;0.0;0.75;0.5;0.5;0.25;0.0;0.25;0.75;0.75;0.25;0.25;0.0;3.5;0.0;0.25;-0.187988;0.026855;0.991211;-0.56;-0.07;0.56;93.0;0.13245;0.060551;1.0;3.0;2.5;4.75;5.25;9.75;0.0;5.75;0.0;0.75;0.25;1.0;2.5;2.25;0.5;0.25;-0.208496;0.039551;0.992676;-1.12;-0.56;0.35;478.0;-0.099892;-0.189157
2.38;0.25;0.0;0.75;0.5;0.5;0.25;0.0;0.25;0.75;0.75;0.25;0.25;0.0;3.5;0.0;0.25;-0.185059;0.025879;0.992676;-0.56;-0.21;0.56;90.0;0.149268;0.059031;1.0;2.75;2.5;4.75;5.25;9.75;0.0;5.75;0.25;0.25;0.5;1.0;2.5;2.25;0.5;0.25;-0.206055;0.038574;0.992188;-1.12;-0.56;0.42;477.0;-0.097648;-0.188378
2.39;0.25;0.25;0.75;0.5;0.75;0.25;0.0;0.25;0.75;0.75;0.0;0.25;0.25;3.75;0.0;0.25;-0.192871;0.022461;0.991211;-0.63;-0.0;0.56;97.0;0.130702;0.048661;1.0;3.0;2.5;4.75;5.25;9.75;0.0;5.75;0.0;0.25;0.5;1.0;2.5;2.75;0.25;0.5;-0.202637;0.036133;0.990234;-1.12;-0.49;0.35;479.0;-0.098632;-0.189191
2.4;0.25;0.25;0.75;0.5;0.75;0.25;0.0;0.25;1.0;0.75;0.0;0.25;0.25;3.75;0.0;0.25;-0.1875;0.021973;0.993652;-0.7;0.14;0.49;101.0;0.135149;0.056652;1.0;3.0;2.5;4.75;5.25;9.75;0.0;5.75;0.0;0.5;0.75;1.0;2.5;3.0;0.25;0.5;-0.202637;0.037598;0.98584;-1.19;-0.56;0.42;487.0;-0.092306;-0.185534
2.41;0.25;0.25;0.75;0.25;1.0;0.5;0.0;0.25;1.0;0.75;0.0;0.0;0.25;3.5;0.0;0.25;-0.186035;0.026367;0.992188;-0.49;0.14;0.63;99.0;0.122779;0.062865;1.0;3.0;2.5;4.5;5.25;9.5;0.0;5.5;0.25;0.5;0.25;1.25;2.5;2.75;0.25;0.75;-0.205566;0.037598;0.987305;-1.12;-0.56;0.35;477.0;-0.091842;-0.18315
2.42;0.25;0.25;0.75;0.25;0.5;0.5;0.0;0.25;1.0;0.75;0.0;0.0;0.25;3.75;0.0;0.25;-0.187012;0.020508;0.994629;-0.63;-0.0;0.49;95.0;0.145513;0.065764;0.5;3.0;2.5;4.25;5.25;9.75;0.0;5.5;0.25;0.5;0.25;1.0;2.5;2.75;0.5;0.75;-0.20752;0.033691;0.987793;-1.12;-0.42;0.28;471.0;-0.086032;-0.18566
2.43;0.25;0.25;1.0;0.25;0.75;0.5;0.0;0.25;1.0;0.75;0.0;0.25;0.25;3.75;0.0;0.25;-0.186523;0.026367;0.991699;-0.63;0.14;0.42;104.0;0.12736;0.056297;0.5;3.0;2.25;4.25;5.25;9.75;0.0;5.5;0.25;0.25;0.5;1.25;2.25;3.0;0.75;0.5;-0.207031;0.038086;0.987305;-1.05;-0.42;0.35;472.0;-0.080375;-0.184993
2.44;0.25;0.25;0.75;0.5;0.75;0.5;0.0;0.25;1.0;0.75;0.25;0.25;0.25;3.75;0.0;0.25;-0.183594;0.023926;0.996582;-0.56;0.07;0.63;107.0;0.129579;0.042856;0.5;3.25;2.5;4.25;5.25;9.75;0.0;5.75;0.25;0.25;0.75;1.0;2.5;2.75;0.75;0.25;-0.208496;0.036133;0.991211;-1.05;-0.63;0.35;480.0;-0.085149;-0.186587
2.45;0.25;0.0;0.75;0.5;0.75;0.5;0.0;0.25;1.0;0.75;0.0;0.0;0.25;4.0;0.0;0.25;-0.191895;0.01709;0.995605;-0.49;0.35;0.56;101.0;0.14479;0.065368;0.75;3.0;2.5;4.25;5.25;9.75;0.0;5.5;0.0;0.5;1.0;1.25;2.5;3.25;0.5;0.5;-0.200684;0.039062;0.990723;-0.98;-0.49;0.42;485.0;-0.079723;-0.182883
2.46;0.25;0.0;0.75;0.5;0.75;0.25;0.0;0.5;1.0;0.75;0.0;0.0;0.25;4.0;0.0;0.25;-0.19043;0.025879;0.990723;-0.56;0.35;0.56;102.0;0.147041;0.056578;0.5;3.0;2.5;4.75;5.25;9.75;0.0;5.5;0.0;0.25;0.75;1.0;2.5;3.25;0.75;0.5;-0.206055;0.036621;0.991211;-1.05;-0.42;0.35;482.0;-0.082934;-0.1857
2.47;0.25;0.25;0.75;0.25;0.75;0.5;0.0;0.25;1.25;0.5;0.25;0.0;0.0;4.0;0.25;0.25;-0.190918;0.024902;0.98877;-0.56;0.28;0.56;104.0;0.153741;0.078169;0.5;2.75;2.5;4.25;5.25;9.75;0.0;5.5;0.25;0.25;0.5;1.25;2.25;3.25;0.75;0.5;-0.209961;0.038086;0.989258;-0.98;-0.56;0.42;475.0;-0.077369;-0.181559
2.48;0.25;0.0;0.75;0.25;1.0;0.5;0.0;0.25;1.25;0.25;0.25;0.0;0.0;4.0;0.25;0.25;-0.185547;0.020996;0.994629;-0.42;0.35;0.49;102.0;0.157204;0.0841;0.75;3.25;2.5;4.25;5.25;9.75;0.0;5.5;0.25;0.25;0.75;1.0;2.25;3.0;1.0;0.5;-0.208984;0.036133;0.995605;-0.91;-0.42;0.35;483.0;-0.082201;-0.17977
2.49;0.5;0.0;0.75;0.25;1.0;0.5;0.0;0.25;1.5;0.25;0.25;0.25;0.0;4.0;0.0;0.25;-0.188477;0.024902;0.996094;-0.56;0.49;0.56;109.0;0.14058;0.085304;0.75;2.75;2.5;4.25;5.25;9.5;0.0;5.75;0.0;0.25;0.5;1.0;2.5;3.5;1.0;0.5;-0.20752;0.039551;0.980957;-0.98;-0.56;0.35;480.0;-0.075985;-0.182866
2.5;0.5;0.25;0.75;0.25;1.0;0.5;0.0;0.25;1.25;0.25;0.25;0.25;0.25;4.0;0.0;0.25;-0.188965;0.025879;0.995605;-0.42;0.49;0.42;110.0;0.124658;0.061665;0.5;2.25;2.25;4.25;5.0;9.5;0.0;5.5;0.0;0.25;0.25;1.0;2.25;3.5;1.0;0.5;-0.210938;0.037598;0.992676;-1.19;-0.42;0.28;457.0;-0.072346;-0.185355
2.51;0.5;0.0;0.75;0.25;1.0;0.5;0.0;0.25;1.25;0.75;0.0;0.25;0.0;4.25;0.0;0.25;-0.188477;0.025391;0.992188;-0.49;0.49;0.42;110.0;0.145506;0.085239;0.5;2.75;2.25;4.0;5.0;9.5;0.0;5.5;0.25;0.5;0.5;1.0;2.25;3.5;0.75;0.75;-0.205078;0.037598;0.992676;-1.05;-0.42;0.28;467.0;-0.070006;-0.180466
2.52;0.5;0.0;0.75;0.5;1.0;0.5;0.0;0.25;1.5;0.75;0.25;0.25;0.0;4.25;0.25;0.25;-0.187988;0.022949;0.991699;-0.49;0.49;0.49;122.0;0.146161;0.074552;0.75;2.5;2.0;4.0;5.25;9.25;0.0;5.5;0.0;0.25;0.5;1.25;2.25;3.5;0.75;0.75;-0.209473;0.036621;0.98584;-0.98;-0.35;0.35;460.0;-0.071399;-0.18414
2.53;0.75;0.0;0.75;0.25;1.0;0.5;0.25;0.25;1.25;0.75;0.25;0.25;0.25;4.25;0.25;0.25;-0.18457;0.023926;0.994141;-0.42;0.42;0.63;125.0;0.139271;0.07224;0.75;2.5;2.0;4.0;4.75;9.25;0.0;5.5;0.25;0.25;0.5;1.25;2.0;3.75;0.75;0.75;-0.209961;0.033691;0.98877;-1.05;-0.21;0.35;458.0;-0.066919;-0.180515
2.54;0.75;0.0;0.75;0.25;1.0;0.25;0.0;0.25;1.25;0.75;0.0;0.25;0.0;4.75;0.25;0.25;-0.185059;0.025879;0.99707;-0.63;0.56;0.49;117.0;0.156804;0.094454;0.75;2.5;2.0;4.0;4.75;9.25;0.0;5.5;0.25;0.25;0.25;1.0;2.25;3.75;0.75;0.75;-0.209961;0.037598;0.991211;-0.98;-0.14;0.35;455.0;-0.069282;-0.181652
2.55;0.5;0.25;0.75;0.25;1.0;0.5;0.0;0.25;1.25;0.75;0.0;0.0;0.0;4.75;0.25;0.25;-0.189941;0.021973;0.991211;-0.63;0.42;0.56;117.0;0.148908;0.088788;0.75;2.5;2.25;3.75;4.75;9.25;0.0;5.5;0.25;0.5;0.25;1.0;2.25;3.75;1.0;0.75;-0.208008;0.03418;0.989258;-1.12;-0.14;0.42;460.0;-0.064277;-0.177439
2.56;0.25;0.25;0.75;0.25;1.0;0.5;0.0;0.25;1.25;0.75;0.25;0.0;0.25;4.75;0.25;0.25;-0.185547;0.024902;0.99707;-0.42;0.14;0.42;120.0;0.164213;0.072589;0.75;2.25;2.0;4.0;4.75;9.25;0.0;5.5;0.25;0.5;0.5;0.75;2.25;3.75;0.5;0.75;-0.212402;0.041016;0.992676;-0.98;-0.21;0.28;452.0;-0.068323;-0.179685
2.57;0.25;0.0;0.75;0.25;1.0;0.5;0.0;0.25;1.0;0.75;0.25;0.25;0.25;4.5;0.25;0.25;-0.188477;0.022949;0.989746;-0.56;0.21;0.56;114.0;0.17018;0.060085;0.75;2.75;2.0;4.0;4.75;9.25;0.0;5.5;0.0;0.5;0.5;0.5;2.25;3.75;0.5;1.0;-0.203125;0.034668;0.983398;-1.12;-0.14;0.28;452.0;-0.075136;-0.182829
2.58;0.5;0.0;1.0;0.25;1.25;0.5;0.25;0.25;1.0;0.25;0.25;0.25;0.25;5.0;0.25;0.25;-0.183105;0.018555;0.997559;-0.7;0.21;0.56;126.0;0.142581;0.072042;0.75;2.5;2.25;3.75;4.75;9.0;0.0;5.5;0.0;0.5;0.75;1.0;2.5;3.75;0.75;1.0;-0.20752;0.037109;0.98584;-0.91;-0.21;0.35;460.0;-0.062971;-0.182051
2.59;0.5;0.25;0.75;0.25;1.25;0.5;0.25;0.25;1.5;0.25;0.25;0.25;0.25;5.0;0.0;0.25;-0.189941;0.026367;0.99707;-0.56;-0.21;0.63;130.0;0.141725;0.081562;0.75;2.5;2.0;4.0;4.75;9.0;0.0;5.25;0.0;0.25;0.75;1.0;2.5;3.75;0.5;0.75;-0.204102;0.040039;0.986816;-0.91;-0.21;0.42;449.0;-0.069886;-0.183997
2.6;0.25;0.25;0.75;0.5;1.0;0.5;0.25;0.5;1.5;0.75;0.25;0.5;0.25;5.0;0.0;0.25;-0.188477;0.022461;0.986328;-0.63;-0.14;0.56;140.0;0.150061;0.052255;1.0;2.5;2.0;3.75;4.75;9.0;0.0;5.25;0.0;0.25;0.5;1.0;2.25;4.0;0.75;0.75;-0.211426;0.035156;0.986328;-0.98;-0.35;0.42;449.0;-0.068128;-0.178335
2.61;0.5;0.25;0.75;0.5;1.0;0.5;0.25;0.5;1.5;0.75;0.25;0.25;0.25;5.0;0.25;0.0;-0.182617;0.018555;0.995605;-0.63;-0.14;0.56;141.0;0.140839;0.061623;1.0;2.25;2.0;3.75;4.5;9.0;0.0;5.25;0.25;0.5;0.5;1.0;2.0;4.25;0.75;0.75;-0.210449;0.041016;0.985352;-1.05;-0.28;0.35;450.0;-0.060025;-0.17155
2.62;0.5;0.25;0.75;0.5;1.0;0.5;0.25;0.25;1.5;0.75;0.25;0.25;0.25;5.0;0.25;0.25;-0.187012;0.020996;0.990723;-0.63;-0.14;0.63;138.0;0.147785;0.071246;0.75;2.25;1.75;3.5;4.25;9.0;0.0;5.25;0.25;0.25;0.75;1.0;1.75;4.0;0.75;0.75;-0.210449;0.038574;0.985352;-1.05;-0.28;0.35;433.0;-0.058176;-0.177932
2.63;0.5;0.25;1.0;0.25;1.0;0.5;0.25;0.25;1.5;1.0;0.25;0.25;0.25;5.0;0.25;0.25;-0.18457;0.021484;0.992676;-0.56;-0.28;0.49;141.0;0.149963;0.077771;0.5;2.25;1.75;3.5;4.5;8.75;0.0;5.0;0.25;0.25;0.25;1.0;2.25;4.0;1.0;0.75;-0.206543;0.034668;0.983398;-0.98;-0.35;0.35;428.0;-0.05433;-0.178719
2.64;0.5;0.25;1.0;0.5;1.25;0.5;0.25;0.5;1.75;1.25;0.25;0.25;0.25;5.25;0.0;0.25;-0.185547;0.021973;1.0;-0.56;-0.07;0.42;157.0;0.135322;0.067871;0.5;2.25;1.75;3.5;4.5;9.0;0.0;5.25;0.25;0.25;0.25;1.0;2.25;4.25;1.0;0.5;-0.208008;0.036133;0.988281;-0.98;-0.42;0.28;436.0;-0.053517;-0.179043
2.65;0.75;0.25;1.0;0.5;1.25;0.5;0.25;0.75;1.75;0.75;0.5;0.5;0.25;5.25;0.0;0.0;-0.187012;0.026367;1.000488;-0.49;-0.07;0.56;163.0;0.119354;0.050776;0.5;2.25;2.0;3.25;4.5;9.0;0.0;5.25;0.0;0.25;0.5;1.0;2.25;4.0;0.75;0.5;-0.209961;0.034668;0.984375;-0.91;-0.56;0.28;430.0;-0.059697;-0.18274
2.66;0.5;0.25;1.0;0.5;1.25;0.5;0.25;0.75;1.5;1.25;0.25;0.5;0.25;5.25;0.0;0.25;-0.180664;0.018555;0.995605;-0.49;-0.0;0.56;161.0;0.130101;0.044851;0.25;2.25;1.75;3.25;4.5;9.0;0.0;5.0;0.0;0.25;0.75;1.0;2.0;4.0;1.0;0.5;-0.208496;0.040527;0.990234;-1.05;-0.63;0.21;424.0;-0.052568;-0.181909
2.67;0.25;0.25;1.0;0.75;1.25;0.5;0.25;0.5;1.5;1.25;0.25;0.25;0.25;5.25;0.0;0.25;-0.192383;0.02832;0.998535;-0.42;0.14;0.49;154.0;0.13417;0.056616;0.25;2.25;1.75;3.5;4.5;9.0;0.0;5.0;0.25;0.25;0.5;1.0;2.25;4.0;1.0;0.75;-0.206055;0.036621;0.981934;-1.12;-0.7;0.28;431.0;-0.050856;-0.18084
2.68;0.5;0.25;1.0;0.75;1.25;0.5;0.25;0.5;1.5;1.25;0.25;0.25;0.25;5.5;0.25;0.25;-0.181152;0.023438;0.98584;-0.28;0.07;0.63;162.0;0.133625;0.056811;0.25;2.25;1.75;3.25;4.5;8.75;0.0;5.0;0.0;0.5;0.5;0.75;2.5;4.0;0.75;0.75;-0.213379;0.038086;0.992676;-1.05;-0.77;0.21;421.0;-0.05276;-0.183551
2.69;0.75;0.25;1.0;0.25;1.25;0.5;0.25;0.75;1.5;1.0;0.25;0.25;0.25;5.5;0.25;0.25;-0.188477;0.024902;1.000977;-0.35;0.14;0.63;160.0;0.134222;0.056491;0.25;2.25;1.75;3.0;4.75;8.75;0.0;5.0;0.0;0.5;0.5;0.75;2.25;3.75;0.75;0.5;-0.207031;0.03418;0.990234;-0.98;-0.77;0.35;415.0;-0.056928;-0.18146
2.7;0.5;0.25;0.75;0.25;1.25;0.5;0.25;0.75;2.0;1.0;0.5;0.5;0.25;5.75;0.25;0.25;-0.189941;0.026855;0.992188;-0.14;-0.07;0.63;169.0;0.16216;0.056975;0.25;2.25;2.0;3.5;4.5;9.0;0.0;5.0;0.25;0.25;0.5;1.0;2.0;4.25;1.0;0.5;-0.212891;0.038574;0.990234;-0.91;-0.63;0.21;433.0;-0.052488;-0.175029
2.71;0.25;0.25;1.0;0.25;1.25;0.5;0.0;0.75;1.75;1.25;0.25;0.5;0.0;5.75;0.25;0.25;-0.18457;0.023438;0.994141;-0.42;-0.0;0.56;160.0;0.164141;0.057881;0.25;1.75;1.75;3.25;4.5;9.0;0.0;5.0;0.25;0.25;0.5;1.25;2.0;4.0;1.0;0.75;-0.206543;0.035156;0.989746;-1.05;-0.56;0.28;424.0;-0.044291;-0.179918
2.72;0.5;0.25;0.75;0.25;1.25;0.5;0.0;0.75;1.5;1.5;0.25;0.5;0.25;5.5;0.0;0.25;-0.181152;0.023438;0.995605;-0.35;0.14;0.63;156.0;0.153429;0.046274;0.25;2.0;1.75;3.25;4.5;8.75;0.0;5.0;0.0;0.25;0.25;1.0;2.0;4.5;0.75;0.75;-0.212891;0.029785;0.981445;-1.05;-0.63;0.28;416.0;-0.049986;-0.1794
2.73;0.5;0.25;1.0;0.25;1.25;0.5;0.0;0.5;1.0;1.25;0.25;0.5;0.25;6.0;0.25;0.25;-0.185059;0.022461;0.999023;-0.28;0.07;0.63;152.0;0.155809;0.049665;0.25;2.0;2.0;3.25;4.5;8.75;0.0;5.0;0.25;0.25;0.25;1.0;2.0;4.25;1.0;0.5;-0.208008;0.037109;0.987793;-1.05;-0.7;0.21;421.0;-0.049823;-0.174437
2.74;0.25;0.0;1.0;0.5;1.25;0.75;0.25;0.75;1.25;1.25;0.25;0.5;0.25;6.0;0.25;0.25;-0.189941;0.018555;0.98877;-0.28;0.07;0.56;165.0;0.156584;0.039667;0.25;2.0;1.75;3.25;4.5;8.75;0.0;5.0;0.25;0.25;0.5;1.0;2.0;4.5;0.75;0.5;-0.208496;0.037109;0.990234;-1.12;-0.63;0.21;420.0;-0.046948;-0.174638
2.75;0.5;0.25;1.0;0.25;1.25;0.5;0.25;0.75;1.5;1.25;0.0;0.5;0.25;6.0;0.25;0.25;-0.187012;0.022949;1.0;-0.28;0.21;0.56;165.0;0.152823;0.05596;0.25;2.0;2.0;3.25;4.5;8.75;0.0;5.0;0.0;0.25;0.5;1.0;2.0;4.75;0.75;0.75;-0.207031;0.029785;0.987305;-1.19;-0.77;0.28;424.0;-0.047141;-0.175082
2.76;0.5;0.25;1.0;0.25;1.25;0.5;0.25;0.75;1.5;1.25;0.0;0.5;0.25;6.25;0.25;0.25;-0.185059;0.029785;0.995117;-0.21;0.14;0.63;167.0;0.156437;0.057653;0.25;2.25;2.0;3.0;4.5;8.75;0.0;4.75;0.0;0.25;0.5;1.0;2.25;4.5;1.0;0.25;-0.210938;0.031738;0.98877;-1.05;-0.7;0.21;419.0;-0.049086;-0.174472
2.77;0.5;0.25;1.25;0.25;1.25;1.0;0.25;0.75;1.5;1.0;0.25;0.25;0.25;6.25;0.25;0.25;-0.1875;0.020508;0.99707;-0.14;0.14;0.7;173.0;0.137323;0.049773;0.5;2.25;1.75;2.75;4.75;8.75;0.0;4.75;0.25;0.5;0.5;1.0;2.25;4.25;1.0;0.25;-0.206055;0.038086;0.987793;-1.12;-0.7;0.21;423.0;-0.046749;-0.168985
2.78;0.5;0.25;0.75;0.5;1.25;0.75;0.25;0.75;1.5;1.0;0.25;0.5;0.5;6.25;0.25;0.25;-0.179199;0.023926;0.996582;-0.28;0.21;0.7;172.0;0.150806;0.036399;0.25;2.25;1.75;2.75;4.5;8.5;0.0;4.75;0.25;0.75;0.75;0.75;2.0;4.5;0.5;0.5;-0.213379;0.035156;0.981445;-1.19;-0.56;0.21;413.0;-0.04439;-0.167065
2.79;0.25;0.25;1.0;0.5;1.25;0.75;0.25;1.0;1.5;1.0;0.25;0.25;0.5;6.25;0.5;0.25;-0.185059;0.022949;0.995117;-0.14;0.21;0.7;177.0;0.151892;0.029562;0.25;2.0;1.75;3.0;4.5;8.5;0.0;4.75;0.25;0.25;0.5;1.0;2.0;4.5;0.5;0.5;-0.210449;0.035645;0.987793;-1.12;-0.63;0.21;407.0;-0.047962;-0.171982
2.8;0.5;0.25;1.0;0.5;1.25;0.75;0.25;0.75;1.25;1.0;0.25;0.25;0.25;6.25;0.5;0.5;-0.182129;0.021484;0.995117;-0.21;0.21;0.77;171.0;0.146074;0.039807;0.25;2.0;1.75;2.75;4.0;8.75;0.0;4.5;0.25;0.0;0.5;1.0;2.0;4.5;0.75;0.5;-0.208984;0.039551;0.995605;-1.26;-0.49;0.28;397.0;-0.044918;-0.174597
2.81;0.75;0.25;1.0;0.5;1.25;0.75;0.25;0.75;1.0;1.0;0.5;0.25;0.25;6.25;0.25;0.5;-0.181641;0.021973;0.99707;-0.14;-0.14;0.7;170.0;0.131564;0.035465;0.5;2.0;1.75;2.75;4.5;8.75;0.0;4.5;0.0;0.0;0.25;1.0;2.0;4.5;0.75;0.25;-0.211426;0.034668;0.983887;-1.05;-0.63;0.21;398.0;-0.05483;-0.172967
2.82;0.75;0.25;1.0;0.5;1.25;1.0;0.25;1.0;1.5;1.25;0.25;0.5;0.25;6.5;0.0;0.5;-0.178711;0.020996;0.993164;-0.14;-0.07;0.7;187.0;0.129254;0.031386;0.25;1.75;1.75;2.75;4.25;8.5;0.0;4.75;0.0;0.25;0.25;1.0;1.75;4.75;0.5;0.5;-0.216309;0.035156;0.988281;-1.05;-0.63;0.28;393.0;-0.046524;-0.174068
2.83;0.75;0.25;1.0;0.5;1.25;1.0;0.25;1.0;1.25;1.25;0.25;0.5;0.5;6.5;0.25;0.5;-0.1875;0.023926;0.996094;-0.14;-0.21;0.7;188.0;0.131587;0.01889;0.25;1.75;1.75;2.75;4.25;7.75;0.0;4.75;0.25;0.25;0.25;1.0;1.75;4.25;0.25;0.5;-0.212891;0.035645;0.986328;-0.98;-0.63;0.21;380.0;-0.050232;-0.172514
2.84;0.5;0.25;1.25;0.75;1.25;1.0;0.25;1.0;1.0;1.0;0.25;0.5;0.5;6.5;0.25;0.25;-0.181641;0.025391;0.993652;-0.21;-0.14;0.63;184.0;0.120437;0.011708;0.25;2.0;1.5;2.75;4.25;7.75;0.0;4.75;0.25;0.25;0.25;0.75;2.0;4.5;0.5;0.5;-0.210449;0.034668;0.983398;-0.98;-0.63;0.35;384.0;-0.045298;-0.172615
2.85;0.5;0.25;1.0;0.75;1.25;1.25;0.25;1.0;1.5;1.0;0.25;0.25;0.75;6.5;0.0;0.25;-0.186035;0.027344;0.993652;-0.21;-0.35;0.7;187.0;0.122464;0.016171;0.25;1.75;1.5;2.75;4.0;7.75;0.0;4.5;0.25;0.25;0.25;0.75;1.75;4.25;0.75;0.5;-0.20752;0.033691;0.98584;-0.98;-0.56;0.35;372.0;-0.043236;-0.171752
2.86;0.75;0.25;1.25;0.75;1.25;1.25;0.25;1.0;1.5;1.0;0.25;0.25;0.5;6.75;0.25;0.25;-0.186523;0.026367;0.997559;-0.21;-0.21;0.77;196.0;0.115889;0.024856;0.25;1.75;1.5;2.5;4.25;7.5;0.0;4.5;0.0;0.25;0.75;1.0;1.75;4.25;1.0;0.5;-0.209473;0.03125;0.992188;-0.91;-0.63;0.42;377.0;-0.034498;-0.172324
2.87;0.75;0.25;1.25;0.75;1.5;1.25;0.25;1.0;1.0;1.0;0.25;0.25;0.5;6.5;0.25;0.25;-0.186035;0.02002;0.992676;-0.14;-0.14;0.7;190.0;0.103146;0.014155;0.25;1.75;1.5;2.5;4.25;7.25;0.0;4.5;0.25;0.5;0.25;1.0;1.5;4.5;0.75;0.25;-0.208008;0.037598;0.980957;-0.98;-0.63;0.35;371.0;-0.03615;-0.162367
2.88;0.75;0.25;1.25;1.0;1.5;1.25;0.25;1.0;1.0;0.75;0.25;0.25;0.75;6.5;0.0;0.0;-0.177246;0.022461;0.992188;-0.14;-0.28;0.77;188.0;0.088994;0.007677;0.25;2.0;1.75;2.75;4.0;7.75;0.0;4.5;0.25;0.25;0.25;0.5;1.75;4.25;0.75;0.25;-0.214844;0.035156;0.991699;-0.98;-0.77;0.28;373.0;-0.05111;-0.168069
2.89;0.75;0.5;1.5;1.0;1.5;1.25;0.25;1.0;1.0;0.75;0.25;0.5;0.75;6.5;0.25;0.25;-0.186035;0.024414;0.996582;-0.07;-0.35;0.7;201.0;0.085508;-0.001282;0.25;1.75;1.75;2.5;4.25;8.25;0.0;4.25;0.25;0.0;0.25;0.5;1.75;4.5;1.0;0.25;-0.205078;0.033203;0.988281;-0.98;-0.91;0.42;375.0;-0.045225;-0.163934
2.9;0.75;0.25;1.25;1.0;1.5;1.25;0.25;1.0;0.75;0.75;0.25;0.5;0.75;6.5;0.25;0.25;-0.188477;0.025879;0.991699;-0.0;-0.21;0.7;191.0;0.094519;-0.005702;0.25;1.75;1.5;2.75;4.25;8.25;0.0;4.25;0.25;0.0;0.25;1.0;1.75;4.25;1.0;0.25;-0.209961;0.031738;0.993164;-0.98;-0.7;0.42;379.0;-0.044319;-0.17055
2.91;0.75;0.0;1.25;1.0;1.25;1.25;0.25;1.0;0.75;0.5;0.25;0.5;0.5;6.5;0.25;0.25;-0.178711;0.023926;0.987305;-0.0;-0.35;0.77;181.0;0.102015;0.000265;0.25;1.75;1.5;2.5;4.25;8.25;0.0;4.25;0.0;0.25;0.25;0.75;1.75;4.0;1.0;0.25;-0.210938;0.03418;0.98584;-1.05;-0.84;0.42;370.0;-0.047905;-0.173828
2.92;0.75;0.25;1.5;1.0;1.25;1.5;0.25;1.0;0.75;0.5;0.25;0.5;0.5;6.5;0.25;0.25;-0.184082;0.020508;0.993652;-0.14;-0.28;0.77;189.0;0.085194;-0.004809;0.25;2.0;1.75;2.5;4.0;7.25;0.0;4.25;0.0;0.25;0.5;0.75;1.5;4.0;1.0;0.5;-0.213867;0.035156;0.993652;-0.91;-0.63;0.35;362.0;-0.045819;-0.168493
2.93;1.0;0.25;1.5;1.0;1.5;1.75;0.25;1.0;0.75;0.5;0.25;0.5;0.25;6.5;0.0;0.25;-0.179199;0.024414;0.992676;-0.28;-0.28;0.77;193.0;0.065275;0.000479;0.5;1.75;1.5;2.75;3.75;7.25;0.0;4.25;0.25;0.25;0.25;1.0;1.75;4.0;0.5;0.5;-0.212402;0.031738;0.981934;-1.05;-0.77;0.49;360.0;-0.048461;-0.171225
2.94;0.75;0.25;1.5;1.0;1.5;1.75;0.25;1.0;0.25;0.5;0.25;0.5;0.5;6.5;0.25;0.5;-0.182617;0.025391;0.995117;-0.14;-0.42;0.77;190.0;0.073831;-0.020908;0.25;1.75;1.5;2.5;3.75;7.25;0.0;4.25;0.25;0.25;0.25;1.0;1.5;4.0;0.5;0.5;-0.205078;0.035156;0.991211;-0.98;-0.91;0.42;352.0;-0.045028;-0.171075
2.95;0.75;0.25;1.5;1.0;1.5;1.5;0.0;1.0;1.0;0.5;0.25;0.75;0.75;6.5;0.25;0.25;-0.182617;0.023926;0.996582;-0.35;-0.35;0.7;197.0;0.087996;-0.013621;0.25;1.75;1.5;2.5;4.0;7.0;0.0;4.25;0.0;0.25;0.25;1.0;1.5;3.75;1.0;0.5;-0.208496;0.032715;0.986328;-1.05;-0.77;0.35;351.0;-0.04351;-0.173616
2.96;0.75;0.25;1.5;1.0;1.75;1.5;0.0;1.0;1.25;0.75;0.25;0.5;0.75;6.5;0.25;0.25;-0.187988;0.021484;0.994629;-0.21;-0.42;0.63;204.0;0.088248;-0.002379;0.25;1.75;1.5;2.5;4.0;7.0;0.0;4.25;0.0;0.25;0.5;1.0;1.5;4.0;0.25;0.5;-0.214844;0.038574;0.994629;-1.05;-0.91;0.42;348.0;-0.049403;-0.173057
2.97;1.0;0.25;1.5;1.0;1.75;1.75;0.25;1.25;1.25;0.75;0.25;0.25;0.75;6.5;0.25;0.25;-0.181152;0.027344;0.99707;-0.28;-0.28;0.7;215.0;0.074745;-0.003573;0.25;1.75;1.5;2.5;4.0;7.0;0.0;4.25;0.0;0.25;0.25;1.0;1.5;3.75;0.25;0.5;-0.209473;0.038086;0.98877;-1.12;-0.77;0.42;343.0;-0.05483;-0.175908
2.98;1.25;0.25;1.5;1.0;1.75;1.75;0.25;1.25;1.25;0.75;0.25;0.5;0.75;6.5;0.25;0.25;-0.186523;0.024902;0.994629;-0.35;-0.07;0.7;220.0;0.07035;-0.00595;0.25;1.75;1.5;2.25;3.75;7.0;0.0;4.25;0.0;0.25;0.25;1.0;1.5;3.5;0.25;0.25;-0.21582;0.037109;0.985352;-1.05;-0.77;0.42;333.0;-0.057205;-0.179458
2.99;0.75;0.25;1.5;1.25;1.75;1.75;0.25;1.25;1.0;0.75;0.25;0.5;0.75;6.25;0.25;0.25;-0.183105;0.029785;0.996094;-0.28;0.07;0.7;212.0;0.071038;-0.018857;0.0;1.75;1.5;2.5;4.0;7.25;0.0;4.25;0.0;0.25;0.5;0.75;1.5;3.5;0.5;0.25;-0.209473;0.036621;0.991211;-0.98;-0.77;0.49;342.0;-0.053757;-0.178621
3.0;0.75;0.25;1.5;1.25;1.75;1.75;0.0;1.25;1.0;0.75;0.25;0.5;0.75;6.5;0.25;0.25;-0.183594;0.025391;0.98877;-0.35;0.21;0.63;210.0;0.074631;-0.021809;0.25;2.0;1.5;2.5;4.0;7.0;0.0;4.25;0.25;0.25;0.5;0.75;1.5;3.75;0.75;0.25;-0.209473;0.032715;0.98877;-1.12;-0.98;0.42;353.0;-0.048363;-0.167723
3.01;1.25;0.25;1.5;1.25;1.75;1.75;0.25;1.25;1.0;0.75;0.25;0.5;0.75;6.5;0.25;0.25;-0.181641;0.027344;0.996582;-0.35;0.42;0.7;220.0;0.062446;-0.013494;0.25;1.5;1.5;2.5;3.75;7.0;0.0;4.25;0.25;0.25;0.5;1.0;1.5;4.0;0.25;0.25;-0.208496;0.034668;0.983398;-1.12;-0.91;0.42;345.0;-0.044643;-0.169902
3.02;1.0;0.25;1.5;1.25;1.75;1.5;0.25;1.25;0.75;0.75;0.25;0.75;0.75;6.5;0.25;0.25;-0.181641;0.026855;0.994141;-0.35;0.28;0.63;213.0;0.070323;-0.020137;0.25;1.5;1.5;2.75;4.0;7.25;0.0;4.25;0.25;0.5;0.25;1.0;1.5;4.0;0.25;0.25;-0.208984;0.035156;0.98877;-0.98;-1.12;0.42;354.0;-0.048189;-0.16783
3.03;1.0;0.5;1.5;1.25;1.75;1.75;0.25;1.25;0.5;0.75;0.25;0.5;0.75;6.5;0.25;0.25;-0.182617;0.025879;0.99707;-0.42;0.28;0.63;212.0;0.056435;-0.026627;0.25;1.75;1.5;2.75;3.75;7.25;0.0;4.25;0.25;0.5;0.25;1.0;1.5;4.0;0.5;0.25;-0.212891;0.034668;0.989746;-1.05;-0.98;0.35;356.0;-0.046476;-0.169061
3.04;0.75;0.5;1.5;1.25;1.75;1.75;0.25;1.25;0.75;0.75;0.25;0.5;0.75;6.5;0.25;0.25;-0.179688;0.023438;0.993652;-0.56;0.49;0.63;213.0;0.065887;-0.023376;0.25;1.75;1.5;2.25;3.75;7.0;0.0;4.25;0.0;0.25;0.25;0.75;1.5;4.0;0.5;0.25;-0.208984;0.034668;0.984375;-1.05;-0.98;0.42;338.0;-0.049061;-0.172736
3.05;0.75;0.25;1.5;1.25;1.75;1.75;0.25;1.25;0.75;0.75;0.25;0.5;0.75;6.5;0.0;0.25;-0.181152;0.026367;1.003418;-0.49;0.49;0.63;208.0;0.067023;-0.020834;0.25;1.5;1.5;2.5;3.75;7.0;0.0;4.25;0.0;0.25;0.5;0.75;1.5;3.75;0.5;0.25;-0.206543;0.034668;0.984863;-1.05;-0.91;0.35;339.0;-0.04928;-0.175168
3.06;0.75;0.25;1.75;1.25;1.75;1.75;0.25;1.25;1.0;0.5;0.5;0.5;0.75;6.5;0.25;0.25;-0.179199;0.023438;0.996582;-0.42;0.49;0.56;217.0;0.069787;-0.017599;0.25;1.75;1.5;2.5;3.75;7.0;0.0;4.25;0.25;0.25;0.5;0.75;1.5;3.75;0.75;0.25;-0.211914;0.037598;0.989746;-1.05;-1.05;0.42;348.0;-0.04503;-0.169712
3.07;0.75;0.5;1.5;1.25;1.75;1.75;0.25;1.25;1.0;0.5;0.25;0.5;0.5;6.5;0.25;0.25;-0.186523;0.021484;0.996094;-0.42;0.49;0.56;212.0;0.065605;-0.014638;0.25;1.75;1.5;2.5;4.0;7.25;0.0;4.0;0.0;0.25;0.5;0.5;1.5;3.5;1.0;0.25;-0.208496;0.031738;0.992188;-1.05;-1.05;0.56;343.0;-0.051633;-0.171084
3.08;1.0;0.5;1.5;1.0;1.75;1.75;0.25;1.25;1.0;0.75;0.25;0.25;0.75;6.5;0.25;0.25;-0.180664;0.020508;0.994141;-0.49;0.56;0.56;214.0;0.065912;-0.010141;0.25;1.75;1.5;2.5;4.0;7.0;0.0;4.0;0.0;0.25;0.25;0.5;1.5;3.75;1.0;0.25;-0.209473;0.030762;0.986328;-1.05;-0.91;0.42;340.0;-0.049917;-0.168276
3.09;1.0;0.5;1.5;1.0;1.75;1.5;0.0;1.25;1.0;0.75;0.25;0.5;0.5;6.5;0.25;0.25;-0.182617;0.024902;0.995605;-0.42;0.42;0.63;207.0;0.069548;-0.010236;0.25;1.5;1.5;2.75;4.0;7.0;0.0;4.0;0.0;0.25;0.25;0.75;1.5;3.75;0.25;0.25;-0.206543;0.030762;0.992188;-1.05;-0.98;0.42;335.0;-0.058819;-0.172101
3.1;0.75;0.5;1.5;1.0;1.75;1.5;0.0;1.25;1.0;0.75;0.25;0.5;0.75;6.5;0.25;0.5;-0.180664;0.023438;0.995605;-0.49;0.56;0.56;208.0;0.07917;-0.01912;0.25;2.0;1.5;2.25;3.75;7.25;0.0;4.0;0.0;0.0;0.0;0.75;1.5;4.0;0.25;0.25;-0.211426;0.032227;0.989258;-1.05;-0.84;0.35;330.0;-0.062092;-0.174139
3.11;0.75;0.5;1.5;1.0;1.75;1.75;0.25;1.25;1.25;0.75;0.5;0.25;0.75;6.5;0.25;0.25;-0.177246;0.024902;0.993164;-0.56;0.63;0.56;217.0;0.077259;-0.008401;0.25;2.25;1.5;2.5;4.0;7.0;0.0;4.0;0.25;0.25;0.25;0.5;1.5;3.75;0.25;0.5;-0.206543;0.032715;0.984375;-1.05;-0.91;0.35;341.0;-0.061869;-0.166404
3.12;0.75;0.25;1.5;1.0;1.75;1.75;0.0;1.0;1.5;0.75;0.5;0.5;0.75;6.5;0.25;0.25;-0.181641;0.021484;0.995117;-0.49;0.7;0.63;213.0;0.089562;-0.003035;0.25;2.0;1.75;2.5;4.0;7.0;0.0;4.0;0.0;0.25;0.25;0.5;1.5;3.75;0.5;0.25;-0.215332;0.035645;0.984375;-1.05;-0.91;0.42;340.0;-0.062294;-0.1674
3.13;1.0;0.25;1.5;1.0;1.75;1.75;0.25;1.25;1.5;0.75;0.25;0.5;0.75;6.5;0.25;0.25;-0.181152;0.021484;0.99707;-0.49;0.77;0.63;221.0;0.079411;-0.002888;0.25;2.0;1.75;2.25;4.0;7.0;0.0;4.0;0.0;0.25;0.25;0.25;1.5;3.75;0.75;0.25;-0.213379;0.031738;0.983887;-1.05;-1.05;0.49;337.0;-0.058603;-0.16507
3.14;0.75;0.25;1.5;1.25;1.75;1.75;0.25;1.25;1.5;0.75;0.25;0.25;0.75;6.5;0.0;0.25;-0.182129;0.027832;0.997559;-0.56;0.77;0.56;216.0;0.074561;-0.002472;0.25;2.0;1.5;2.5;3.75;7.0;0.0;4.0;0.0;0.25;0.25;0.25;1.5;3.75;0.25;0.25;-0.213867;0.030762;0.981934;-0.98;-0.84;0.42;328.0;-0.066312;-0.171501
3.15;0.75;0.25;1.5;1.25;1.75;1.75;0.25;1.25;1.0;0.75;0.5;0.25;0.75;6.5;0.25;0.25;-0.179199;0.024902;0.994141;-0.63;0.77;0.56;214.0;0.074974;-0.014296;0.25;2.25;1.5;2.75;3.75;7.0;0.0;4.0;0.0;0.25;0.25;0.5;1.5;3.75;0.25;0.25;-0.209473;0.035645;0.984375;-0.91;-0.91;0.42;336.0;-0.068556;-0.172996
3.16;0.75;0.25;1.5;1.0;1.75;1.75;0.25;1.25;1.0;0.75;0.5;0.25;0.75;6.75;0.0;0.25;-0.182617;0.025391;0.995117;-0.49;0.63;0.63;211.0;0.079328;-0.008259;0.25;1.75;1.5;2.5;4.0;6.75;0.0;4.0;0.25;0.25;0.0;0.5;1.25;4.0;0.25;0.25;-0.213867;0.035156;0.987305;-0.98;-0.77;0.42;329.0;-0.058328;-0.160683
3.17;0.75;0.25;1.25;1.0;2.0;1.75;0.25;1.25;1.0;1.0;0.5;0.5;0.75;6.75;0.25;0.25;-0.180176;0.019043;0.998535;-0.56;0.56;0.56;219.0;0.089401;-0.012475;0.25;1.75;1.5;2.75;3.75;7.0;0.0;4.0;0.25;0.0;0.25;0.5;1.5;3.75;0.5;0.25;-0.208984;0.03418;0.992676;-0.98;-0.91;0.56;335.0;-0.058397;-0.169555
3.18;0.75;0.25;1.5;1.0;1.75;1.75;0.25;1.25;1.0;0.75;0.25;0.5;0.75;6.75;0.25;0.25;-0.181641;0.022949;0.991699;-0.56;0.7;0.63;214.0;0.083503;-0.011691;0.25;2.0;1.5;2.25;3.75;7.0;0.0;3.75;0.25;0.25;0.25;0.5;1.5;3.75;0.5;0.25;-0.208496;0.035156;0.995605;-0.98;-0.7;0.49;330.0;-0.054978;-0.163712
3.19;0.75;0.25;1.5;1.0;1.75;1.75;0.25;1.25;1.25;0.75;0.25;0.25;0.75;6.5;0.25;0.5;-0.18457;0.028809;0.996582;-0.49;0.56;0.56;213.0;0.083057;-0.007216;0.25;1.75;1.75;2.25;3.75;6.75;0.0;4.0;0.25;0.0;0.25;0.75;1.25;4.0;0.5;0.25;-0.209473;0.035156;0.982422;-0.91;-0.91;0.56;332.0;-0.051327;-0.16184
3.2;0.75;0.5;1.5;1.0;1.75;1.75;0.25;1.25;1.25;0.75;0.25;0.25;0.75;6.5;0.5;0.5;-0.18457;0.023926;0.995117;-0.49;0.63;0.56;219.0;0.081557;-0.010028;0.25;2.0;1.5;2.5;3.75;6.75;0.0;3.75;0.0;0.0;0.25;0.5;1.25;3.75;0.75;0.25;-0.210449;0.03418;0.983887;-0.98;-1.05;0.49;324.0;-0.0598;-0.167218
3.21;0.75;0.5;1.5;1.0;1.75;1.75;0.25;1.25;1.0;1.0;0.25;0.25;0.75;6.5;0.25;0.25;-0.18457;0.028809;0.994141;-0.49;0.63;0.63;214.0;0.074443;-0.010732;0.25;1.75;1.5;2.25;3.75;6.75;0.0;3.75;0.0;0.25;0.25;0.5;1.25;3.5;0.5;0.25;-0.208984;0.032715;0.980957;-0.91;-1.12;0.49;316.0;-0.059804;-0.167904
3.22;0.75;0.5;1.5;1.25;1.75;1.75;0.25;1.25;1.0;1.0;0.25;0.25;0.75;6.5;0.0;0.25;-0.182617;0.021484;1.001953;-0.35;0.56;0.56;214.0;0.0649;-0.012777;0.25;1.75;1.5;2.5;3.75;6.75;0.0;3.75;0.25;0.25;0.25;0.75;1.0;3.75;0.25;0.25;-0.213379;0.029297;0.982422;-0.84;-1.19;0.49;323.0;-0.058451;-0.160806
3.23;1.0;0.25;1.5;1.25;1.75;1.75;0.25;1.25;1.0;0.75;0.25;0.75;0.75;6.25;0.0;0.25;-0.181152;0.02832;0.990723;-0.42;0.42;0.63;215.0;0.062131;-0.020045;0.25;1.75;1.5;2.75;4.0;6.75;0.0;3.75;0.0;0.25;0.25;0.75;1.25;3.75;0.25;0.25;-0.210938;0.034668;0.985352;-0.84;-1.19;0.56;328.0;-0.062954;-0.166269
3.24;0.75;0.5;1.5;1.25;1.75;1.75;0.25;1.5;0.75;0.75;0.25;0.75;0.5;6.25;0.25;0.25;-0.185059;0.029297;0.993652;-0.49;0.35;0.63;216.0;0.061403;-0.031512;0.25;2.0;1.5;2.75;4.0;7.0;0.0;4.0;0.0;0.0;0.25;0.75;1.25;3.75;0.5;0.25;-0.217773;0.033691;0.993164;-0.84;-1.19;0.49;337.0;-0.064315;-0.171216
3.25;0.75;0.5;1.5;1.25;1.75;1.75;0.0;1.25;1.0;0.75;0.5;0.25;0.5;6.25;0.25;0.25;-0.181152;0.023438;0.996094;-0.49;0.21;0.7;208.0;0.064063;-0.018302;0.5;2.0;1.75;2.75;3.75;7.0;0.0;4.0;0.25;0.25;0.25;0.75;1.25;3.5;0.5;0.25;-0.211426;0.035645;0.984375;-0.98;-1.26;0.56;344.0;-0.065721;-0.164419
3.26;1.0;0.5;1.5;1.25;1.75;2.0;0.0;1.25;1.25;0.75;0.25;0.25;0.75;6.0;0.25;0.5;-0.181641;0.022949;1.002441;-0.56;0.14;0.63;216.0;0.055433;-0.02297;0.25;1.75;1.5;2.75;3.75;7.0;0.0;4.0;0.25;0.25;0.25;0.5;1.5;3.5;0.25;0.25;-0.211914;0.033691;0.985352;-0.98;-1.26;0.56;333.0;-0.063147;-0.170736
3.27;0.75;0.5;1.5;1.25;1.75;1.75;0.25;1.25;1.25;0.5;0.25;0.5;0.75;6.0;0.0;0.25;-0.188965;0.019043;0.999512;-0.63;-0.0;0.63;210.0;0.057671;-0.01806;0.25;2.0;1.75;2.25;3.75;6.75;0.0;4.0;0.25;0.25;0.25;0.5;1.5;3.5;0.5;0.25;-0.208984;0.035156;0.983887;-0.91;-1.26;0.49;332.0;-0.058775;-0.165656
3.28;0.75;0.5;1.5;1.25;2.0;1.75;0.25;1.25;0.75;0.75;0.25;0.5;0.75;6.0;0.0;0.25;-0.182617;0.026367;0.993164;-0.56;0.07;0.7;209.0;0.050724;-0.025824;0.25;2.25;1.75;2.5;3.75;6.75;0.0;4.0;0.25;0.0;0.5;0.5;1.0;3.25;0.75;0.25;-0.212891;0.031738;0.984375;-0.84;-1.33;0.56;333.0;-0.066142;-0.165213
3.29;1.0;0.5;1.5;1.5;2.0;2.0;0.25;1.25;0.5;0.75;0.5;0.75;0.5;6.0;0.25;0.25;-0.181641;0.022949;0.993652;-0.42;0.07;0.7;220.0;0.041913;-0.035795;0.25;1.75;1.75;2.75;3.75;7.25;0.0;4.0;0.25;0.25;0.5;0.75;1.25;3.25;0.75;0.25;-0.207031;0.028809;0.991699;-0.84;-1.12;0.49;345.0;-0.058014;-0.168792
3.3;1.0;0.5;1.5;1.5;2.0;2.0;0.25;1.25;0.5;0.75;0.25;0.25;0.5;5.75;0.25;0.5;-0.181641;0.030273;0.995605;-0.42;0.21;0.77;211.0;0.033024;-0.031901;0.25;2.0;1.75;2.75;4.0;7.25;0.0;3.75;0.0;0.25;0.25;0.75;1.5;3.5;0.75;0.25;-0.210449;0.036133;0.992676;-0.84;-1.19;0.49;345.0;-0.062661;-0.168781
3.31;0.75;0.75;1.5;1.5;2.0;2.25;0.25;1.25;0.5;0.75;0.25;0.25;0.5;5.75;0.25;0.5;-0.179688;0.024414;0.996582;-0.42;0.28;0.63;213.0;0.030913;-0.038714;0.25;2.25;2.0;2.75;4.0;7.0;0.0;3.75;0.0;0.25;0.25;0.5;1.25;3.25;0.25;0.25;-0.206543;0.032715;0.98877;-0.84;-1.05;0.56;334.0;-0.081719;-0.166217
3.32;0.75;0.75;1.75;1.5;2.0;2.25;0.25;1.25;0.75;0.75;0.5;0.5;0.5;5.5;0.25;0.5;-0.184082;0.027832;0.995605;-0.35;0.28;0.77;223.0;0.031284;-0.038507;0.5;2.25;2.0;2.75;4.0;6.75;0.0;3.75;0.0;0.25;0.0;0.5;1.25;3.0;0.25;0.25;-0.210938;0.034668;0.993652;-0.91;-1.12;0.49;329.0;-0.090009;-0.165751
3.33;1.25;0.75;1.75;1.5;1.75;2.0;0.25;1.25;0.75;0.75;0.5;0.5;0.75;5.0;0.25;0.5;-0.181152;0.027832;0.991699;-0.35;0.28;0.63;221.0;0.018204;-0.041988;0.75;1.75;2.0;2.75;3.75;6.75;0.0;3.75;0.0;0.25;0.0;0.75;1.25;2.75;0.25;0.25;-0.208496;0.037109;0.986816;-0.91;-0.98;0.49;324.0;-0.088287;-0.169057
3.34;1.25;0.75;1.75;1.5;2.0;2.0;0.25;1.5;0.5;0.75;0.25;0.25;0.75;5.0;0.5;0.5;-0.184082;0.021973;0.993652;-0.35;0.35;0.63;221.0;0.011735;-0.048536;0.75;1.75;1.75;2.75;4.0;7.0;0.0;3.75;0.0;0.25;0.25;0.5;1.25;3.0;0.25;0.25;-0.210938;0.031738;0.98291;-0.91;-0.91;0.56;330.0;-0.083898;-0.166283
3.35;1.25;0.25;1.75;1.5;2.0;2.5;0.25;1.25;0.75;0.75;0.25;0.25;0.5;5.25;0.25;0.25;-0.181152;0.032715;0.993164;-0.35;0.21;0.7;217.0;0.01664;-0.030927;0.5;1.75;1.75;2.75;3.75;6.75;0.0;3.75;0.0;0.0;0.25;0.5;1.0;3.25;0.25;0.0;-0.206543;0.036133;0.989258;-0.91;-0.98;0.56;316.0;-0.083244;-0.166556
3.36;0.75;0.25;1.75;1.5;2.0;2.75;0.25;1.25;0.5;0.75;0.0;0.25;0.25;5.0;0.0;0.25;-0.185059;0.026367;0.995117;-0.35;0.14;0.77;201.0;0.006758;-0.039309;0.75;2.25;1.75;2.75;3.75;6.75;0.0;3.75;0.0;0.0;0.25;0.5;1.0;3.25;0.25;0.0;-0.20752;0.035645;0.987305;-0.91;-1.12;0.49;324.0;-0.091216;-0.164148
3.37;1.5;0.5;1.75;1.5;2.0;2.5;0.25;1.5;0.25;0.75;0.25;0.5;0.25;5.0;0.0;0.25;-0.183105;0.026855;0.994141;-0.42;0.07;0.7;215.0;-0.011081;-0.048207;0.75;2.25;1.75;2.75;3.75;6.75;0.0;3.75;0.0;0.25;0.25;0.25;1.0;3.0;0.25;0.25;-0.214355;0.036133;0.987793;-0.91;-1.33;0.56;323.0;-0.092521;-0.164113
3.38;1.5;0.5;1.5;1.5;2.0;2.5;0.25;1.25;0.25;0.75;0.0;0.25;0.5;5.0;0.25;0.25;-0.180664;0.018066;0.996094;-0.35;-0.07;0.56;207.0;-0.005787;-0.044122;0.5;2.25;1.75;2.75;4.0;7.0;0.0;3.75;0.0;0.25;0.25;0.25;1.0;2.75;0.25;0.25;-0.208984;0.030273;0.989258;-0.84;-1.19;0.56;324.0;-0.094278;-0.167852
3.39;1.25;0.5;1.75;1.5;2.0;2.5;0.0;1.25;0.75;0.75;0.0;0.25;0.5;5.0;0.25;0.25;-0.181152;0.021484;0.994141;-0.35;-0.14;0.7;211.0;0.003003;-0.039037;0.5;2.5;2.0;3.0;4.25;7.0;0.0;3.75;0.25;0.25;0.25;0.5;1.0;2.75;0.25;0.25;-0.209473;0.03418;0.990723;-0.91;-1.4;0.56;342.0;-0.093929;-0.16049
3.4;1.25;0.75;1.75;1.75;2.0;2.5;0.25;1.25;0.75;0.75;0.25;0.25;0.75;5.0;0.25;0.0;-0.180664;0.023438;0.998535;-0.28;-0.21;0.63;224.0;-0.001945;-0.041385;0.75;2.25;1.75;3.0;4.25;7.0;0.0;3.75;0.25;0.0;0.25;0.5;1.0;2.75;0.25;0.25;-0.205566;0.038574;0.983887;-0.84;-1.33;0.56;337.0;-0.095381;-0.162342
3.41;1.5;0.75;1.75;1.75;2.0;2.5;0.25;1.5;0.5;0.75;0.25;0.25;0.5;4.75;0.25;0.0;-0.181152;0.024414;0.996094;-0.42;-0.14;0.63;223.0;-0.017515;-0.048936;0.75;2.0;2.0;3.25;4.0;7.0;0.0;4.0;0.25;0.0;0.25;0.25;1.0;2.75;0.25;0.0;-0.210938;0.033203;0.983398;-0.91;-1.26;0.49;337.0;-0.099536;-0.16362
3.42;1.5;0.75;2.0;1.75;2.0;2.75;0.25;1.5;0.75;0.75;0.25;0.25;0.5;4.75;0.0;0.25;-0.178223;0.022949;0.99707;-0.56;-0.0;0.63;231.0;-0.021142;-0.046274;0.75;2.5;2.0;3.25;3.75;7.25;0.0;4.0;0.0;0.25;0.5;0.25;1.25;2.75;0.25;0.25;-0.214355;0.030762;0.984375;-0.91;-1.26;0.49;348.0;-0.098785;-0.171436
3.43;1.5;0.75;2.0;1.75;2.0;2.75;0.25;1.25;0.25;0.75;0.25;0.25;0.75;4.75;0.25;0.25;-0.178223;0.027344;0.994141;-0.42;0.21;0.7;225.0;-0.022668;-0.054881;0.5;2.25;1.75;3.0;3.75;7.25;0.0;3.75;0.25;0.25;0.25;0.5;1.0;3.0;0.5;0.25;-0.209473;0.03125;0.986328;-0.91;-1.12;0.56;339.0;-0.082229;-0.164633
3.44;1.5;0.75;2.0;1.75;2.25;3.0;0.25;1.5;0.25;0.75;0.25;0.25;0.75;4.75;0.25;0.25;-0.179199;0.020508;1.004395;-0.42;0.21;0.63;235.0;-0.025433;-0.062125;0.5;2.5;1.75;3.25;3.75;7.25;0.0;3.75;0.25;0.25;0.25;0.75;0.75;2.75;0.5;0.25;-0.212891;0.034668;0.987793;-0.91;-1.19;0.42;343.0;-0.089125;-0.166546
3.45;1.5;1.0;2.0;2.0;2.0;3.0;0.25;1.75;0.5;1.0;0.25;0.5;0.75;4.75;0.0;0.25;-0.182129;0.026855;0.993164;-0.42;-0.0;0.56;248.0;-0.02633;-0.06836;0.75;2.25;1.75;3.25;4.0;6.75;0.0;4.0;0.25;0.25;0.5;0.5;1.0;2.75;0.5;0.25;-0.209961;0.030762;0.989746;-0.77;-1.12;0.49;346.0;-0.085728;-0.163727
3.46;1.5;1.0;2.25;2.5;2.0;2.75;0.25;1.75;0.25;0.75;0.25;0.5;0.5;4.5;0.25;0.25;-0.180664;0.022949;0.996094;-0.35;0.21;0.7;246.0;-0.042294;-0.072976;0.75;2.25;1.75;3.0;4.0;6.75;0.0;4.0;0.0;0.25;0.25;0.5;1.25;2.25;0.5;0.25;-0.209473;0.036621;0.986816;-0.84;-0.98;0.49;335.0;-0.095357;-0.175099
3.47;1.5;1.0;2.25;2.25;2.25;3.0;0.25;1.75;0.5;0.75;0.25;0.25;0.5;4.25;0.25;0.25;-0.181641;0.024902;0.992188;-0.35;0.35;0.63;247.0;-0.04452;-0.066646;0.5;2.25;2.0;3.5;4.25;6.75;0.0;4.0;0.0;0.25;0.25;0.5;1.0;2.5;0.5;0.0;-0.209961;0.03418;0.991211;-0.7;-0.98;0.49;342.0;-0.098304;-0.168931
3.48;1.25;1.0;2.25;2.0;2.25;2.75;0.25;1.75;0.5;0.75;0.25;0.25;0.75;4.25;0.0;0.5;-0.180176;0.023926;0.991699;-0.35;0.42;0.7;240.0;-0.03671;-0.069401;0.5;2.5;1.75;3.25;4.0;6.75;0.0;3.75;0.0;0.0;0.25;0.25;0.75;2.75;0.25;0.0;-0.206543;0.035645;0.989258;-0.77;-0.98;0.56;323.0;-0.106795;-0.167161
3.49;1.75;1.25;2.0;2.0;2.0;3.0;0.25;1.75;0.5;0.75;0.25;0.25;0.75;4.0;0.25;0.25;-0.183105;0.022461;0.994141;-0.42;0.42;0.7;244.0;-0.04807;-0.073363;0.75;2.75;2.0;3.0;4.0;7.0;0.0;4.0;0.25;0.25;0.25;0.25;0.75;2.25;0.0;0.25;-0.208984;0.030762;0.987305;-0.7;-0.84;0.56;336.0;-0.11338;-0.165185
3.5;1.75;1.0;2.25;2.0;2.0;3.0;0.25;1.75;0.75;0.75;0.25;0.25;0.75;4.0;0.25;0.0;-0.183594;0.025391;0.994629;-0.42;0.56;0.63;246.0;-0.045026;-0.063906;0.5;2.25;2.0;2.75;4.0;7.0;0.0;3.75;0.0;0.25;0.25;0.5;1.0;2.75;0.25;0.25;-0.209473;0.031738;0.987793;-0.7;-0.77;0.49;330.0;-0.093218;-0.166588
3.51;1.5;1.0;2.0;2.0;2.25;2.75;0.0;1.5;0.75;0.75;0.25;0.25;0.75;4.25;0.0;0.0;-0.173828;0.025391;0.995605;-0.42;0.56;0.63;232.0;-0.041243;-0.060635;0.75;2.5;2.0;3.25;4.0;7.0;0.0;3.75;0.0;0.25;0.25;0.5;1.0;2.5;0.25;0.0;-0.210938;0.033691;0.985352;-0.7;-0.77;0.42;338.0;-0.107144;-0.167036
3.52;1.75;1.0;1.75;2.0;2.25;3.0;0.0;1.5;0.5;0.75;0.25;0.5;0.75;4.5;0.25;0.25;-0.182617;0.024902;0.989746;-0.35;0.42;0.63;240.0;-0.033256;-0.070485;0.5;2.5;2.0;3.25;4.0;7.0;0.0;3.75;0.25;0.25;0.25;0.25;1.0;2.25;0.0;0.0;-0.209473;0.030273;0.989258;-0.56;-0.84;0.56;330.0;-0.111546;-0.166659
3.53;1.75;1.0;2.25;2.25;2.0;3.0;0.25;1.75;0.5;0.75;0.25;0.5;0.75;4.25;0.25;0.0;-0.181152;0.027832;0.996094;-0.42;0.7;0.7;251.0;-0.045076;-0.071077;0.5;2.0;1.75;3.25;4.0;7.0;0.0;4.0;0.25;0.25;0.5;0.5;1.25;2.75;0.25;0.25;-0.214355;0.033691;0.988281;-0.56;-0.7;0.49;344.0;-0.08363;-0.169621
3.54;1.5;1.25;2.0;2.0;2.0;3.25;0.25;1.75;0.75;0.75;0.25;0.5;0.75;4.25;0.25;0.25;-0.177734;0.026855;0.996582;-0.42;0.63;0.56;253.0;-0.033852;-0.073059;0.25;2.0;1.75;3.25;3.75;7.0;0.0;3.75;0.25;0.25;0.25;0.75;1.25;2.75;0.25;0.0;-0.204102;0.035645;0.992676;-0.56;-0.7;0.42;332.0;-0.083538;-0.172204
3.55;1.5;1.0;2.0;2.0;2.0;3.25;0.25;1.5;0.5;0.75;0.25;0.5;0.75;4.0;0.5;0.25;-0.181641;0.033691;0.997559;-0.42;0.7;0.56;243.0;-0.03358;-0.074248;0.25;2.25;1.75;3.0;4.0;7.0;0.0;3.75;0.25;0.25;0.25;0.5;1.25;2.75;0.0;0.0;-0.211914;0.038086;0.982422;-0.7;-0.63;0.49;329.0;-0.09145;-0.169254
3.56;1.5;0.75;2.0;2.0;2.0;3.0;0.25;1.5;0.5;0.5;0.25;0.25;0.75;4.5;0.25;0.25;-0.178711;0.023438;0.994141;-0.49;0.56;0.56;233.0;-0.030795;-0.064567;0.5;2.5;2.0;3.0;3.75;7.0;0.0;3.75;0.25;0.25;0.25;0.25;1.0;2.75;0.25;0.25;-0.205566;0.035156;0.980957;-0.7;-0.63;0.56;333.0;-0.095979;-0.163318
3.57;2.25;1.0;2.0;1.75;2.25;3.0;0.25;1.5;0.5;0.5;0.25;0.25;0.75;4.25;0.0;0.25;-0.178711;0.029785;0.991699;-0.49;0.49;0.56;239.0;-0.055593;-0.058036;0.5;2.0;1.5;3.0;3.75;7.0;0.0;3.75;0.0;0.25;0.25;0.5;1.0;2.75;0.0;0.0;-0.206055;0.026855;0.984375;-0.63;-0.7;0.42;317.0;-0.095512;-0.174296
3.58;2.0;0.75;2.25;2.0;2.0;3.0;0.25;1.5;0.75;0.5;0.25;0.25;0.75;4.0;0.0;0.25;-0.180176;0.023438;0.995605;-0.49;0.56;0.63;238.0;-0.052257;-0.057899;0.5;2.25;1.75;3.25;3.75;7.0;0.0;3.75;0.0;0.25;0.25;0.25;1.0;2.5;0.0;0.0;-0.212891;0.030273;0.989258;-0.63;-0.84;0.42;321.0;-0.107862;-0.17366
3.59;1.75;0.75;2.25;2.25;2.0;3.0;0.25;1.75;0.75;0.25;0.25;0.0;0.75;4.25;0.25;0.25;-0.179688;0.027832;0.994629;-0.49;0.49;0.63;242.0;-0.047013;-0.064289;0.5;2.25;2.0;3.25;3.75;7.0;0.0;3.75;0.0;0.25;0.5;0.25;1.0;2.75;0.25;0.25;-0.208984;0.034668;0.984863;-0.7;-0.77;0.42;333.0;-0.096296;-0.168143
3.6;1.5;1.25;2.25;2.25;2.25;2.75;0.25;1.5;0.75;0.5;0.25;0.25;0.75;4.0;0.25;0.25;-0.180176;0.027344;0.994141;-0.35;0.28;0.63;243.0;-0.048804;-0.062261;0.75;2.25;2.0;3.0;3.75;7.0;0.0;3.25;0.25;0.25;0.25;0.5;1.0;2.75;0.0;0.25;-0.213379;0.02832;0.992676;-0.63;-0.7;0.49;325.0;-0.10005;-0.156965
3.61;1.75;1.0;2.25;2.0;2.25;3.0;0.25;1.75;0.5;0.5;0.25;0.25;0.75;4.25;0.25;0.25;-0.181641;0.02832;1.001465;-0.49;0.42;0.63;247.0;-0.046921;-0.067985;0.75;2.25;1.75;3.0;3.75;6.75;0.0;3.75;0.0;0.0;0.0;0.25;1.25;2.25;0.0;0.25;-0.211914;0.037598;0.981934;-0.56;-0.7;0.56;313.0;-0.114157;-0.177786
3.62;1.5;0.75;2.0;2.0;2.0;3.0;0.25;1.75;0.75;0.5;0.25;0.25;0.75;4.0;0.25;0.25;-0.179199;0.030762;0.994629;-0.56;0.63;0.63;237.0;-0.034834;-0.069957;0.75;2.25;1.75;2.75;3.75;6.75;0.0;3.75;0.0;0.0;0.25;0.25;1.25;2.75;0.0;0.0;-0.211426;0.035645;0.986816;-0.7;-0.77;0.49;316.0;-0.103925;-0.170929
3.63;1.5;1.0;2.0;2.25;2.25;3.0;0.0;1.5;0.75;0.5;0.25;0.25;0.75;4.25;0.0;0.25;-0.182129;0.027832;0.990234;-0.56;0.63;0.7;236.0;-0.04664;-0.068476;0.75;2.5;1.75;2.75;3.25;6.75;0.0;3.75;0.0;0.0;0.0;0.25;1.25;2.75;0.0;0.0;-0.210938;0.027832;0.987793;-0.56;-0.7;0.49;310.0;-0.109099;-0.175895
3.64;1.75;1.0;1.75;2.0;2.0;3.0;0.25;1.75;0.5;0.5;0.25;0.25;0.75;4.0;0.25;0.0;-0.1875;0.024414;0.994141;-0.35;0.56;0.63;234.0;-0.047354;-0.074632;0.75;2.25;1.75;2.75;3.25;7.0;0.0;3.75;0.0;0.25;0.25;0.25;1.25;2.75;0.25;0.25;-0.206543;0.033203;0.986328;-0.56;-0.84;0.56;320.0;-0.094197;-0.174007
3.65;1.75;1.0;2.25;2.0;2.0;3.25;0.25;1.75;0.5;0.25;0.25;0.25;0.75;4.0;0.25;0.0;-0.182617;0.032227;0.990723;-0.42;0.7;0.56;240.0;-0.057608;-0.074563;1.0;2.25;1.75;3.0;3.25;6.75;0.0;3.5;0.25;0.25;0.25;0.25;0.75;3.0;0.25;0.25;-0.209961;0.02832;0.987793;-0.56;-0.7;0.63;320.0;-0.095552;-0.156451
3.66;1.5;1.25;2.25;2.0;2.0;2.75;0.25;1.75;0.5;0.25;0.0;0.25;0.75;4.0;0.0;0.0;-0.183105;0.028809;0.995605;-0.42;0.63;0.63;228.0;-0.064226;-0.072062;0.75;2.25;1.5;2.75;3.25;6.75;0.0;3.5;0.0;0.25;0.25;0.25;0.75;3.25;0.25;0.0;-0.211914;0.032715;0.987305;-0.63;-0.7;0.49;309.0;-0.091629;-0.162373
3.67;1.5;1.0;2.0;2.0;2.25;3.0;0.25;1.75;0.75;0.25;0.25;0.25;0.75;4.25;0.0;0.0;-0.182617;0.022461;0.996094;-0.42;0.7;0.63;237.0;-0.046767;-0.06683;0.5;2.25;1.5;2.75;3.25;6.5;0.0;3.5;0.0;0.0;0.0;0.25;1.0;3.25;0.25;0.0;-0.210938;0.03125;0.98584;-0.7;-0.84;0.56;300.0;-0.092215;-0.168779
3.68;1.5;1.0;2.25;2.25;2.25;3.0;0.25;1.75;0.75;0.25;0.25;0.25;0.75;4.25;0.25;0.25;-0.180664;0.025879;0.997559;-0.56;0.84;0.63;248.0;-0.044682;-0.068474;0.5;2.25;1.5;2.75;3.25;6.5;0.0;3.75;0.0;0.0;0.0;0.25;1.5;3.5;0.0;0.25;-0.209961;0.034668;0.98877;-0.7;-0.7;0.63;309.0;-0.085832;-0.175136
3.69;1.75;1.0;2.0;2.0;2.25;3.25;0.0;1.75;0.75;0.25;0.25;0.5;0.75;4.0;0.25;0.25;-0.184082;0.026367;0.991699;-0.56;0.7;0.63;244.0;-0.047884;-0.079243;0.75;2.25;1.5;2.75;3.25;6.5;0.0;3.5;0.0;0.0;0.0;0.25;1.0;3.25;0.0;0.25;-0.211426;0.031738;0.987305;-0.77;-0.84;0.49;301.0;-0.097673;-0.167706
3.7;1.75;1.0;2.0;2.0;2.0;3.0;0.25;1.75;0.75;0.75;0.25;0.75;0.75;4.25;0.25;0.25;-0.181641;0.023438;0.991211;-0.49;0.63;0.63;253.0;-0.030018;-0.07028;0.75;2.25;1.5;2.75;3.0;6.25;0.0;3.75;0.0;0.0;0.0;0.25;1.0;3.5;0.25;0.25;-0.206055;0.027832;0.986816;-0.7;-0.84;0.49;304.0;-0.087048;-0.168563
3.71;1.75;1.0;2.0;2.0;2.25;3.0;0.0;1.75;0.25;0.5;0.25;0.25;0.75;3.75;0.5;0.25;-0.177246;0.022949;0.999512;-0.56;0.84;0.56;234.0;-0.054492;-0.085768;0.5;2.0;1.5;2.75;3.25;6.25;0.0;3.25;0.0;0.0;0.0;0.5;1.0;3.5;0.25;0.25;-0.206543;0.031738;0.985352;-0.63;-0.7;0.56;297.0;-0.080846;-0.163864
3.72;1.5;0.75;2.25;1.75;2.0;3.25;0.25;1.75;0.25;0.5;0.25;0.0;0.75;4.0;0.25;0.25;-0.181641;0.021973;0.994141;-0.49;0.77;0.63;230.0;-0.048246;-0.076344;0.75;2.0;1.75;2.75;3.25;6.75;0.0;3.5;0.0;0.0;0.25;0.5;1.0;3.5;0.25;0.25;-0.211426;0.032715;0.987305;-0.63;-0.77;0.49;315.0;-0.083183;-0.163601
3.73;1.75;1.25;1.75;2.0;2.0;2.75;0.25;1.5;0.25;0.5;0.25;0.0;0.75;4.25;0.0;0.25;-0.179199;0.020508;1.003906;-0.49;0.77;0.56;224.0;-0.057282;-0.068721;0.75;2.25;1.25;2.75;3.25;6.5;0.0;3.75;0.25;0.0;0.25;0.5;1.0;3.75;0.0;0.25;-0.210449;0.035156;0.984863;-0.56;-0.7;0.7;316.0;-0.077706;-0.163757
3.74;1.5;1.0;1.75;2.0;2.0;2.5;0.25;1.5;0.5;0.5;0.25;0.25;0.75;4.0;0.25;0.25;-0.185059;0.029785;0.991211;-0.56;0.7;0.49;222.0;-0.037962;-0.067313;0.75;2.25;1.5;2.75;3.25;6.5;0.0;3.5;0.25;0.0;0.25;0.25;1.0;3.75;0.0;0.25;-0.208984;0.036133;0.98877;-0.56;-0.77;0.49;312.0;-0.083056;-0.157027
3.75;1.25;0.75;2.0;2.0;2.0;2.75;0.0;1.75;0.75;0.25;0.0;0.25;0.75;4.25;0.25;0.0;-0.174805;0.027832;0.992188;-0.56;0.7;0.56;222.0;-0.035545;-0.072224;0.5;2.25;1.5;2.75;3.25;6.5;0.0;3.5;0.0;0.0;0.0;0.25;1.25;3.75;0.0;0.25;-0.209473;0.035645;0.984863;-0.56;-0.7;0.56;305.0;-0.085013;-0.167284
3.76;1.5;0.75;2.0;2.0;2.0;2.75;0.0;1.5;0.75;0.25;0.0;0.25;0.75;4.25;0.25;0.0;-0.179199;0.025391;0.994141;-0.63;0.7;0.56;220.0;-0.040703;-0.063863;0.75;1.75;1.5;2.75;3.25;6.75;0.0;3.75;0.0;0.0;0.0;0.25;1.25;4.0;0.0;0.25;-0.209473;0.032227;0.98877;-0.49;-0.77;0.56;312.0;-0.078517;-0.166238
3.77;1.75;1.0;2.0;2.0;2.0;3.0;0.25;1.75;0.75;0.25;0.25;0.25;0.75;4.25;0.25;0.25;-0.185547;0.024902;0.995117;-0.56;0.7;0.49;241.0;-0.042076;-0.06806;0.5;1.75;1.5;2.75;3.25;6.5;0.0;3.75;0.0;0.0;0.25;0.5;1.25;4.0;0.25;0.25;-0.208008;0.03418;0.98584;-0.56;-0.84;0.56;315.0;-0.0651;-0.167658
3.78;1.5;1.0;2.0;2.0;2.0;3.0;0.0;1.75;0.25;0.5;0.25;0.25;0.5;4.25;0.25;0.25;-0.181641;0.025391;0.991699;-0.63;0.7;0.49;228.0;-0.047838;-0.080912;0.5;2.25;1.5;2.75;3.25;6.5;0.0;3.75;0.0;0.0;0.25;0.5;1.0;3.75;0.25;0.25;-0.206543;0.03418;0.986816;-0.49;-0.84;0.49;316.0;-0.075981;-0.167979
3.79;1.25;1.0;2.0;2.0;2.0;3.0;0.0;1.5;0.25;0.5;0.25;0.0;0.5;4.5;0.0;0.25;-0.178711;0.028809;0.995117;-0.63;0.7;0.49;217.0;-0.048377;-0.071802;0.5;2.25;1.5;2.75;3.25;6.5;0.0;3.75;0.0;0.0;0.0;0.5;1.0;3.75;0.25;0.25;-0.209473;0.035645;0.985352;-0.35;-0.91;0.63;313.0;-0.078742;-0.168455
3.8;1.75;1.0;2.0;2.0;2.0;2.75;0.0;1.5;0.25;0.5;0.25;0.25;0.75;4.0;0.0;0.25;-0.179199;0.028809;0.991211;-0.56;0.63;0.63;221.0;-0.060104;-0.076791;0.75;2.25;1.75;2.75;2.75;6.75;0.0;3.5;0.0;0.0;0.0;0.25;1.25;4.0;0.25;0.0;-0.206055;0.033203;0.991699;-0.28;-0.91;0.77;312.0;-0.083413;-0.163633
3.81;1.5;1.0;2.0;2.0;2.0;3.0;0.0;1.75;0.25;0.5;0.25;0.25;0.25;4.0;0.0;0.25;-0.181641;0.029785;0.991699;-0.56;0.63;0.56;220.0;-0.060948;-0.07955;1.0;2.25;1.5;2.75;3.0;6.75;0.0;3.75;0.0;0.0;0.0;0.25;1.25;4.0;0.0;0.0;-0.211426;0.035645;0.980957;-0.14;-0.84;0.7;316.0;-0.088436;-0.165246
3.82;1.5;1.0;2.0;2.0;2.0;3.0;0.0;1.75;0.5;0.5;0.25;0.25;0.5;4.0;0.0;0.25;-0.182617;0.026855;0.996582;-0.49;0.63;0.49;226.0;-0.05353;-0.077932;0.25;2.25;1.5;2.75;2.75;6.5;0.0;3.75;0.0;0.25;0.0;0.25;1.0;3.75;0.25;0.0;-0.205566;0.031738;0.984863;-0.21;-0.63;0.7;302.0;-0.076669;-0.171509
3.83;1.5;1.0;1.75;1.75;2.0;2.75;0.0;1.75;0.75;0.25;0.5;0.25;0.75;4.0;0.25;0.25;-0.180664;0.027832;0.995117;-0.49;0.56;0.56;226.0;-0.033342;-0.076414;0.25;2.0;1.5;2.25;2.75;6.5;0.0;3.5;0.0;0.0;0.25;0.25;1.25;3.75;0.25;0.25;-0.209473;0.035156;0.991699;-0.21;-0.56;0.77;294.0;-0.066299;-0.17212
3.84;1.5;0.75;2.0;2.0;2.0;3.0;0.25;1.75;0.75;0.25;0.25;0.25;0.75;4.0;0.25;0.25;-0.179688;0.024414;0.995605;-0.49;0.56;0.56;234.0;-0.038183;-0.071585;0.5;2.25;1.5;2.5;3.0;6.5;0.0;3.75;0.25;0.0;0.0;0.25;1.5;4.0;0.25;0.25;-0.210938;0.032715;0.986816;-0.14;-0.63;0.7;314.0;-0.06778;-0.16575
3.85;2.0;0.75;2.0;2.25;2.0;3.0;0.25;1.75;0.75;0.5;0.25;0.25;0.75;4.25;0.0;0.5;-0.185547;0.025391;0.991211;-0.77;0.35;0.56;246.0;-0.044937;-0.066721;0.5;2.5;1.5;2.75;2.75;6.75;0.0;3.75;0.0;0.0;0.0;0.5;1.5;4.0;0.25;0.25;-0.211426;0.03125;0.98291;-0.07;-0.84;0.7;319.0;-0.073984;-0.17554
3.86;1.5;1.0;2.0;2.0;2.0;3.0;0.25;1.75;0.5;0.5;0.25;0.25;0.75;4.25;0.25;0.5;-0.181152;0.026367;0.993652;-0.49;0.14;0.63;239.0;-0.036421;-0.075221;0.25;2.25;1.25;2.75;2.75;6.75;0.0;4.25;0.0;0.0;0.25;0.25;1.25;4.0;0.25;0.25;-0.212891;0.02832;0.98584;-0.14;-0.84;0.77;317.0;-0.066522;-0.182636
3.87;1.5;1.25;2.0;1.75;2.0;2.75;0.25;1.75;0.5;0.5;0.25;0.5;0.75;4.25;0.25;0.25;-0.177734;0.02832;0.998047;-0.56;0.21;0.49;237.0;-0.035339;-0.073006;0.25;2.25;1.5;2.75;2.75;7.0;0.0;4.0;0.0;0.0;0.25;0.25;1.5;4.0;0.25;0.25;-0.208496;0.035645;0.987305;-0.21;-0.98;0.91;321.0;-0.068179;-0.180222
3.88;1.5;1.0;2.0;2.0;2.25;3.0;0.0;1.75;0.75;0.5;0.25;0.25;0.75;4.25;0.25;0.25;-0.180176;0.030273;0.991699;-0.56;0.56;0.63;240.0;-0.037618;-0.072291;0.5;2.25;1.5;2.75;2.75;7.0;0.0;4.0;0.0;0.0;0.25;0.25;1.5;4.0;0.0;0.25;-0.208496;0.031738;0.983398;-0.21;-0.98;0.7;321.0;-0.075382;-0.17855
3.89;1.5;1.0;2.0;1.75;2.25;3.0;0.0;1.75;0.75;0.5;0.0;0.25;0.5;4.25;0.0;0.25;-0.182129;0.028809;1.002441;-0.56;0.7;0.63;229.0;-0.045337;-0.065626;0.75;2.25;1.75;2.75;2.75;7.0;0.0;4.0;0.0;0.0;0.25;0.25;1.5;3.75;0.25;0.25;-0.210938;0.03125;0.987793;-0.21;-1.05;0.7;327.0;-0.079218;-0.175253
3.9;1.5;1.0;2.25;1.75;2.25;3.5;0.0;1.5;0.75;0.75;0.0;0.25;0.5;4.0;0.25;0.5;-0.183105;0.026367;0.992676;-0.49;0.84;0.56;239.0;-0.044488;-0.065684;0.5;2.25;1.5;2.75;2.75;6.75;0.0;4.0;0.0;0.0;0.25;0.5;1.5;3.75;0.25;0.25;-0.212891;0.034668;0.982422;-0.35;-0.77;0.77;321.0;-0.071344;-0.180435
3.91;1.5;1.0;2.0;2.0;2.0;3.0;0.0;1.75;0.75;0.25;0.25;0.25;0.75;4.0;0.25;0.25;-0.181641;0.03125;0.991699;-0.49;0.84;0.49;232.0;-0.044396;-0.078186;0.25;2.0;1.25;2.75;2.75;6.75;0.0;4.0;0.0;0.0;0.25;0.5;1.5;4.0;0.25;0.25;-0.208984;0.03418;0.98584;-0.21;-0.42;0.77;315.0;-0.060166;-0.183117
3.92;1.5;1.0;2.0;2.25;2.0;2.75;0.0;1.75;0.75;0.25;0.25;0.25;0.75;4.0;0.0;0.25;-0.186035;0.026367;0.994629;-0.42;0.7;0.56;229.0;-0.051829;-0.077528;0.5;2.0;1.25;2.5;2.75;6.75;0.0;4.0;0.0;0.25;0.25;0.5;1.5;4.0;0.25;0.25;-0.206055;0.03418;0.980957;-0.28;-0.35;0.77;318.0;-0.058387;-0.177919
3.93;2.0;1.0;2.0;2.0;2.0;2.75;0.0;1.75;0.75;0.25;0.25;0.25;0.75;4.0;0.0;0.25;-0.179688;0.02832;0.997559;-0.49;0.63;0.49;232.0;-0.057355;-0.071076;0.75;1.75;1.25;2.75;2.75;6.5;0.0;4.25;0.0;0.25;0.0;0.5;1.5;4.0;0.25;0.25;-0.214355;0.032715;0.983887;-0.14;-0.35;0.63;320.0;-0.061834;-0.178372
3.94;1.5;1.0;2.25;2.0;2.0;2.75;0.0;1.75;0.5;0.5;0.25;0.5;0.75;3.75;0.0;0.25;-0.182617;0.032227;0.995117;-0.56;0.49;0.56;229.0;-0.05421;-0.082444;0.5;2.25;1.25;2.75;2.5;6.5;0.0;4.0;0.0;0.0;0.0;0.75;1.5;4.0;0.0;0.25;-0.212891;0.040527;0.989258;-0.14;-0.42;0.7;312.0;-0.069098;-0.184405
3.95;1.5;1.0;2.0;2.0;2.0;3.0;0.0;1.75;0.25;0.75;0.25;0.5;0.75;4.0;0.25;0.25;-0.18457;0.023926;0.994629;-0.35;0.63;0.49;234.0;-0.043556;-0.088208;0.25;2.25;1.25;2.75;2.5;6.75;0.0;4.0;0.0;0.0;0.25;0.75;1.5;3.75;0.0;0.25;-0.208496;0.037109;0.991211;-0.28;-0.49;0.7;313.0;-0.067744;-0.189962
3.96;1.5;1.0;1.75;2.25;2.0;2.5;0.25;1.75;0.5;0.25;0.0;0.75;0.75;4.0;0.25;0.25;-0.181641;0.027344;0.990723;-0.49;0.49;0.42;230.0;-0.041313;-0.082006;0.25;2.25;1.5;2.5;2.75;6.75;0.0;4.25;0.25;0.25;0.25;0.5;1.5;3.75;0.25;0.25;-0.213379;0.040527;0.981934;-0.49;-0.49;0.63;326.0;-0.059415;-0.178117
3.97;1.5;1.0;1.75;2.25;2.0;3.0;0.0;1.75;0.25;0.25;0.0;0.5;0.75;4.0;0.0;0.25;-0.17627;0.022949;0.999023;-0.35;0.56;0.49;222.0;-0.060368;-0.096105;0.25;2.0;1.25;2.5;2.5;6.75;0.0;4.25;0.25;0.25;0.0;0.5;1.5;4.0;0.25;0.25;-0.209473;0.037598;0.987305;-0.63;-0.63;0.56;317.0;-0.053087;-0.181007
3.98;1.75;1.25;2.25;2.25;2.0;3.25;0.0;1.75;0.25;0.25;0.0;0.5;0.75;3.75;0.0;0.25;-0.182617;0.025391;0.996094;-0.35;0.56;0.49;234.0;-0.079547;-0.094513;0.25;2.0;1.5;2.75;2.75;6.75;0.0;4.0;0.25;0.25;0.0;0.5;1.5;4.0;0.25;0.25;-0.209473;0.030762;0.983887;-0.84;-0.91;0.63;322.0;-0.058483;-0.17387
3.99;1.5;1.25;2.25;2.0;2.0;3.5;0.0;1.75;0.25;0.25;0.0;0.5;0.75;3.5;0.0;0.25;-0.179199;0.023926;0.993164;-0.28;0.63;0.56;229.0;-0.078759;-0.100394;0.25;2.25;1.25;2.75;2.75;6.75;0.0;4.0;0.0;0.25;0.25;0.5;1.5;3.75;0.5;0.25;-0.211914;0.040527;0.983887;-0.77;-1.19;0.49;321.0;-0.059545;-0.182505
4.0;1.5;1.25;2.25;2.0;2.0;3.0;0.0;1.75;0.25;0.25;0.0;0.5;0.75;3.75;0.0;0.25;-0.179688;0.028809;0.996094;-0.21;0.56;0.49;225.0;-0.071757;-0.092977;0.25;2.0;1.25;2.75;2.75;6.75;0.0;4.25;0.0;0.0;0.25;0.75;1.5;3.5;0.25;0.25;-0.204102;0.031738;0.98584;-0.84;-1.26;0.49;318.0;-0.064014;-0.192137
4.01;1.5;1.5;2.25;2.0;2.0;3.0;0.0;1.5;0.25;0.5;0.0;0.75;0.75;3.75;0.25;0.25;-0.182617;0.032227;0.998047;-0.21;0.63;0.63;232.0;-0.063355;-0.088875;0.75;2.25;1.25;2.75;2.75;7.5;0.0;4.25;0.0;0.0;0.0;0.75;1.5;3.5;0.25;0.25;-0.209473;0.033691;0.985352;-0.7;-1.4;0.63;332.0;-0.07734;-0.189639
4.02;1.75;0.75;2.25;2.25;2.0;3.0;0.0;1.75;0.25;0.5;0.0;0.75;0.75;3.5;0.25;0.25;-0.180176;0.025879;0.993652;-0.28;0.63;0.56;232.0;-0.062732;-0.093798;0.25;2.25;1.25;2.75;2.75;7.0;0.0;4.25;0.0;0.0;0.0;0.75;1.5;4.0;0.5;0.25;-0.211426;0.037109;0.986328;-0.77;-1.33;0.56;328.0;-0.059179;-0.18714
4.03;1.5;0.75;2.25;2.25;2.0;3.25;0.0;1.75;0.5;0.25;0.25;0.25;1.0;3.75;0.25;0.0;-0.181641;0.02832;0.996582;-0.28;0.56;0.56;234.0;-0.057317;-0.089727;0.25;2.25;1.25;2.75;2.75;6.75;0.0;4.25;0.25;0.0;0.0;0.5;1.5;4.25;0.25;0.25;-0.210938;0.036133;0.990234;-0.77;-1.33;0.63;325.0;-0.057974;-0.178641
4.04;1.5;1.25;2.25;2.25;2.0;3.0;0.0;1.5;0.25;0.25;0.25;0.25;0.75;3.5;0.25;0.0;-0.179199;0.025391;1.001953;-0.35;0.56;0.63;223.0;-0.077312;-0.088068;0.25;2.25;1.5;2.75;2.75;7.0;0.0;4.25;0.0;0.0;0.0;0.75;1.5;3.75;0.0;0.25;-0.212891;0.031738;0.983398;-0.77;-1.19;0.63;323.0;-0.072811;-0.189012
4.05;1.75;0.75;2.25;2.25;2.0;3.0;0.25;1.75;0.5;0.25;0.25;0.5;0.75;3.5;0.0;0.0;-0.175293;0.025879;1.0;-0.35;0.56;0.56;233.0;-0.067289;-0.080643;0.5;2.0;1.5;3.25;2.75;7.0;0.0;4.25;0.0;0.25;0.0;0.5;1.5;3.75;0.25;0.25;-0.208496;0.03418;0.987305;-0.84;-1.26;0.56;332.0;-0.072504;-0.18329
4.06;1.5;1.0;2.25;2.25;2.0;3.0;0.25;1.75;0.75;0.25;0.25;0.5;1.0;3.25;0.25;0.0;-0.186035;0.026367;1.000488;-0.42;0.56;0.63;239.0;-0.058788;-0.084756;0.75;2.0;1.5;3.0;2.75;7.0;0.0;4.25;0.0;0.25;0.25;0.25;1.75;3.75;0.25;0.25;-0.212402;0.040039;0.98584;-0.84;-1.19;0.56;334.0;-0.071536;-0.180866
4.07;1.75;1.0;2.25;2.25;2.0;3.0;0.0;1.75;0.25;0.25;0.25;0.5;0.75;3.75;0.25;0.25;-0.183594;0.030762;1.002441;-0.28;0.49;0.56;234.0;-0.065314;-0.09159;0.5;2.0;1.5;2.75;2.75;6.75;0.0;4.25;0.0;0.0;0.0;0.5;1.5;3.75;0.25;0.5;-0.209473;0.032715;0.989258;-0.91;-1.19;0.49;322.0;-0.068532;-0.184467
4.08;1.5;0.75;2.25;2.25;2.0;3.25;0.0;1.75;0.25;0.25;0.25;0.5;0.75;3.75;0.25;0.25;-0.181152;0.023438;0.995117;-0.35;0.63;0.63;232.0;-0.058492;-0.095548;0.5;2.25;1.5;3.25;2.75;6.75;0.0;4.25;0.25;0.25;0.0;0.75;1.5;3.75;0.25;0.25;-0.208984;0.029785;0.988281;-0.77;-1.19;0.49;338.0;-0.068495;-0.178485
4.09;2.25;1.0;2.25;2.5;2.0;3.25;0.0;1.75;0.25;0.25;0.0;0.5;0.75;3.75;0.25;0.25;-0.173828;0.026855;0.988281;-0.49;0.63;0.56;243.0;-0.080405;-0.090502;0.75;2.5;1.25;3.25;2.75;7.0;0.0;4.25;0.0;0.0;0.0;0.5;1.5;4.0;0.25;0.25;-0.208984;0.029785;0.990723;-0.7;-0.91;0.56;336.0;-0.077988;-0.182647
4.1;1.75;1.25;2.25;2.25;2.0;3.25;0.0;1.75;0.25;0.25;0.0;0.75;0.75;3.5;0.0;0.25;-0.182617;0.030762;0.996094;-0.56;0.91;0.7;235.0;-0.080881;-0.099672;0.75;2.5;1.5;2.5;2.75;6.75;0.0;4.25;0.0;0.0;0.0;0.25;1.5;4.25;0.25;0.25;-0.208008;0.034668;0.98584;-0.7;-0.63;0.49;327.0;-0.072335;-0.174574
4.11;1.5;1.25;2.25;2.25;2.0;3.25;0.0;1.5;0.25;0.25;0.0;0.75;0.75;3.5;0.0;0.25;-0.181152;0.025879;0.991211;-0.63;0.84;0.7;228.0;-0.078131;-0.096921;0.75;2.5;1.5;2.75;2.75;6.75;0.0;4.25;0.25;0.25;0.25;0.5;1.5;4.0;0.5;0.25;-0.212891;0.03418;0.991699;-0.84;-0.7;0.56;343.0;-0.062609;-0.170487
