Time;left pressure 1[N/cm²];left pressure 2[N/cm²];left pressure 3[N/cm²];left pressure 4[N/cm²];left pressure 5[N/cm²];left pressure 6[N/cm²];left pressure 7[N/cm²];left pressure 8[N/cm²];left pressure 9[N/cm²];left pressure 10[N/cm²];left pressure 11[N/cm²];left pressure 12[N/cm²];left pressure 13[N/cm²];left pressure 14[N/cm²];left pressure 15[N/cm²];left pressure 16[N/cm²];left acceleration X[g];left acceleration Y[g];left acceleration Z[g];left angular X[dps];left angular Y[dps];left angular Z[dps];left total force[N];left center of pressure X[-0.5...+0.5];left center of pressure Y[-0.5...+0.5];right pressure 1[N/cm²];right pressure 2[N/cm²];right pressure 3[N/cm²];right pressure 4[N/cm²];right pressure 5[N/cm²];right pressure 6[N/cm²];right pressure 7[N/cm²];right pressure 8[N/cm²];right pressure 9[N/cm²];right pressure 10[N/cm²];right pressure 11[N/cm²];right pressure 12[N/cm²];right pressure 13[N/cm²];right pressure 14[N/cm²];right pressure 15[N/cm²];right pressure 16[N/cm²];right acceleration X[g];right acceleration Y[g];right acceleration Z[g];right angular X[dps];right angular Y[dps];right angular Z[dps];right total force[N];right center of pressure X[-0.5...+0.5];right center of pressure Y[-0.5...+0.5]
0.0;8.25;6.0;6.0;3.75;0.25;0.0;0.25;0.0;1.25;0.5;0.75;0.5;0.0;1.0;0.5;0.25;-0.230957;0.017578;0.983887;-0.07;0.14;0.77;333.0;-0.238259;0.003016;3.25;8.25;3.25;6.25;0.5;1.25;0.0;0.25;1.0;0.75;1.0;0.75;0.5;1.75;0.5;0.5;-0.250977;0.030762;0.972168;0.42;-0.49;0.91;332.0;-0.191523;-0.085961
0.01;8.25;6.0;6.0;3.75;0.25;0.0;0.25;0.0;1.25;0.25;0.75;0.5;0.0;1.0;0.5;0.25;-0.236328;0.019043;0.987793;-0.35;-0.0;0.77;331.0;-0.242374;0.002492;3.0;8.25;3.25;6.25;0.5;1.0;0.0;0.25;0.75;0.5;1.0;0.75;0.5;1.5;0.0;0.5;-0.245605;0.02832;0.970215;0.35;-0.42;0.84;312.0;-0.214561;-0.093474
0.02;8.25;6.5;6.0;3.75;0.25;0.0;0.25;0.0;1.25;0.25;0.75;0.5;0.0;1.0;0.5;0.25;-0.228516;0.020996;0.981934;-0.28;-0.0;0.84;336.0;-0.244991;-4e-05;3.0;8.25;3.25;6.25;0.5;1.0;0.0;0.25;0.75;0.5;1.0;0.75;0.5;1.5;0.0;0.25;-0.248535;0.027344;0.97998;0.35;-0.49;0.7;310.0;-0.217305;-0.092424
0.03;8.25;6.75;6.0;4.25;0.25;0.0;0.25;0.0;1.25;0.25;0.75;0.5;0.0;1.0;0.25;0.25;-0.234863;0.019531;0.989258;-0.0;-0.07;0.98;341.0;-0.252486;-0.004526;3.0;8.0;3.0;6.0;0.5;1.0;0.0;0.25;0.25;0.5;0.75;0.75;0.25;1.25;0.0;0.25;-0.250977;0.030273;0.974609;0.14;-0.49;0.7;287.0;-0.238789;-0.100383
0.04;8.25;6.75;6.25;4.25;0.0;0.0;0.25;0.0;1.5;0.25;1.0;0.5;0.0;1.0;0.25;0.0;-0.234375;0.018066;0.977539;0.14;-0.07;0.91;346.0;-0.247119;-0.000989;3.0;8.0;3.0;6.0;0.25;1.0;0.0;0.25;0.25;0.5;0.75;0.75;0.25;1.0;0.0;0.25;-0.250488;0.028809;0.976562;-0.0;-0.42;0.7;282.0;-0.245364;-0.104395
0.05;8.75;7.0;6.5;4.5;0.25;0.0;0.25;0.0;1.5;0.25;1.0;0.25;0.0;1.0;0.25;0.0;-0.229004;0.016602;0.986816;0.77;-0.28;1.05;361.0;-0.253878;0.001358;3.0;7.75;2.75;6.0;0.25;0.75;0.0;0.25;0.25;0.5;0.75;0.25;0.25;1.0;0.0;0.25;-0.250977;0.030762;0.970215;-0.0;-0.56;0.7;267.0;-0.254349;-0.100031
0.06;8.75;7.0;6.5;4.75;0.25;0.0;0.25;0.0;1.75;0.5;1.0;0.25;0.0;1.0;0.25;0.0;-0.234375;0.02002;0.986816;1.26;-0.21;1.05;370.0;-0.245423;0.002643;3.0;7.5;2.5;5.5;0.25;0.75;0.0;0.25;0.25;0.5;0.75;0.25;0.25;1.25;0.0;0.25;-0.244629;0.031738;0.976562;-0.0;-0.42;0.77;258.0;-0.245866;-0.096226
0.07;8.5;7.0;6.5;4.75;0.25;0.25;0.25;0.0;1.75;0.75;0.75;0.25;0.0;1.25;0.25;0.25;-0.226562;0.016113;0.983398;1.54;-0.35;1.05;374.0;-0.236916;0.000854;2.75;7.5;2.75;5.5;0.25;1.0;0.0;0.25;0.25;0.5;0.75;0.5;0.25;0.75;0.0;0.25;-0.25293;0.033203;0.97168;0.07;-0.49;0.77;260.0;-0.250032;-0.105412
0.08;8.5;7.25;6.5;5.25;0.25;0.0;0.25;0.0;1.75;0.25;1.0;0.5;0.0;1.0;0.5;0.25;-0.233887;0.016113;0.981445;1.47;-0.28;1.05;380.0;-0.238951;-0.007448;2.25;7.5;2.75;5.5;0.25;0.75;0.0;0.25;0.25;0.5;0.75;0.5;0.25;0.75;0.0;0.0;-0.254395;0.027344;0.974609;-0.0;-0.42;0.77;250.0;-0.251346;-0.107039
0.09;8.75;7.25;7.0;5.0;0.25;0.0;0.25;0.0;1.75;0.25;1.25;0.5;0.0;1.0;0.5;0.25;-0.229004;0.01709;0.987305;1.4;-0.14;1.12;389.0;-0.236769;-0.004206;2.5;7.5;2.5;5.5;0.25;0.75;0.0;0.25;0.25;0.5;0.75;0.5;0.25;0.75;0.0;0.0;-0.255859;0.032227;0.973145;-0.07;-0.49;0.7;249.0;-0.252898;-0.106991
0.1;8.5;7.25;7.0;5.5;0.25;0.0;0.25;0.0;1.75;0.25;1.0;0.5;0.0;0.75;0.5;0.25;-0.233887;0.018066;0.98291;1.26;0.07;1.19;387.0;-0.243654;-0.008719;2.25;7.25;2.5;5.5;0.25;0.75;0.0;0.25;0.25;0.25;0.75;0.5;0.25;0.5;0.0;0.0;-0.250977;0.024902;0.976562;-0.21;-0.63;0.77;239.0;-0.261726;-0.113723
0.11;8.25;7.25;7.25;6.0;0.25;0.25;0.25;0.0;2.0;0.5;1.25;0.5;0.0;1.25;0.25;0.25;-0.236328;0.015137;0.98877;1.05;0.28;1.19;407.0;-0.228721;-0.009032;1.75;7.0;2.25;5.5;0.25;0.75;0.0;0.25;0.25;0.25;0.75;0.25;0.25;0.5;0.0;0.0;-0.250488;0.030273;0.964355;-0.42;-0.56;0.7;225.0;-0.26241;-0.119164
0.12;8.25;7.25;7.0;5.75;0.25;0.0;0.25;0.0;1.5;0.5;1.25;0.75;0.0;1.5;0.25;0.25;-0.233398;0.026855;0.990723;0.84;0.21;1.12;396.0;-0.230383;-0.012282;2.0;7.0;2.25;5.25;0.25;0.75;0.0;0.25;0.25;0.25;0.75;0.25;0.25;0.5;0.0;0.0;-0.249023;0.026855;0.96875;-0.42;-0.56;0.7;225.0;-0.26385;-0.11488
0.13;8.0;7.25;7.0;6.0;0.25;0.25;0.25;0.0;2.0;0.5;1.0;0.5;0.0;1.25;0.25;0.5;-0.231445;0.021484;0.981445;0.84;0.35;1.12;400.0;-0.228274;-0.01098;1.75;6.75;2.25;5.25;0.25;0.75;0.0;0.25;0.25;0.5;0.5;0.25;0.25;0.25;0.0;0.0;-0.252441;0.030762;0.968262;-0.56;-0.63;0.84;217.0;-0.267345;-0.117977
0.14;8.0;7.25;7.0;6.0;0.25;0.25;0.25;0.0;2.0;0.5;1.25;0.5;0.0;1.25;0.25;0.5;-0.23291;0.024414;0.981445;0.7;0.42;1.05;403.0;-0.225049;-0.011725;1.75;7.0;2.5;5.25;0.25;0.75;0.0;0.25;0.0;0.25;1.0;0.25;0.25;0.25;0.0;0.0;-0.25293;0.027344;0.971191;-0.63;-0.7;0.84;222.0;-0.271248;-0.124279
0.15;8.0;7.25;7.0;5.75;0.25;0.25;0.25;0.0;1.75;0.5;1.25;0.5;0.0;1.5;0.25;0.5;-0.235352;0.026367;0.987793;0.7;0.49;1.05;399.0;-0.225185;-0.011585;2.0;7.0;2.5;5.25;0.25;0.75;0.0;0.25;0.25;0.25;0.75;0.25;0.25;0.5;0.0;0.25;-0.249023;0.02832;0.974609;-0.63;-0.56;0.84;229.0;-0.259834;-0.113445
0.16;7.75;7.25;6.5;5.5;0.25;0.25;0.25;0.0;2.5;0.5;1.25;0.5;0.0;1.25;0.25;0.5;-0.229492;0.022949;0.983887;0.56;0.63;0.91;395.0;-0.213483;-0.005733;1.5;7.0;2.5;5.25;0.25;0.75;0.0;0.25;0.25;0.25;0.75;0.25;0.0;0.75;0.0;0.0;-0.249023;0.029297;0.977051;-0.84;-0.7;0.84;222.0;-0.257837;-0.111038
0.17;8.0;6.75;7.0;5.75;0.25;0.25;0.25;0.0;2.0;0.75;1.5;0.5;0.0;1.25;0.25;0.25;-0.22998;0.024902;0.989746;0.49;0.77;0.84;399.0;-0.217784;-0.007259;1.5;7.0;2.5;5.25;0.25;1.0;0.0;0.25;0.25;0.25;0.75;0.25;0.0;0.75;0.0;0.0;-0.250977;0.030273;0.974609;-1.12;-0.7;0.77;225.0;-0.256439;-0.113178
0.18;7.5;6.75;6.5;5.75;0.25;0.25;0.25;0.0;2.0;0.75;1.5;0.5;0.0;1.25;0.5;0.25;-0.232422;0.024414;0.988281;0.35;0.84;0.84;390.0;-0.209752;-0.011004;1.75;7.0;2.5;5.25;0.25;1.0;0.0;0.25;0.25;0.5;0.75;0.25;0.25;1.0;0.0;0.25;-0.248047;0.025391;0.96875;-0.98;-0.56;0.7;237.0;-0.237572;-0.110267
0.19;7.25;6.75;6.25;6.0;0.25;0.25;0.25;0.0;2.0;0.5;1.5;0.5;0.0;1.75;0.5;0.25;-0.231934;0.020508;0.986328;0.49;0.98;0.7;389.0;-0.204369;-0.012605;2.0;7.0;2.75;5.5;0.25;1.0;0.0;0.25;0.25;0.5;0.75;0.5;0.25;1.0;0.0;0.25;-0.246094;0.027832;0.970703;-0.84;-0.49;0.77;248.0;-0.235225;-0.108853
0.2;7.25;6.75;6.25;5.5;0.25;0.25;0.25;0.0;2.0;0.5;1.5;0.5;0.0;1.5;0.25;0.25;-0.23291;0.021484;0.981934;0.35;1.12;0.63;378.0;-0.211482;-0.009878;1.75;7.0;2.5;5.5;0.25;1.0;0.0;0.25;0.25;0.5;0.75;0.5;0.25;1.0;0.0;0.0;-0.256836;0.033203;0.975098;-0.77;-0.42;0.84;241.0;-0.23653;-0.112657
0.21;6.5;6.5;5.75;5.25;0.25;0.25;0.25;0.0;2.0;0.75;1.5;0.5;0.0;1.5;0.25;0.25;-0.237793;0.019043;0.985352;0.28;1.4;0.56;361.0;-0.200425;-0.010889;1.5;7.0;2.5;5.5;0.5;1.0;0.0;0.25;0.25;0.5;1.0;0.25;0.25;1.0;0.0;0.0;-0.250977;0.032227;0.973633;-0.91;-0.7;0.98;241.0;-0.23303;-0.110946
0.22;6.25;6.25;6.0;4.75;0.25;0.25;0.25;0.0;2.0;0.25;1.25;0.5;0.0;1.5;0.25;0.25;-0.231445;0.02002;0.981934;0.21;1.4;0.63;344.0;-0.207065;-0.006479;1.25;7.5;2.75;5.5;0.5;1.0;0.0;0.25;0.5;0.5;0.75;0.25;0.25;1.0;0.0;0.25;-0.255371;0.030762;0.978516;-1.05;-0.84;1.12;249.0;-0.229917;-0.107717
0.23;6.5;5.75;5.75;4.75;0.25;0.25;0.25;0.0;1.75;0.25;1.5;0.5;0.0;1.5;0.5;0.25;-0.22998;0.019531;0.984375;0.35;1.61;0.84;341.0;-0.201128;-0.008519;1.25;7.25;3.0;5.5;0.5;1.0;0.0;0.25;0.5;0.5;0.75;0.5;0.25;1.25;0.0;0.25;-0.242676;0.030273;0.974121;-1.61;-1.12;1.26;254.0;-0.217662;-0.1043
0.24;5.75;5.5;5.75;4.75;0.25;0.25;0.25;0.0;1.75;0.25;1.5;0.5;0.0;1.5;0.5;0.25;-0.23291;0.021484;0.985352;0.49;1.54;0.84;330.0;-0.194275;-0.010337;1.5;7.75;3.0;6.0;0.5;1.0;0.0;0.25;0.5;0.75;1.0;0.5;0.25;1.5;0.25;0.0;-0.249023;0.032227;0.975586;-1.54;-1.12;1.4;278.0;-0.206779;-0.100554
0.25;5.0;5.5;5.25;4.25;0.25;0.25;0.25;0.0;1.5;0.25;1.5;0.75;0.0;1.0;0.25;0.25;-0.227539;0.026367;0.987305;0.63;1.33;0.98;301.0;-0.201671;-0.01978;1.75;7.75;3.0;6.25;0.5;1.25;0.0;0.25;0.5;0.75;1.25;0.5;0.5;1.75;0.25;0.25;-0.244141;0.030762;0.973633;-1.33;-0.98;1.54;296.0;-0.194038;-0.103453
0.26;4.75;5.25;4.75;4.25;0.0;0.25;0.25;0.0;1.5;0.25;1.5;0.75;0.0;1.0;0.25;0.25;-0.234863;0.026855;0.98291;0.42;1.12;1.19;286.0;-0.197229;-0.022935;1.5;8.0;3.0;6.25;0.5;1.25;0.0;0.25;0.75;0.75;1.25;0.25;0.25;1.75;0.25;0.0;-0.254395;0.021484;0.971191;-0.91;-0.84;1.61;292.0;-0.198134;-0.095577
0.27;4.5;4.5;4.75;4.0;0.0;0.25;0.25;0.0;1.5;0.5;1.75;0.75;0.0;1.0;0.25;0.25;-0.22998;0.022461;0.98584;0.28;0.91;1.12;279.0;-0.179409;-0.018285;1.5;7.5;3.0;6.25;0.75;1.25;0.0;0.25;0.75;0.75;1.25;0.5;0.25;1.75;0.5;0.0;-0.253418;0.024414;0.973145;-0.7;-0.77;1.54;296.0;-0.183836;-0.094601
0.28;3.75;4.5;4.5;4.0;0.0;0.25;0.25;0.0;1.5;0.5;1.75;0.75;0.0;1.0;0.25;0.25;-0.236328;0.024902;0.986328;0.07;0.77;1.26;267.0;-0.171316;-0.023552;1.75;7.5;3.0;6.25;0.5;1.25;0.0;0.5;0.75;1.0;1.25;0.75;0.5;1.75;0.5;0.25;-0.24707;0.026855;0.977051;-0.7;-0.7;1.47;309.0;-0.171252;-0.10251
0.29;3.75;4.5;4.25;3.75;0.0;0.25;0.25;0.0;1.25;0.5;1.75;1.0;0.0;1.0;0.25;0.25;-0.240723;0.024414;0.982422;0.07;0.84;1.33;260.0;-0.170542;-0.029658;1.5;7.5;3.0;6.25;0.75;1.25;0.0;0.25;0.75;0.75;1.25;0.75;0.25;2.25;0.5;0.5;-0.255859;0.037598;0.970703;-0.63;-0.49;1.33;306.0;-0.165838;-0.094481
0.3;2.75;3.75;3.5;3.75;0.0;0.25;0.25;0.0;1.25;0.5;1.75;1.0;0.0;0.75;0.25;0.25;-0.233887;0.021484;0.983887;0.77;0.84;1.54;230.0;-0.15312;-0.038806;1.5;7.75;3.0;6.25;0.75;1.25;0.0;0.25;1.0;1.0;1.5;0.75;0.25;2.5;0.5;0.5;-0.249023;0.03418;0.980469;-0.7;-0.49;1.26;320.0;-0.151806;-0.087743
0.31;2.5;3.75;3.25;3.5;0.0;0.25;0.25;0.0;1.25;0.5;1.75;1.0;0.0;0.75;0.5;0.25;-0.237305;0.022949;0.989258;1.19;1.19;1.68;224.0;-0.139463;-0.040479;1.25;7.75;3.0;6.25;0.75;1.5;0.0;0.25;1.25;1.0;1.5;0.75;0.5;2.25;0.5;0.5;-0.254883;0.024414;0.974609;-0.7;-0.7;1.19;324.0;-0.146821;-0.091779
0.32;2.25;3.5;3.0;3.5;0.0;0.0;0.25;0.0;1.25;0.75;1.75;0.75;0.0;0.75;0.5;0.25;-0.222168;0.025391;0.974121;1.33;1.89;1.89;213.0;-0.130322;-0.034734;1.25;7.5;3.0;6.25;0.75;1.5;0.0;0.25;1.5;1.0;1.25;1.0;0.5;2.75;0.5;0.5;-0.255371;0.030273;0.973633;-0.77;-0.7;0.98;330.0;-0.132642;-0.08502
0.33;1.75;2.75;2.5;3.25;0.0;0.25;0.25;0.25;1.0;0.5;1.75;1.0;0.0;0.75;0.25;0.25;-0.235352;0.023926;0.983398;1.05;2.38;1.82;191.0;-0.117615;-0.05672;1.25;7.5;2.75;6.25;0.75;1.25;0.0;0.5;1.5;1.25;1.5;1.0;0.5;2.5;0.75;0.5;-0.24707;0.033691;0.974609;-0.98;-0.77;0.91;334.0;-0.12267;-0.089558
0.34;1.25;2.5;2.25;2.75;0.0;0.25;0.25;0.25;1.0;0.5;2.0;1.0;0.25;1.0;0.25;0.25;-0.232422;0.029297;0.989258;0.56;3.57;1.82;181.0;-0.080527;-0.060448;1.5;7.5;3.25;6.5;0.75;1.25;0.0;0.5;1.5;1.0;1.75;1.0;0.5;2.75;0.75;0.5;-0.251465;0.026367;0.975098;-1.12;-0.98;0.98;349.0;-0.125401;-0.085669
0.35;0.75;2.0;1.5;2.5;0.0;0.25;0.25;0.0;1.25;0.75;2.0;1.0;0.25;1.0;0.25;0.5;-0.243164;0.029785;0.990234;-0.07;3.99;1.89;162.0;-0.029282;-0.052728;1.5;7.5;3.25;6.5;0.75;1.5;0.0;0.5;1.5;1.0;2.0;1.0;0.5;3.0;0.5;0.5;-0.255859;0.027832;0.980469;-0.98;-0.98;0.98;354.0;-0.123575;-0.085788
0.36;0.75;1.75;1.5;2.5;0.0;0.0;0.25;0.0;1.5;1.0;2.0;1.25;0.25;1.0;0.5;0.5;-0.244141;0.043457;0.977051;-0.42;4.69;1.75;169.0;0.000695;-0.042923;1.25;7.5;3.25;6.5;0.75;1.5;0.0;0.5;1.5;1.5;2.0;1.25;0.5;2.75;0.5;0.5;-0.253418;0.025391;0.974121;-0.7;-0.77;0.98;357.0;-0.116373;-0.088352
0.37;0.5;1.5;1.25;2.25;0.0;0.0;0.25;0.0;1.25;1.0;2.0;1.25;0.25;0.75;0.5;0.5;-0.283691;0.011719;1.038086;-1.12;3.85;2.24;152.0;0.013874;-0.053621;1.5;7.5;3.25;6.5;0.75;1.5;0.0;0.5;1.5;1.5;2.0;1.25;0.5;3.0;0.5;0.5;-0.254395;0.036133;0.979004;-0.77;-0.84;1.05;362.0;-0.115224;-0.085109
0.38;0.25;1.25;0.75;2.0;0.0;0.0;0.25;0.0;1.5;1.0;2.0;1.25;0.25;0.75;0.5;0.5;-0.258301;0.079102;0.984863;-1.05;4.13;2.66;141.0;0.054622;-0.049087;1.25;7.25;3.0;6.5;0.75;1.75;0.0;0.5;1.75;1.5;2.0;1.25;0.5;3.0;0.5;0.5;-0.249023;0.03125;0.973633;-0.63;-0.77;1.05;361.0;-0.106206;-0.085523
0.39;0.25;1.0;0.5;1.75;0.0;0.0;0.25;0.0;1.5;1.0;2.5;1.25;0.25;0.75;0.25;0.5;-0.240723;0.029785;0.977051;-1.54;4.62;2.59;135.0;0.077989;-0.048253;1.5;7.25;3.0;6.5;0.75;1.5;0.0;0.5;1.75;1.5;2.0;1.25;0.5;3.0;0.75;0.5;-0.257324;0.033203;0.970703;-0.63;-0.77;0.98;363.0;-0.104087;-0.082449
0.4;0.25;1.0;0.25;1.5;0.0;0.0;0.25;0.0;1.25;1.25;2.5;1.25;0.25;0.75;0.0;0.5;-0.208496;-0.104492;0.936523;-3.5;4.2;6.44;125.0;0.086138;-0.053254;1.25;7.25;3.25;6.25;0.75;1.5;0.0;0.5;1.75;1.5;1.75;1.0;0.5;3.0;0.5;0.5;-0.251953;0.028809;0.978027;-0.84;-0.91;0.77;352.0;-0.110929;-0.07927
0.41;0.25;0.75;0.25;1.5;0.0;0.0;0.5;0.0;1.5;1.5;2.5;1.25;0.0;0.75;0.25;0.5;-0.319336;0.035156;1.032715;-12.88;7.63;34.650002;134.0;0.108642;-0.02426;1.25;7.25;3.25;6.5;0.75;1.5;0.0;0.5;1.75;1.5;1.75;1.0;0.5;3.0;0.5;0.5;-0.253418;0.040527;0.974609;-0.84;-0.91;0.77;355.0;-0.112421;-0.0805
0.42;0.0;0.5;0.25;1.25;0.0;0.0;0.25;0.0;2.0;1.25;2.5;1.25;0.25;0.75;0.5;0.75;-0.211914;0.03418;0.972168;-16.870001;8.26;48.790001;133.0;0.154873;-0.026188;1.5;7.75;3.0;6.75;0.75;1.5;0.0;0.5;2.0;1.5;1.75;1.25;0.5;3.0;0.5;0.5;-0.253906;0.026855;0.975586;-0.91;-1.05;0.91;369.0;-0.112883;-0.081035
0.43;0.25;0.5;0.25;1.0;0.0;0.0;0.5;0.0;2.0;1.5;2.5;1.25;0.25;1.0;0.5;0.75;-0.263672;-0.027832;0.993164;-18.41;6.58;55.439999;142.0;0.156879;-0.006327;1.5;7.75;3.0;6.5;0.75;1.5;0.0;0.5;1.75;1.5;1.75;1.25;0.5;3.0;0.5;0.5;-0.251465;0.027344;0.972656;-0.91;-1.12;0.98;363.0;-0.11508;-0.083351
0.44;0.25;0.25;0.25;0.75;0.0;0.0;0.5;0.0;2.0;1.75;2.25;1.5;0.25;0.75;0.5;0.75;-0.211426;-0.026855;0.999023;-19.110001;6.65;60.689999;137.0;0.1742;-0.004065;1.5;8.0;3.25;6.75;0.75;1.5;0.25;0.5;1.75;1.5;1.75;1.25;0.5;3.0;0.25;0.5;-0.247559;0.030762;0.974609;-0.49;-1.26;1.05;372.0;-0.121604;-0.080041
0.45;0.25;0.25;0.25;0.75;0.0;0.0;0.5;0.0;2.25;1.5;2.5;1.5;0.0;0.75;0.5;0.75;-0.178223;-0.094238;1.052734;-21.139999;6.3;66.080002;138.0;0.176109;0.007241;2.0;8.25;3.25;6.75;0.75;1.5;0.25;0.5;1.5;1.5;2.0;1.25;0.5;3.0;0.25;0.5;-0.257324;0.03418;0.978516;-0.42;-1.26;1.05;380.0;-0.128698;-0.081406
0.46;0.25;0.25;0.25;0.5;0.0;0.0;0.5;0.0;2.25;1.25;2.25;1.25;0.0;1.0;0.5;0.75;-0.219727;0.018555;0.973145;-22.610001;6.16;72.309998;129.0;0.187953;0.023997;2.0;8.25;3.25;7.0;0.75;1.5;0.0;0.5;1.75;1.5;2.0;1.0;0.5;2.75;0.5;0.25;-0.250488;0.027344;0.972168;-0.42;-1.33;1.12;378.0;-0.132331;-0.081762
0.47;0.25;0.25;0.25;0.5;0.0;0.0;0.5;0.0;2.25;1.5;2.25;1.25;0.25;1.0;0.5;0.75;-0.203125;-0.078125;0.980957;-23.379999;5.88;76.160004;134.0;0.188751;0.016306;2.0;8.25;3.5;7.0;0.75;1.5;0.0;0.5;1.75;1.5;2.0;1.25;0.5;3.0;0.75;0.5;-0.253418;0.030762;0.97168;-0.42;-1.33;1.05;391.0;-0.121801;-0.081344
0.48;0.0;0.25;0.25;0.5;0.0;0.0;0.5;0.0;2.0;1.5;2.25;1.25;0.25;1.0;0.5;0.75;-0.291992;0.0;1.010742;-22.26;6.16;75.459999;127.0;0.199989;0.007012;2.0;8.25;3.25;6.5;0.75;1.75;0.0;0.5;1.75;1.5;2.0;1.25;0.5;3.0;0.75;0.5;-0.250488;0.026855;0.969238;-0.77;-1.61;0.98;385.0;-0.118316;-0.08194
0.49;0.25;0.25;0.25;0.5;0.0;0.0;0.5;0.0;2.0;1.5;2.5;1.25;0.25;1.25;0.75;0.75;-0.226074;0.040039;1.030273;-21.0;5.11;70.279999;138.0;0.196078;0.007573;2.0;8.25;3.5;6.75;0.75;1.75;0.0;0.5;1.75;1.5;1.75;1.25;0.75;3.0;0.5;0.5;-0.249023;0.027832;0.973633;-0.7;-1.75;1.19;388.0;-0.125463;-0.083752
0.5;0.25;0.0;0.0;0.5;0.0;0.0;0.25;0.0;2.25;1.75;2.25;1.25;0.25;1.0;0.75;0.75;-0.262207;0.010742;1.037598;-19.32;4.48;65.519997;130.0;0.220564;0.009828;2.0;8.5;3.5;6.75;0.75;1.75;0.0;0.5;1.75;1.5;1.75;1.25;0.5;3.0;0.5;0.5;-0.252441;0.034668;0.977539;-0.7;-1.68;1.26;388.0;-0.129145;-0.081994
0.51;0.25;0.0;0.0;0.25;0.0;0.0;0.25;0.0;2.5;1.5;2.25;1.25;0.25;0.75;0.75;0.75;-0.193359;0.08252;0.976562;-18.83;4.62;61.950001;125.0;0.229717;0.018654;2.25;9.25;3.75;6.75;0.75;1.75;0.0;0.75;1.75;1.75;2.0;1.25;0.5;3.0;0.25;0.5;-0.256836;0.030273;0.972656;-0.77;-1.47;1.26;408.0;-0.134903;-0.08333
0.52;0.0;0.0;0.0;0.25;0.0;0.0;0.25;0.0;2.5;1.25;2.25;1.25;0.25;1.5;0.75;0.75;-0.212402;0.024902;1.044434;-17.780001;3.78;56.560001;127.0;0.25369;0.024371;2.25;9.0;3.25;6.75;0.75;1.75;0.0;0.5;1.75;1.5;2.0;1.0;0.75;3.0;0.25;0.5;-0.254395;0.033203;0.976074;-0.63;-1.19;1.19;392.0;-0.13578;-0.083987
0.53;0.25;0.25;0.0;0.0;0.0;0.0;0.25;0.0;2.5;1.25;2.5;1.25;0.25;1.5;0.5;0.5;-0.277344;0.066406;0.945312;-15.68;2.1;48.790001;127.0;0.233281;0.03152;2.75;9.25;3.75;7.0;0.75;1.75;0.0;0.5;1.75;1.5;2.0;1.0;0.5;2.5;0.25;0.5;-0.25293;0.028809;0.976074;-0.63;-0.98;1.05;402.0;-0.152509;-0.081023
0.54;0.25;0.25;0.25;0.25;0.0;0.0;0.25;0.0;2.5;1.25;2.0;1.25;0.0;1.25;0.5;0.75;-0.327637;0.13623;0.995605;-14.84;2.66;45.220001;125.0;0.208221;0.036018;2.25;9.0;3.75;6.75;0.75;1.75;0.0;0.5;1.75;1.5;2.0;1.25;0.5;2.5;0.5;0.5;-0.249512;0.027832;0.975586;-0.77;-0.91;1.12;397.0;-0.139574;-0.083667
0.55;0.25;0.25;0.25;0.25;0.0;0.0;0.25;0.0;2.5;1.25;2.0;1.0;0.0;1.25;0.75;0.75;-0.310059;0.145996;0.96875;-11.62;0.98;35.279999;125.0;0.212842;0.040981;2.25;9.0;3.5;6.75;0.75;1.75;0.0;0.5;1.5;1.5;2.0;1.25;0.5;2.75;0.5;0.25;-0.248047;0.033691;0.977051;-0.7;-1.05;0.91;391.0;-0.140827;-0.085868
0.56;0.25;0.25;0.0;0.25;0.0;0.0;0.25;0.0;2.5;1.25;2.0;0.75;0.0;1.25;0.75;0.75;-0.303711;0.230957;0.976562;-8.82;-0.49;24.639999;119.0;0.225286;0.047928;2.25;9.0;3.5;6.75;0.75;1.75;0.0;0.5;1.75;1.5;2.0;1.5;0.5;2.75;0.75;0.0;-0.253418;0.029297;0.979004;-0.84;-0.91;0.77;399.0;-0.132665;-0.083282
0.57;0.25;0.25;0.25;0.25;0.0;0.0;0.25;0.0;2.5;1.25;2.0;1.0;0.0;1.25;0.5;0.5;-0.365234;0.412598;0.972168;-4.97;-1.75;11.2;120.0;0.206388;0.048286;2.25;9.0;3.5;6.75;0.75;1.75;0.0;0.5;1.5;1.75;2.0;1.5;0.5;2.75;0.5;0.5;-0.25;0.032715;0.97168;-1.19;-1.33;0.56;398.0;-0.133717;-0.087162
0.58;0.25;0.25;0.25;0.25;0.0;0.0;0.25;0.0;2.0;1.25;2.0;1.0;0.0;1.5;0.5;0.5;-0.242676;0.036621;0.995605;-0.84;-2.1;-0.63;115.0;0.207453;0.036882;2.25;9.0;3.75;6.75;0.75;1.75;0.0;0.5;1.5;1.5;2.0;1.0;0.5;2.75;0.5;0.5;-0.250977;0.027344;0.980957;-0.91;-1.4;0.77;393.0;-0.142469;-0.083828
0.59;0.0;0.25;0.25;0.25;0.0;0.0;0.25;0.0;2.5;1.0;1.75;1.0;0.0;1.5;0.5;0.25;-0.243652;0.024414;0.98584;-3.08;-2.17;-1.33;113.0;0.222591;0.057974;2.25;9.0;3.75;6.75;0.75;1.75;0.0;0.5;1.75;1.5;2.0;1.25;0.5;2.75;0.75;0.5;-0.25293;0.028809;0.975098;-0.91;-1.33;0.84;402.0;-0.132486;-0.082148
0.6;0.25;0.25;0.0;0.25;0.0;0.0;0.25;0.0;2.75;0.75;1.75;0.75;0.0;1.5;0.5;0.5;-0.248047;0.017578;0.97998;-3.57;-1.82;-1.96;112.0;0.222916;0.069398;2.75;9.0;3.75;6.75;1.0;1.75;0.25;0.75;1.75;1.5;2.0;1.25;0.5;2.75;0.75;0.5;-0.253418;0.03125;0.975098;-0.84;-1.26;0.77;419.0;-0.132805;-0.078428
0.61;0.25;0.25;0.25;0.5;0.0;0.0;0.25;0.0;2.75;1.0;1.5;0.75;0.0;1.75;0.25;0.5;-0.247559;0.015625;0.979492;-3.64;-1.33;-2.45;117.0;0.196724;0.072629;2.5;9.0;3.75;6.75;1.0;1.75;0.0;0.5;1.5;1.5;2.0;1.0;0.5;2.75;0.75;0.5;-0.250977;0.030273;0.982422;-0.84;-1.26;0.98;402.0;-0.14025;-0.081374
0.62;0.25;0.25;0.25;0.25;0.0;0.0;0.25;0.0;3.0;0.75;1.5;0.75;0.0;2.0;0.25;0.25;-0.239258;0.027344;0.980957;-3.15;-0.84;-2.8;116.0;0.21229;0.093842;2.5;9.0;3.75;7.0;1.0;1.75;0.0;0.5;1.75;1.75;2.0;1.25;0.75;2.75;0.75;0.5;-0.250977;0.033203;0.974121;-0.98;-1.12;0.98;416.0;-0.131136;-0.081994
0.63;0.25;0.25;0.25;0.25;0.0;0.0;0.25;0.0;3.0;0.75;1.5;0.75;0.0;2.25;0.5;0.0;-0.239746;0.01123;0.969727;-1.96;-0.56;-3.15;119.0;0.219063;0.09631;2.25;9.25;3.75;7.0;0.75;1.75;0.0;0.5;2.0;1.5;2.0;1.25;0.5;2.5;0.75;0.5;-0.253906;0.033203;0.970703;-1.19;-1.12;0.84;409.0;-0.135068;-0.08207
0.64;0.25;0.25;0.25;0.25;0.0;0.0;0.25;0.0;3.25;0.75;1.5;0.5;0.0;2.25;0.5;0.0;-0.238281;0.010742;0.98584;-2.17;-1.82;-2.66;120.0;0.220462;0.111033;2.25;9.25;3.75;7.0;0.75;1.75;0.0;0.75;1.75;1.25;2.0;1.0;0.5;2.5;0.75;0.5;-0.248535;0.030273;0.979492;-1.19;-1.19;0.77;404.0;-0.142364;-0.087923
0.65;0.5;0.5;0.5;0.25;0.0;0.0;0.25;0.0;3.25;0.75;1.5;0.5;0.0;2.25;0.5;0.25;-0.225586;-0.044922;0.980957;-1.05;-0.91;-3.5;130.0;0.184713;0.100259;3.5;9.25;4.0;7.0;1.0;1.75;0.0;0.5;1.75;1.5;2.0;1.0;0.5;2.5;0.75;0.5;-0.251465;0.033691;0.979492;-1.4;-1.12;0.63;423.0;-0.150569;-0.074987
0.66;0.5;0.5;1.0;0.25;0.0;0.0;0.25;0.0;3.75;0.75;1.5;0.5;0.0;2.5;0.5;0.0;-0.251953;0.004883;0.983887;-1.82;-2.24;-1.96;144.0;0.171078;0.11394;3.5;9.25;4.0;6.75;0.75;1.75;0.0;0.5;1.5;1.5;2.0;1.25;0.5;2.5;0.5;0.5;-0.251465;0.027344;0.970703;-1.47;-1.26;0.56;413.0;-0.154648;-0.079402
0.67;0.5;0.5;1.0;0.25;0.0;0.0;0.25;0.0;3.0;0.5;1.0;0.5;0.0;2.5;0.25;0.0;-0.248535;0.005859;0.977539;-1.47;-2.17;-1.82;122.0;0.153814;0.116384;3.5;9.25;4.0;7.0;0.75;1.75;0.0;0.5;1.5;1.5;2.0;1.25;0.5;2.5;0.5;0.5;-0.253418;0.029785;0.975586;-1.61;-1.19;0.49;416.0;-0.155606;-0.08045
0.68;0.5;0.5;0.75;0.25;0.0;0.0;0.5;0.0;3.25;0.5;1.25;0.5;0.0;2.5;0.5;0.0;-0.245605;0.004395;0.976562;-0.91;-1.68;-1.12;132.0;0.171039;0.11589;3.25;9.25;4.0;7.0;0.75;1.75;0.25;0.5;1.5;1.5;1.75;1.0;0.5;3.0;0.5;0.5;-0.251465;0.029297;0.979492;-1.47;-1.05;0.56;416.0;-0.150395;-0.07393
0.69;0.75;0.5;1.0;0.25;0.0;0.0;0.25;0.0;3.75;0.75;0.75;0.5;0.0;2.75;0.25;0.0;-0.238281;0.016113;0.98877;-0.63;-1.47;-0.42;138.0;0.155017;0.133305;3.25;9.25;4.0;6.75;1.0;1.75;0.25;0.5;1.75;1.5;2.0;1.0;0.5;2.75;0.75;0.5;-0.251465;0.027832;0.978516;-1.33;-0.98;0.7;423.0;-0.142575;-0.070679
0.7;0.75;0.5;1.0;0.25;0.0;0.0;0.5;0.0;3.75;0.5;0.75;0.5;0.0;2.75;0.25;0.25;-0.23877;0.00293;0.975098;-0.0;-1.61;0.21;141.0;0.153256;0.133197;3.25;9.5;4.0;6.75;0.75;1.75;0.0;0.5;1.75;1.25;1.5;1.0;0.25;2.5;0.25;0.25;-0.251953;0.026367;0.979004;-1.33;-0.7;0.77;398.0;-0.169642;-0.073895
0.71;0.5;0.5;1.0;0.5;0.0;0.0;0.25;0.0;3.5;0.75;1.25;0.25;0.0;2.5;0.25;0.0;-0.239746;0.005371;0.986816;1.05;-1.61;0.91;135.0;0.151656;0.119964;3.25;9.5;4.0;7.0;0.75;1.75;0.0;0.5;1.5;1.25;1.5;1.0;0.25;2.5;0.25;0.25;-0.253418;0.031738;0.974121;-1.12;-0.49;0.7;398.0;-0.174362;-0.078165
0.72;0.5;0.5;1.0;0.5;0.0;0.0;0.25;0.0;3.25;0.5;1.25;0.25;0.0;2.75;0.25;0.0;-0.239258;0.007812;0.986328;1.82;-1.96;1.68;131.0;0.1515;0.117988;3.25;9.5;3.75;6.75;1.0;1.75;0.0;0.5;1.5;1.25;1.5;1.0;0.25;2.5;0.25;0.25;-0.251465;0.03418;0.977051;-1.12;-0.56;0.7;395.0;-0.172425;-0.077284
0.73;0.75;0.75;1.25;0.5;0.0;0.0;0.25;0.0;3.0;0.5;1.0;0.5;0.0;2.25;0.25;0.0;-0.244141;0.015625;0.989258;2.52;-2.38;2.24;131.0;0.106352;0.101256;3.25;9.5;3.75;6.75;0.75;1.75;0.0;0.25;1.5;1.25;1.25;1.0;0.5;2.5;0.5;0.25;-0.253906;0.029297;0.96875;-1.19;-0.63;0.63;390.0;-0.17109;-0.077066
0.74;1.0;1.0;1.5;0.5;0.0;0.0;0.25;0.0;2.75;0.5;1.0;0.5;0.0;2.0;0.25;0.25;-0.241211;0.015625;0.98877;2.87;-2.73;2.38;135.0;0.071037;0.085695;3.25;9.5;4.0;7.0;0.75;1.75;0.0;0.5;1.75;1.5;1.5;0.75;0.5;2.25;0.0;0.25;-0.25;0.031738;0.965332;-1.26;-0.7;0.7;398.0;-0.175883;-0.076143
0.75;1.0;1.0;1.25;0.75;0.0;0.0;0.25;0.0;2.5;0.5;0.75;0.5;0.0;1.75;0.25;0.25;-0.240234;0.01416;0.984375;2.73;-2.73;2.52;126.0;0.055601;0.075757;3.25;9.5;4.0;6.75;0.75;1.5;0.0;0.25;1.5;1.0;1.5;0.75;0.25;2.5;0.0;0.25;-0.253418;0.025879;0.977539;-1.33;-0.77;0.42;379.0;-0.185848;-0.071412
0.76;1.0;1.0;1.5;1.0;0.0;0.0;0.25;0.0;2.25;0.25;1.0;0.5;0.0;1.75;0.25;0.25;-0.234375;0.022461;0.983398;2.31;-2.8;2.31;129.0;0.034112;0.059552;3.25;9.5;4.0;6.75;0.75;1.5;0.0;0.25;1.25;1.0;1.25;0.75;0.5;2.5;0.0;0.5;-0.253906;0.027344;0.975098;-1.26;-0.63;0.49;376.0;-0.188807;-0.077753
0.77;1.25;1.25;1.75;1.0;0.0;0.0;0.25;0.0;2.25;0.25;1.0;0.25;0.0;1.5;0.25;0.0;-0.238281;0.021484;0.987305;1.61;-2.59;2.17;130.0;-0.005389;0.066958;3.25;9.25;4.0;6.75;0.75;1.5;0.0;0.25;1.0;1.0;1.25;0.75;0.25;2.25;0.0;0.5;-0.24707;0.03125;0.971191;-1.12;-0.7;0.49;366.0;-0.197717;-0.079738
0.78;1.5;1.75;1.75;1.25;0.0;0.0;0.25;0.0;2.5;0.5;1.0;0.5;0.0;1.5;0.5;0.0;-0.249512;-0.075684;0.987793;0.77;-2.31;1.68;153.0;-0.009365;0.04954;3.5;9.5;3.75;6.75;0.75;1.25;0.0;0.25;1.25;1.25;1.25;0.75;0.25;2.0;0.25;0.0;-0.25;0.027344;0.974609;-1.19;-0.84;0.56;369.0;-0.196437;-0.073944
0.79;1.5;2.0;2.0;1.5;0.0;0.0;0.25;0.0;2.5;0.5;1.25;0.5;0.0;1.75;0.5;0.0;-0.232422;0.022949;0.98584;0.42;-1.96;1.19;167.0;-0.01528;0.04104;3.5;9.5;3.75;6.75;0.75;1.25;0.0;0.25;1.0;1.0;1.25;0.75;0.25;1.75;0.25;0.0;-0.259766;0.025391;0.973633;-1.19;-0.7;0.7;360.0;-0.208306;-0.080112
0.8;1.75;2.0;2.25;1.75;0.0;0.0;0.25;0.0;2.5;0.5;1.0;0.5;0.0;2.0;0.5;0.0;-0.234375;0.020508;0.98584;-0.35;-0.91;0.28;175.0;-0.028805;0.042795;3.5;9.5;3.75;6.75;0.75;1.25;0.0;0.25;1.0;1.0;1.25;0.5;0.25;1.75;0.25;0.0;-0.251465;0.029785;0.974121;-1.26;-0.84;0.56;357.0;-0.211672;-0.078374
0.81;2.0;2.0;2.5;1.75;0.0;0.0;0.25;0.0;2.5;0.25;1.0;0.25;0.0;2.0;0.5;0.25;-0.23877;0.020996;0.984375;-1.19;-0.35;-0.21;177.0;-0.043788;0.046845;3.5;9.5;3.75;6.75;0.75;1.25;0.0;0.25;1.0;1.0;1.25;0.5;0.25;1.75;0.0;0.25;-0.250977;0.027344;0.971191;-1.54;-0.84;0.49;356.0;-0.214278;-0.079322
0.82;2.5;2.0;2.5;1.75;0.0;0.0;0.25;0.0;2.75;0.5;1.0;0.5;0.0;2.0;0.5;0.25;-0.234375;0.016113;0.979492;-1.82;-0.0;-0.42;192.0;-0.0408;0.048017;3.25;9.25;3.75;6.75;0.75;1.25;0.0;0.0;1.0;1.0;1.0;0.25;0.25;1.75;0.25;0.25;-0.253418;0.026367;0.978516;-1.47;-0.77;0.28;343.0;-0.215711;-0.074353
0.83;2.5;2.0;3.0;2.0;0.0;0.0;0.25;0.0;3.0;0.5;1.25;0.5;0.0;2.25;0.25;0.0;-0.239258;0.015625;0.976074;-1.61;-0.0;-0.21;206.0;-0.046207;0.052803;3.25;9.25;3.75;6.75;0.5;1.0;0.0;0.0;1.0;1.0;1.0;0.25;0.25;1.75;0.25;0.0;-0.253906;0.03125;0.975586;-1.61;-0.98;0.35;336.0;-0.21962;-0.072753
0.84;2.5;2.0;3.0;1.75;0.0;0.0;0.25;0.0;3.5;0.5;1.25;0.25;0.0;2.5;0.25;0.25;-0.233887;0.014648;0.981934;-1.26;0.21;-0.07;211.0;-0.028064;0.06785;3.5;9.5;3.75;6.5;0.75;1.25;0.0;0.0;1.0;1.0;1.0;0.5;0.25;1.75;0.25;0.0;-0.251465;0.028809;0.974121;-1.47;-0.98;0.42;347.0;-0.217011;-0.073042
0.85;2.5;2.25;3.25;1.75;0.0;0.0;0.5;0.0;3.5;0.75;1.25;0.25;0.0;2.75;0.5;0.0;-0.234375;0.017578;0.983398;-0.84;0.07;0.14;227.0;-0.022757;0.070385;3.5;9.5;4.0;6.5;0.75;1.0;0.0;0.0;1.0;0.75;1.25;0.25;0.25;1.5;0.25;0.0;-0.25;0.025391;0.973145;-1.47;-0.91;0.49;342.0;-0.225964;-0.07118
0.86;2.5;2.25;3.25;1.75;0.0;0.0;0.5;0.0;3.75;0.75;1.5;0.25;0.0;2.75;0.5;0.0;-0.235352;0.013184;0.983887;-0.35;-0.21;0.42;233.0;-0.015429;0.071228;3.25;9.25;4.0;6.5;0.5;1.0;0.0;0.0;1.0;1.0;1.25;0.25;0.25;1.5;0.25;0.0;-0.254883;0.02832;0.971191;-1.54;-0.91;0.42;337.0;-0.220005;-0.072023
0.87;2.5;2.25;3.25;1.75;0.0;0.0;0.5;0.0;4.0;0.75;1.5;0.5;0.0;3.0;0.5;0.25;-0.236328;0.017578;0.98291;0.7;-0.42;0.84;244.0;-0.002432;0.068536;3.0;9.25;3.75;6.5;0.5;1.0;0.0;0.25;1.0;1.0;0.75;0.25;0.25;1.5;0.25;0.0;-0.246582;0.024414;0.976074;-1.54;-0.84;0.28;329.0;-0.22313;-0.078354
0.88;2.25;2.25;3.25;1.75;0.0;0.0;0.5;0.0;4.0;0.75;1.5;0.5;0.0;3.0;0.5;0.25;-0.237305;0.010254;0.985352;1.47;-0.35;1.26;241.0;0.002277;0.068061;3.25;9.25;3.5;7.0;0.5;1.0;0.0;0.0;1.0;0.75;1.25;0.25;0.0;1.5;0.25;0.0;-0.254395;0.027344;0.975098;-1.54;-0.77;0.28;331.0;-0.227107;-0.076156
0.89;2.5;2.25;3.25;2.0;0.25;0.0;0.5;0.0;4.25;0.75;1.5;0.5;0.0;3.25;0.75;0.25;-0.234863;0.013672;0.990234;1.82;-0.21;1.4;258.0;0.004698;0.067207;3.25;8.5;3.5;6.5;0.5;0.75;0.0;0.0;1.0;0.75;0.75;0.25;0.25;1.5;0.25;0.0;-0.251953;0.030273;0.974121;-1.75;-0.7;0.28;311.0;-0.22738;-0.071413
0.9;2.5;2.25;3.25;2.0;0.25;0.0;0.5;0.0;4.25;1.0;1.75;0.5;0.0;3.25;0.75;0.25;-0.237305;0.018555;0.984863;1.82;-0.0;1.33;264.0;0.009634;0.065189;3.25;8.5;3.5;6.5;0.5;1.0;0.0;0.0;1.0;0.75;0.75;0.25;0.25;1.5;0.25;0.0;-0.254395;0.033203;0.977539;-1.89;-0.42;0.28;314.0;-0.226669;-0.073319
0.91;2.25;2.25;3.25;2.25;0.25;0.0;0.5;0.0;4.25;1.0;2.0;0.75;0.0;3.25;0.75;0.25;-0.237793;0.019531;0.986328;1.96;-0.0;1.26;270.0;0.015068;0.055733;3.25;8.5;3.25;6.5;0.5;0.75;0.0;0.0;0.75;0.5;0.5;0.25;0.25;1.5;0.0;0.0;-0.249023;0.025391;0.973145;-2.1;-0.49;0.21;296.0;-0.247837;-0.078006
0.92;2.25;2.25;3.25;2.25;0.25;0.0;0.5;0.0;4.25;1.25;2.0;1.0;0.0;3.25;0.75;0.25;-0.236816;0.018555;0.982422;2.17;-0.21;1.26;276.0;0.019408;0.052139;3.0;8.5;3.25;6.25;0.5;0.75;0.0;0.0;0.75;0.5;0.5;0.25;0.25;1.25;0.0;0.0;-0.256348;0.030762;0.976074;-2.45;-0.07;-0.07;288.0;-0.251218;-0.080372
0.93;2.5;2.25;3.25;2.25;0.25;0.0;0.75;0.0;4.25;1.25;2.5;1.25;0.0;3.5;0.75;0.5;-0.230957;0.021484;0.977539;3.08;-0.49;1.12;295.0;0.026857;0.047835;3.0;8.25;3.25;5.75;0.5;0.75;0.0;0.0;1.0;0.5;0.75;0.25;0.25;1.25;0.0;0.0;-0.254395;0.029785;0.976562;-2.73;0.07;-0.35;286.0;-0.23788;-0.072507
0.94;2.5;2.5;3.5;2.5;0.25;0.0;0.75;0.0;4.0;1.5;2.75;1.25;0.0;3.5;0.75;0.5;-0.229492;0.025879;0.984863;3.29;-0.63;0.91;306.0;0.018367;0.03978;2.5;7.5;3.0;5.5;0.5;0.75;0.0;0.0;0.5;0.5;0.75;0.25;0.25;1.0;0.0;0.0;-0.256348;0.03418;0.983398;-3.5;0.42;-0.7;257.0;-0.247691;-0.085786
0.95;2.25;2.75;3.75;2.5;0.25;0.0;0.75;0.0;4.75;2.0;2.75;1.5;0.0;4.0;1.0;0.5;-0.236816;0.019043;0.978516;2.94;-0.7;0.77;335.0;0.03787;0.043994;2.0;7.25;3.0;5.25;0.5;0.75;0.0;0.0;0.5;0.5;0.75;0.0;0.0;0.75;0.0;0.0;-0.250977;0.035645;0.975098;-4.55;0.42;-1.26;239.0;-0.257774;-0.084124
0.96;2.5;3.25;4.0;3.0;0.5;0.0;1.0;0.0;4.75;2.0;2.75;1.5;0.0;4.25;1.25;0.5;-0.240723;0.019531;0.98291;2.38;-0.84;0.7;365.0;0.024707;0.039796;1.25;6.5;2.5;4.75;0.25;0.5;0.0;0.0;0.25;0.5;0.5;0.0;0.25;0.25;0.0;0.0;-0.262207;0.02832;0.977539;-5.88;0.28;-1.61;196.0;-0.275032;-0.106615
0.97;3.25;3.5;4.25;3.5;0.5;0.25;1.0;0.25;5.0;2.0;3.0;1.75;0.0;4.25;1.5;0.5;-0.233398;0.023438;0.987305;1.75;-1.12;0.63;404.0;0.011953;0.027369;1.25;6.0;2.25;3.75;0.25;0.5;0.0;0.0;0.25;0.25;0.25;0.25;0.0;0.25;0.0;0.0;-0.253906;0.023438;0.98584;-6.93;-0.63;-1.82;170.0;-0.285084;-0.101012
0.98;3.5;3.75;4.5;3.75;0.5;0.25;1.0;0.0;5.0;2.25;3.0;1.75;0.25;4.5;1.5;0.5;-0.23291;0.024414;0.985352;1.19;-1.19;0.56;419.0;0.007304;0.027901;1.0;5.25;2.0;3.25;0.25;0.25;0.0;0.0;0.25;0.25;0.25;0.0;0.0;0.0;0.0;0.0;-0.264648;0.021973;0.980469;-7.42;-1.54;-1.54;143.0;-0.300167;-0.097609
0.99;4.0;4.5;5.0;4.25;0.5;0.25;1.0;0.0;5.0;2.25;3.25;1.75;0.25;4.5;1.75;0.75;-0.23584;0.025391;0.983398;0.77;-1.05;0.49;451.0;-0.007467;0.020403;0.75;5.0;2.0;3.0;0.25;0.25;0.0;0.0;0.25;0.25;0.25;0.0;0.0;0.0;0.0;0.0;-0.281738;0.023438;0.992188;-6.65;-3.15;-0.77;135.0;-0.296094;-0.09783
1.0;4.25;4.75;5.75;4.5;0.5;0.25;1.25;0.0;5.5;2.5;3.25;1.75;0.25;4.75;1.5;0.75;-0.235352;0.02832;0.98584;-0.07;-1.47;0.28;482.0;-0.012885;0.027016;0.5;4.75;1.5;2.5;0.0;0.25;0.0;0.0;0.25;0.25;0.25;0.0;0.0;0.0;0.0;0.0;-0.275391;0.039062;0.97998;-5.04;-4.97;1.12;114.0;-0.297348;-0.10896
1.01;5.25;5.5;5.75;5.25;0.75;0.25;1.25;0.0;5.5;2.5;3.25;2.0;0.25;4.75;1.5;0.75;-0.236328;0.025391;0.98584;-0.35;-1.19;0.28;516.0;-0.031567;0.019987;0.25;3.5;1.25;2.0;0.0;0.25;0.0;0.0;0.0;0.0;0.0;0.0;0.0;0.25;0.0;0.0;-0.257812;0.085938;0.963867;-2.66;-3.57;4.41;83.0;-0.31804;-0.120841
1.02;5.75;5.75;6.25;5.5;1.0;0.25;1.25;0.25;5.75;2.5;3.25;2.25;0.25;5.0;1.75;0.75;-0.23584;0.024414;0.98584;-0.28;-0.91;0.21;552.0;-0.034207;0.016735;0.75;3.5;1.25;2.0;0.0;0.0;0.0;0.0;0.25;0.25;0.25;0.0;0.0;0.0;0.0;0.0;-0.262695;0.073242;0.99707;-1.05;-2.24;6.09;92.0;-0.290671;-0.088205
1.03;5.75;6.0;6.25;5.75;1.0;0.5;1.5;0.25;5.75;2.5;3.75;2.0;0.25;5.0;1.75;0.75;-0.230957;0.019531;0.989746;-0.56;-0.63;0.14;568.0;-0.035638;0.015019;0.5;3.0;0.5;1.0;0.0;0.0;0.0;0.0;0.25;0.25;0.0;0.0;0.0;0.0;0.0;0.0;-0.313477;0.22168;0.95752;-2.94;-3.43;8.75;60.0;-0.303773;-0.089367
1.04;5.75;6.0;7.0;5.75;1.0;0.5;1.5;0.25;5.5;2.75;3.75;2.0;0.25;5.0;1.75;0.75;-0.23877;0.023438;0.986328;-0.28;-0.35;0.14;576.0;-0.039742;0.01483;0.5;1.5;0.25;0.75;0.0;0.0;0.0;0.0;0.0;0.0;0.0;0.0;0.0;0.0;0.0;0.0;-0.435547;0.735352;0.902344;-10.99;-9.03;30.66;33.0;0.0;0.0
1.05;6.25;6.0;7.0;6.0;1.0;0.5;1.5;0.25;5.5;2.75;3.5;2.0;0.25;5.0;1.5;0.75;-0.23584;0.018555;0.986816;0.07;0.42;0.14;579.0;-0.048106;0.015634;1.5;1.75;1.25;0.75;0.0;0.0;0.0;0.0;0.0;0.25;0.0;0.0;0.0;0.0;0.0;0.0;-0.839355;0.962891;0.667969;-15.54;-11.34;61.459999;62.0;-0.32656;-0.025323
1.06;6.25;6.0;6.5;6.0;1.0;0.5;1.5;0.25;5.75;2.75;3.75;2.25;0.25;5.0;1.75;1.0;-0.234375;0.021973;0.987305;0.42;0.56;0.21;586.0;-0.038132;0.012963;0.75;1.5;0.75;0.5;0.0;0.0;0.0;0.0;0.25;0.25;0.0;0.0;0.0;0.0;0.0;0.0;-0.848145;0.720215;0.771484;-21.42;-1.33;88.970001;45.0;0.0;0.0
1.07;6.25;6.0;6.25;5.5;1.0;0.5;1.25;0.25;5.5;3.0;3.75;2.25;0.25;5.0;2.25;1.0;-0.235352;0.021484;0.984863;0.91;0.84;0.42;578.0;-0.031222;0.011083;0.25;0.75;0.5;0.25;0.0;0.0;0.0;0.0;0.0;0.25;0.0;0.0;0.0;0.0;0.0;0.0;-0.774902;0.610352;0.736328;-25.34;4.97;105.559998;22.0;0.0;0.0
1.08;5.75;6.25;6.25;5.5;1.0;0.5;1.25;0.25;5.5;3.0;3.75;2.25;0.25;5.0;2.0;1.0;-0.232422;0.018555;0.980957;1.33;0.98;0.56;572.0;-0.031441;0.009802;0.0;0.5;0.25;0.5;0.0;0.0;0.0;0.0;0.0;0.25;0.25;0.0;0.0;0.0;0.0;0.0;-0.83252;0.230469;0.736816;-24.5;14.21;109.199997;20.0;0.0;0.0
1.09;6.25;6.25;6.25;5.5;1.0;0.5;1.25;0.25;5.5;2.75;3.75;2.25;0.25;5.0;2.0;1.0;-0.238281;0.026367;0.987793;1.89;1.19;0.84;575.0;-0.036442;0.01051;0.0;0.5;0.5;0.75;0.0;0.0;0.0;0.0;0.0;0.0;0.0;0.0;0.0;0.0;0.0;0.0;-0.434082;-0.26709;0.922852;-16.870001;18.41;83.580002;20.0;0.0;0.0
1.1;6.25;6.0;6.25;5.5;0.75;0.5;1.25;0.25;5.25;2.75;3.75;2.25;0.5;5.0;2.0;1.0;-0.230469;0.024902;0.98877;2.17;1.4;0.7;568.0;-0.035276;0.007409;0.0;0.5;0.25;1.25;0.0;0.0;0.0;0.0;0.0;0.0;0.0;0.0;0.0;0.0;0.0;0.0;-0.271484;-0.43457;0.97168;-7.91;13.72;54.389999;23.0;0.0;0.0
1.11;5.25;5.75;6.0;5.5;0.75;0.5;1.0;0.25;5.5;2.75;3.75;2.75;0.5;5.0;1.75;1.25;-0.234375;0.02832;0.986328;2.45;1.54;0.91;555.0;-0.02247;0.00211;0.0;0.5;0.5;1.5;0.0;0.0;0.0;0.0;0.0;0.25;0.25;0.0;0.0;0.0;0.0;0.0;-0.138184;-0.638672;1.022461;-0.77;8.05;21.77;35.0;0.0;0.0
1.12;5.0;5.75;5.75;5.5;1.0;0.5;1.0;0.5;5.25;2.75;3.75;2.75;0.5;4.75;1.75;1.25;-0.231445;0.026855;0.990723;2.87;1.54;0.91;551.0;-0.023296;-0.004084;0.0;0.5;0.25;0.75;0.0;0.0;0.0;0.0;0.0;0.25;0.25;0.0;0.0;0.0;0.0;0.0;0.002441;-0.599609;1.098145;5.32;5.18;-8.68;23.0;0.0;0.0
1.13;5.0;5.75;5.75;5.5;0.75;0.5;1.0;0.5;5.25;2.75;3.75;2.75;0.5;4.5;1.75;1.5;-0.23584;0.033691;0.981934;2.87;1.54;0.98;547.0;-0.02355;-0.006053;0.0;0.75;0.0;1.25;0.0;0.0;0.0;0.0;0.0;0.0;0.25;0.0;0.0;0.0;0.0;0.0;0.171387;-0.504395;1.154297;8.96;3.71;-32.900002;25.0;0.0;0.0
1.14;4.75;5.5;5.25;5.5;0.75;0.5;0.75;0.5;5.0;2.75;3.75;2.75;0.5;4.5;2.0;1.5;-0.235352;0.024902;0.986816;2.94;1.4;1.05;531.0;-0.01724;-0.011232;0.0;0.5;0.25;1.0;0.0;0.0;0.0;0.0;0.0;0.25;0.25;0.0;0.0;0.0;0.0;0.0;0.228516;-0.418945;1.155273;10.15;3.08;-47.529999;26.0;0.0;0.0
1.15;4.75;5.5;5.25;5.25;0.75;0.5;0.75;0.5;4.75;2.5;3.75;2.75;0.5;4.5;2.0;1.5;-0.22998;0.02832;0.989746;2.94;1.19;1.05;521.0;-0.018968;-0.012373;0.0;1.0;0.25;1.0;0.0;0.0;0.0;0.0;0.25;0.25;0.25;0.0;0.0;0.25;0.0;0.0;0.355957;-0.272461;1.039551;6.3;1.68;-49.0;37.0;0.0;0.0
1.16;5.0;5.25;5.25;5.25;0.75;0.5;0.5;0.5;4.5;2.5;3.75;2.75;0.5;4.25;2.0;1.25;-0.236328;0.027832;0.987793;2.8;1.12;1.12;510.0;-0.024933;-0.015;0.0;1.5;0.25;1.0;0.0;0.0;0.0;0.0;0.25;0.25;0.5;0.0;0.0;0.25;0.0;0.0;0.32959;-0.229004;1.124512;2.1;0.7;-36.330002;45.0;0.0;0.0
1.17;5.25;5.5;5.25;5.5;0.75;0.75;0.5;0.5;4.25;2.5;3.75;2.75;0.75;4.25;2.25;1.25;-0.229004;0.027832;0.993164;2.59;0.91;1.19;523.0;-0.029772;-0.022086;0.0;1.25;0.5;0.75;0.0;0.0;0.0;0.0;0.5;0.25;0.5;0.0;0.0;0.25;0.0;0.0;-0.152344;-0.091797;1.067383;-5.32;0.14;-9.52;46.0;0.0;0.0
1.18;5.0;5.75;5.0;5.5;0.75;0.75;0.5;0.5;3.75;2.5;3.75;2.75;0.75;4.25;2.0;1.5;-0.239746;0.026855;0.999023;2.45;0.63;1.26;511.0;-0.033534;-0.028842;0.0;1.75;0.75;1.25;0.0;0.0;0.0;0.0;0.5;0.25;0.5;0.0;0.0;0.5;0.0;0.0;-0.265625;0.011719;0.964844;-5.04;-1.33;-2.03;62.0;-0.134609;-0.051167
1.19;5.25;5.75;5.25;6.25;0.75;0.75;0.25;0.5;3.0;2.5;3.25;2.75;0.75;3.75;2.0;1.5;-0.239746;0.029785;0.991211;2.1;0.28;1.4;501.0;-0.055849;-0.040515;0.0;1.5;1.25;1.25;0.25;0.0;0.0;0.0;1.0;0.5;0.5;0.0;0.0;0.75;0.0;0.0;-0.28418;0.001953;0.95459;-1.05;-2.45;-0.84;81.0;-0.071998;0.006474
1.2;5.5;6.0;5.5;6.25;0.5;0.75;0.25;0.5;2.75;2.0;3.25;2.75;0.75;3.5;2.0;1.25;-0.238281;0.029297;0.983398;2.03;0.07;1.47;493.0;-0.069698;-0.043812;0.0;2.0;1.5;1.75;0.25;0.0;0.0;0.0;1.5;0.5;0.75;0.0;0.0;1.0;0.0;0.0;-0.269043;0.009766;0.95752;0.84;-3.43;1.12;107.0;-0.065426;0.006089
1.21;5.75;6.5;5.5;6.25;0.5;0.75;0.0;0.5;2.25;1.75;3.25;2.5;0.5;3.25;1.5;1.0;-0.237305;0.031738;0.98291;1.89;0.14;1.4;472.0;-0.095928;-0.048326;0.0;3.0;2.0;2.0;0.25;0.25;0.25;0.0;1.75;0.25;0.5;0.0;0.0;1.25;0.0;0.0;-0.252441;0.020996;0.976074;1.82;-4.27;2.52;134.0;-0.09923;0.004335
1.22;6.0;7.25;5.75;6.5;0.5;0.75;0.0;0.5;1.75;1.5;3.0;2.25;0.5;2.75;1.25;1.0;-0.228027;0.032715;0.980957;1.68;0.07;1.54;465.0;-0.124871;-0.055267;0.75;3.5;2.5;2.25;0.5;0.25;0.25;0.0;2.0;0.25;0.5;0.0;0.0;1.5;0.25;0.0;-0.258301;0.023438;0.984375;1.75;-4.27;2.73;168.0;-0.110661;0.011171
1.23;6.25;7.25;5.75;6.75;0.5;0.75;0.0;0.75;1.25;1.25;3.0;2.25;0.75;2.25;1.25;1.25;-0.235352;0.028809;0.979004;1.68;0.21;1.26;464.0;-0.137049;-0.069398;1.0;3.5;2.5;2.25;0.5;0.25;0.5;0.0;2.25;0.5;0.75;0.0;0.0;1.5;0.0;0.0;-0.263672;0.025391;0.97998;1.47;-3.99;2.59;182.0;-0.101047;0.023418
1.24;6.25;7.25;5.75;6.5;0.25;0.75;0.0;0.75;1.25;1.5;3.0;2.5;0.5;2.0;1.25;1.0;-0.22998;0.036133;0.969238;1.82;0.35;1.05;458.0;-0.137595;-0.068279;0.75;4.0;2.5;2.5;0.5;0.25;0.5;0.0;2.25;0.5;0.75;0.0;0.0;1.75;0.0;0.0;-0.26416;0.023438;0.978027;1.26;-3.36;2.24;189.0;-0.101587;0.015048
1.25;6.25;7.25;5.75;6.75;0.25;0.75;0.25;0.5;1.25;1.25;3.0;2.25;0.5;2.0;1.25;1.0;-0.22998;0.033203;0.982422;1.19;0.63;0.77;455.0;-0.142309;-0.062925;0.75;3.75;2.25;2.5;0.5;0.0;0.5;0.0;2.25;0.5;0.75;0.0;0.0;1.75;0.0;0.0;-0.26123;0.02002;0.977051;1.54;-2.52;2.1;181.0;-0.09359;0.021065
1.26;6.25;7.0;5.75;6.5;0.25;0.75;0.25;0.5;0.75;1.25;3.0;2.25;0.5;2.0;1.5;1.0;-0.238281;0.038086;0.98584;0.63;0.63;0.63;445.0;-0.142642;-0.066791;0.75;4.25;2.25;2.75;0.5;0.0;0.5;0.0;2.0;0.5;0.75;0.0;0.0;1.75;0.0;0.0;-0.256836;0.024414;0.977539;1.89;-1.75;1.89;185.0;-0.11229;0.00709
1.27;5.75;6.75;5.0;6.25;0.25;1.0;0.25;0.5;1.0;1.25;3.0;2.25;0.5;2.25;1.25;0.75;-0.234863;0.041992;0.984863;-0.14;0.7;0.7;430.0;-0.133123;-0.067055;0.75;4.5;2.25;2.75;0.5;0.25;0.25;0.0;2.25;0.5;0.75;0.0;0.0;1.75;0.0;0.0;-0.257812;0.019043;0.944824;2.52;-1.4;1.82;190.0;-0.114188;0.000336
1.28;5.75;6.75;5.5;6.25;0.25;0.75;0.25;0.5;1.0;1.25;3.0;2.25;0.75;2.25;1.5;0.75;-0.234375;0.029785;0.984863;-0.63;0.63;0.7;438.0;-0.129671;-0.0657;0.75;4.75;2.25;2.75;0.5;0.25;0.25;0.0;1.75;0.5;1.0;0.25;0.0;1.75;0.0;0.0;-0.250977;0.007324;0.975586;4.76;-1.12;2.94;191.0;-0.122086;-0.018314
1.29;5.75;6.75;5.25;6.0;0.25;0.75;0.0;0.5;1.25;1.25;3.0;2.25;0.5;1.75;1.5;0.75;-0.231934;0.035645;0.988281;-1.26;0.63;0.63;424.0;-0.133957;-0.066281;1.0;4.5;2.25;2.75;0.25;0.5;0.0;0.0;1.75;0.75;1.0;0.25;0.0;1.75;0.0;0.0;-0.256836;0.026855;0.965332;4.9;-0.14;3.85;190.0;-0.121752;-0.024123
1.3;5.75;6.25;5.0;6.0;0.25;0.5;0.25;0.5;1.5;1.25;2.75;2.0;0.5;1.75;1.25;0.75;-0.231445;0.035645;0.983398;-1.96;0.84;0.49;412.0;-0.132527;-0.056624;0.75;4.5;2.0;2.75;0.25;0.5;0.0;0.0;1.5;0.5;0.5;0.25;0.0;1.75;0.25;0.0;-0.265137;0.03418;0.972656;3.78;-0.56;3.29;175.0;-0.130998;-0.033728
1.31;5.25;6.25;4.75;6.0;0.25;0.5;0.25;0.25;1.5;1.25;2.75;1.75;0.5;2.0;1.25;0.75;-0.230957;0.035645;0.987305;-2.59;0.49;0.35;399.0;-0.128216;-0.053499;0.75;4.75;1.75;2.75;0.25;0.5;0.0;0.0;1.25;1.0;0.75;0.25;0.25;1.5;0.25;0.0;-0.26123;0.037598;0.976074;2.59;-0.84;2.24;179.0;-0.126078;-0.050381
1.32;5.5;6.5;4.75;5.75;0.5;0.5;0.25;0.25;1.75;1.25;2.75;1.75;0.5;2.25;1.25;0.75;-0.234375;0.03125;0.98584;-3.57;0.28;0.21;410.0;-0.124285;-0.046811;0.75;4.75;2.0;3.0;0.25;0.5;0.0;0.0;1.0;1.0;1.0;0.25;0.25;1.5;0.0;0.0;-0.257812;0.035645;0.977051;1.61;-1.19;1.33;182.0;-0.141468;-0.057826
1.33;5.75;6.5;5.0;5.5;0.5;0.5;0.25;0.25;1.75;1.0;2.5;1.75;0.5;2.0;1.25;0.75;-0.236816;0.031738;0.986328;-4.06;0.56;0.07;405.0;-0.134198;-0.044957;0.75;4.5;2.0;3.0;0.25;0.25;0.0;0.0;1.25;1.25;1.0;0.25;0.0;1.5;0.0;0.0;-0.260742;0.027832;0.970703;0.14;-1.61;0.77;181.0;-0.127611;-0.039007
1.34;5.75;6.25;5.0;5.25;0.25;0.25;0.25;0.25;2.0;1.0;2.75;1.5;0.25;2.25;1.25;0.75;-0.234863;0.035156;0.980469;-4.41;0.49;0.0;397.0;-0.12616;-0.033967;1.25;4.75;2.0;3.25;0.25;0.25;0.0;0.0;1.25;0.75;1.25;0.25;0.0;1.75;0.0;0.0;-0.251465;0.02832;0.97168;-0.63;-2.1;0.63;191.0;-0.14118;-0.0408
1.35;5.75;6.25;5.0;5.25;0.25;0.25;0.25;0.25;2.25;1.0;2.5;1.5;0.0;2.5;1.0;0.5;-0.233398;0.031738;0.987793;-4.83;0.42;-0.07;393.0;-0.129553;-0.025356;1.25;5.0;2.0;3.25;0.25;0.5;0.0;0.0;1.0;1.0;1.0;0.25;0.0;1.5;0.0;0.0;-0.251953;0.023926;0.969238;-0.84;-2.24;0.49;191.0;-0.159001;-0.051955
1.36;5.75;6.25;5.25;5.25;0.25;0.25;0.25;0.25;2.0;1.25;2.25;1.5;0.25;2.5;1.0;0.5;-0.236816;0.032715;0.983887;-5.04;0.56;-0.21;395.0;-0.132225;-0.028485;1.0;5.0;2.0;3.25;0.25;0.5;0.0;0.0;1.25;0.75;1.0;0.25;0.0;1.5;0.25;0.0;-0.25293;0.026367;0.976074;-1.05;-2.45;0.56;192.0;-0.145086;-0.050409
1.37;6.25;6.5;5.5;5.25;0.25;0.25;0.25;0.0;2.25;1.0;2.0;1.5;0.0;2.5;1.0;0.5;-0.22998;0.025391;0.981445;-5.04;0.42;-0.14;398.0;-0.14369;-0.017443;1.5;5.0;2.5;3.5;0.25;0.5;0.0;0.0;1.0;0.75;0.75;0.25;0.0;1.5;0.25;0.0;-0.261719;0.023926;0.969238;-0.7;-2.31;0.77;200.0;-0.1707;-0.049128
1.38;6.25;6.5;5.25;5.25;0.25;0.0;0.25;0.0;2.5;1.0;1.75;1.25;0.0;2.5;0.75;0.25;-0.23584;0.029785;0.990234;-5.11;0.56;-0.14;385.0;-0.150365;-0.009173;1.75;5.5;2.5;3.75;0.25;0.5;0.0;0.25;1.0;0.75;1.0;0.25;0.25;1.5;0.5;0.0;-0.251953;0.027344;0.973145;-0.56;-2.31;0.91;223.0;-0.161709;-0.064168
1.39;6.5;6.75;5.5;5.0;0.25;0.0;0.25;0.0;2.5;0.75;1.75;1.0;0.0;2.5;0.75;0.25;-0.231934;0.024902;0.98291;-5.25;0.49;0.0;385.0;-0.159386;-0.005266;1.75;6.0;2.5;3.75;0.25;0.5;0.0;0.25;0.5;0.5;0.75;0.25;0.25;1.75;0.5;0.0;-0.253906;0.023438;0.974609;-0.56;-1.82;0.98;217.0;-0.185592;-0.076077
1.4;6.5;6.75;5.75;4.75;0.25;0.0;0.25;0.0;2.25;0.75;1.5;0.75;0.0;2.5;1.25;0.25;-0.237305;0.022949;0.985352;-5.25;0.63;-0.07;381.0;-0.160273;-0.003535;1.75;6.25;2.75;3.75;0.25;0.5;0.0;0.25;0.75;0.75;1.0;0.25;0.25;1.5;0.25;0.25;-0.254883;0.025879;0.974609;-0.28;-1.54;1.19;229.0;-0.181822;-0.072179
1.41;7.0;6.75;6.0;4.75;0.25;0.25;0.25;0.0;2.5;0.5;1.5;0.5;0.0;2.25;1.0;0.25;-0.233887;0.023438;0.983887;-5.18;0.91;0.0;386.0;-0.174124;0.000528;2.0;6.5;2.75;3.75;0.5;0.75;0.0;0.25;1.0;0.75;1.0;0.25;0.25;1.5;0.0;0.25;-0.249023;0.029785;0.969727;-0.14;-1.26;1.19;241.0;-0.186322;-0.066582
1.42;7.5;7.0;6.0;4.75;0.25;0.25;0.25;0.0;2.25;0.5;1.5;0.5;0.0;2.25;0.75;0.25;-0.231445;0.019531;0.987793;-4.83;0.7;0.07;387.0;-0.187327;-0.000889;1.5;6.25;2.75;4.0;0.5;0.5;0.0;0.25;1.0;0.75;1.0;0.25;0.25;1.5;0.25;0.25;-0.255859;0.027344;0.972168;-0.14;-1.12;1.19;235.0;-0.173127;-0.069332
1.43;7.5;7.0;6.0;4.75;0.25;0.0;0.25;0.0;2.25;0.5;1.25;0.5;0.0;2.25;0.75;0.25;-0.237793;0.020508;0.987305;-4.9;0.84;0.07;382.0;-0.190698;0.002093;1.5;6.25;2.75;4.0;0.5;0.5;0.0;0.25;1.0;0.75;1.0;0.25;0.25;1.5;0.0;0.0;-0.255371;0.033203;0.975098;-0.14;-0.91;1.19;231.0;-0.183754;-0.067607
1.44;8.25;7.25;6.0;4.75;0.25;0.25;0.25;0.0;2.5;0.5;1.25;0.5;0.0;2.0;0.75;0.25;-0.232422;0.017578;0.984863;-4.55;0.84;0.14;397.0;-0.195892;0.002674;1.75;6.0;2.5;4.0;0.5;0.5;0.0;0.25;1.25;0.75;1.0;0.25;0.25;1.25;0.0;0.0;-0.257324;0.029785;0.976074;-0.14;-0.77;1.12;230.0;-0.18199;-0.063588
1.45;8.25;7.5;6.25;4.75;0.25;0.25;0.25;0.0;2.5;0.75;1.0;0.75;0.0;2.25;0.75;0.25;-0.224121;0.027832;0.979492;-4.34;0.84;0.28;408.0;-0.191368;0.002423;1.75;5.75;2.5;3.75;0.25;0.5;0.0;0.25;1.0;0.5;1.0;0.25;0.25;1.75;0.0;0.0;-0.255371;0.026855;0.974609;-0.28;-0.84;1.12;219.0;-0.178661;-0.063969
1.46;8.25;7.5;6.25;4.75;0.25;0.25;0.25;0.0;2.25;0.5;1.0;0.5;0.0;2.25;0.5;0.25;-0.22998;0.017578;0.979492;-3.99;0.84;0.42;395.0;-0.205781;0.002309;1.75;6.0;2.75;4.0;0.25;0.75;0.0;0.0;1.0;0.5;1.0;0.25;0.25;1.75;0.25;0.0;-0.251465;0.026367;0.970215;-0.28;-0.91;1.05;229.0;-0.179203;-0.062145
1.47;8.25;7.0;6.25;4.75;0.25;0.0;0.25;0.0;2.25;0.5;1.0;0.5;0.0;1.75;0.25;0.25;-0.229004;0.023926;0.983398;-3.71;0.84;0.42;380.0;-0.215588;0.005192;2.0;6.0;2.75;4.25;0.5;0.75;0.0;0.25;1.0;0.75;1.0;0.25;0.25;1.75;0.0;0.0;-0.254395;0.029297;0.973145;-0.28;-0.98;0.98;242.0;-0.181643;-0.06458
1.48;8.25;7.5;6.25;4.75;0.25;0.25;0.25;0.0;2.25;0.5;1.0;0.25;0.0;1.75;0.5;0.25;-0.231445;0.016113;0.981445;-3.29;0.84;0.49;388.0;-0.216264;0.002425;2.0;6.0;2.5;4.25;0.25;0.5;0.0;0.0;1.0;0.5;1.0;0.25;0.25;1.75;0.0;0.0;-0.256836;0.029785;0.974609;-0.21;-0.91;0.98;226.0;-0.190059;-0.06118
1.49;8.25;7.75;6.25;4.75;0.25;0.0;0.25;0.0;2.25;0.5;1.0;0.25;0.0;2.25;0.5;0.25;-0.231934;0.019043;0.991211;-3.08;0.84;0.49;392.0;-0.210591;0.005506;1.75;6.0;2.75;4.25;0.25;0.5;0.0;0.0;1.0;0.75;0.75;0.25;0.25;1.75;0.25;0.0;-0.25;0.025391;0.970215;-0.35;-0.91;0.77;229.0;-0.18082;-0.059308
1.5;8.25;7.5;6.25;4.75;0.25;0.0;0.25;0.0;2.25;0.5;1.0;0.25;0.0;2.0;0.5;0.25;-0.234375;0.015625;0.977539;-3.08;0.77;0.35;387.0;-0.212986;0.005591;1.5;6.0;2.75;4.25;0.5;0.5;0.0;0.0;1.0;0.75;1.0;0.5;0.25;1.75;0.0;0.0;-0.251953;0.02832;0.975586;-0.28;-0.98;0.91;233.0;-0.17482;-0.06314
1.51;8.0;7.5;6.0;4.75;0.25;0.0;0.0;0.0;2.25;0.5;0.75;0.25;0.0;2.0;0.5;0.25;-0.230469;0.040527;0.992188;-2.66;0.7;0.42;374.0;-0.2177;0.002449;2.0;6.0;2.75;4.25;0.5;0.75;0.0;0.0;1.25;0.75;0.75;0.5;0.25;1.75;0.0;0.25;-0.256836;0.025391;0.967285;-0.56;-1.12;0.91;243.0;-0.174971;-0.05765
1.52;8.0;7.5;6.0;4.5;0.25;0.0;0.25;0.0;2.25;0.5;0.75;0.25;0.0;1.75;0.5;0.25;-0.235352;0.083496;1.008789;-2.59;0.35;0.07;373.0;-0.21777;0.005836;2.0;6.0;2.75;4.25;0.5;0.5;0.0;0.25;1.0;0.75;1.0;0.25;0.25;1.5;0.0;0.0;-0.254395;0.033203;0.970215;-0.28;-1.05;0.84;237.0;-0.187829;-0.064339
1.53;8.0;7.25;6.0;4.5;0.25;0.0;0.25;0.0;2.25;0.5;0.75;0.25;0.0;2.0;0.5;0.25;-0.234375;0.016113;0.978516;-2.31;0.77;0.21;373.0;-0.212503;0.008068;2.0;6.0;2.75;4.25;0.5;0.5;0.0;0.0;1.25;1.0;1.25;0.25;0.0;1.75;0.0;0.0;-0.25293;0.030762;0.977539;-0.42;-0.91;0.77;242.0;-0.172095;-0.046633
1.54;8.0;7.25;6.25;4.5;0.25;0.0;0.25;0.0;2.25;0.5;0.75;0.25;0.0;1.75;0.5;0.25;-0.238281;0.01416;0.986328;-2.17;0.63;0.28;374.0;-0.216818;0.007676;2.0;6.0;2.75;4.25;0.5;0.5;0.0;0.0;1.25;0.75;1.0;0.25;0.0;1.75;0.0;0.0;-0.253418;0.027344;0.975098;-0.42;-0.91;0.7;237.0;-0.181865;-0.047124
1.55;8.0;7.5;6.25;4.5;0.25;0.0;0.25;0.0;2.25;0.5;0.75;0.25;0.0;1.75;0.5;0.25;-0.237305;0.021484;0.984375;-2.1;0.63;0.28;376.0;-0.218157;0.006512;1.5;6.0;3.0;4.25;0.5;0.75;0.0;0.0;1.25;0.5;1.25;0.5;0.25;1.5;0.25;0.0;-0.258789;0.027344;0.974121;-0.35;-0.91;0.7;243.0;-0.168209;-0.06346
1.56;8.25;7.5;6.0;4.5;0.25;0.0;0.25;0.0;2.5;0.5;0.75;0.25;0.0;1.75;0.5;0.25;-0.23877;0.019043;0.983887;-2.1;0.49;0.21;380.0;-0.214686;0.009134;1.75;6.25;2.75;4.25;0.5;0.75;0.0;0.0;1.0;0.5;1.25;0.75;0.0;1.75;0.0;0.0;-0.260254;0.029785;0.975098;-0.28;-0.98;0.84;241.0;-0.178663;-0.065793
1.57;8.25;7.0;6.0;4.25;0.25;0.0;0.25;0.0;2.25;0.5;0.75;0.5;0.0;1.75;0.75;0.25;-0.232422;0.01709;0.981934;-1.89;0.56;0.28;374.0;-0.207845;0.007785;2.0;6.25;2.75;4.25;0.5;0.75;0.0;0.25;1.25;0.75;1.25;0.75;0.25;1.75;0.25;0.0;-0.254395;0.023438;0.972168;-0.21;-0.91;0.91;260.0;-0.158266;-0.066782
1.58;8.25;7.0;6.25;4.25;0.25;0.0;0.25;0.0;2.25;0.5;0.75;0.5;0.0;1.75;0.5;0.25;-0.23291;0.010254;0.990723;-1.82;0.63;0.35;374.0;-0.213034;0.009139;1.75;6.25;2.75;4.25;0.5;0.5;0.0;0.25;1.25;0.75;1.25;0.5;0.25;1.75;0.0;0.0;-0.251465;0.025879;0.973145;-0.14;-1.05;0.91;248.0;-0.166332;-0.063483
1.59;8.25;7.0;6.25;4.25;0.25;0.0;0.25;0.0;2.25;0.5;0.75;0.5;0.0;1.75;0.5;0.25;-0.233887;0.017578;0.986328;-1.61;0.56;0.35;374.0;-0.213034;0.009139;1.5;6.5;2.75;4.5;0.5;0.5;0.0;0.0;1.25;0.75;1.25;0.5;0.25;1.75;0.0;0.25;-0.254883;0.029297;0.970215;-0.14;-1.12;1.05;249.0;-0.167077;-0.064423
1.6;8.25;7.25;6.0;4.25;0.25;0.0;0.25;0.0;2.25;0.5;0.75;0.25;0.0;1.75;0.5;0.25;-0.230957;0.020996;0.990234;-1.47;0.56;0.49;370.0;-0.217269;0.00966;1.5;6.5;3.0;5.0;0.25;0.75;0.0;0.0;0.75;0.75;1.25;0.5;0.25;1.75;0.0;0.25;-0.250977;0.026367;0.976074;-0.0;-1.19;1.26;250.0;-0.183583;-0.080056
1.61;8.25;7.25;6.0;4.0;0.25;0.0;0.25;0.0;2.25;0.5;0.5;0.25;0.0;2.0;0.5;0.25;-0.22998;0.015625;0.975586;-1.33;0.56;0.35;367.0;-0.216165;0.013618;2.0;6.5;3.0;5.0;0.25;0.5;0.0;0.0;1.25;0.75;1.25;0.5;0.0;1.75;0.25;0.0;-0.255371;0.021973;0.977539;0.14;-1.19;1.26;259.0;-0.176376;-0.059166
1.62;8.25;7.25;6.0;4.25;0.25;0.0;0.25;0.0;2.25;0.25;0.5;0.25;0.0;2.0;0.5;0.25;-0.236328;0.017578;0.986328;-1.12;0.56;0.49;367.0;-0.220283;0.011281;2.0;6.75;3.0;5.0;0.5;0.5;0.0;0.25;0.75;0.75;1.25;0.75;0.25;1.5;0.25;0.25;-0.256836;0.024414;0.973145;0.14;-1.19;1.33;266.0;-0.182059;-0.082587
1.63;8.0;7.0;6.0;4.25;0.25;0.0;0.25;0.0;2.25;0.25;0.75;0.25;0.0;2.0;0.25;0.25;-0.227539;0.018066;0.983887;-1.19;0.56;0.49;362.0;-0.218931;0.011488;2.0;6.75;2.75;5.0;0.5;0.75;0.0;0.25;1.25;0.75;1.0;0.75;0.0;1.5;0.25;0.25;-0.253418;0.02832;0.975098;0.14;-1.12;1.26;268.0;-0.17652;-0.073444
1.64;8.0;7.25;6.0;4.25;0.25;0.0;0.25;0.0;2.25;0.5;0.75;0.25;0.0;2.0;0.25;0.0;-0.235352;0.016113;0.986816;-0.98;0.56;0.63;366.0;-0.219071;0.011989;2.0;6.75;2.75;5.0;0.5;0.75;0.0;0.25;1.0;0.75;1.25;0.5;0.0;1.25;0.0;0.25;-0.256348;0.029785;0.970703;-0.0;-1.26;1.26;259.0;-0.194069;-0.078393
1.65;8.25;7.25;5.75;4.25;0.25;0.0;0.25;0.0;2.25;0.25;1.0;0.25;0.0;2.0;0.25;0.0;-0.227539;0.01416;0.983398;-0.98;0.49;0.56;365.0;-0.220201;0.01069;2.25;6.75;2.75;5.25;0.5;0.75;0.0;0.25;0.75;0.75;1.0;0.75;0.0;1.25;0.0;0.25;-0.269531;0.01709;0.976074;0.07;-1.19;1.26;262.0;-0.203717;-0.084853
1.66;8.25;7.25;6.0;4.25;0.25;0.0;0.25;0.0;2.25;0.5;0.75;0.5;0.0;1.75;0.25;0.0;-0.237793;0.01416;0.991211;-0.98;0.42;0.7;369.0;-0.221114;0.009284;2.25;6.75;2.75;5.25;0.5;0.75;0.0;0.25;0.75;0.5;0.75;0.5;0.25;1.5;0.0;0.25;-0.253418;0.030273;0.970703;0.07;-1.19;1.19;258.0;-0.209039;-0.084871
1.67;8.0;7.25;6.0;4.0;0.25;0.0;0.25;0.0;2.25;0.5;0.75;0.25;0.0;1.75;0.25;0.25;-0.230957;0.01416;0.980469;-0.98;0.49;0.7;362.0;-0.220183;0.011555;2.25;7.0;2.75;5.25;0.5;0.75;0.0;0.25;0.75;0.5;1.0;0.25;0.0;1.25;0.25;0.25;-0.245117;0.035156;0.97168;0.07;-1.05;1.19;258.0;-0.213105;-0.082553
1.68;8.0;7.0;6.0;4.25;0.25;0.0;0.25;0.0;2.25;0.5;0.5;0.0;0.0;1.75;0.5;0.25;-0.231445;0.016602;0.991211;-0.91;0.42;0.56;359.0;-0.221352;0.013561;3.0;7.0;2.75;5.25;0.5;0.75;0.0;0.25;0.75;0.75;1.0;0.5;0.0;1.5;0.25;0.0;-0.256836;0.02832;0.975586;-0.0;-1.12;1.19;273.0;-0.20764;-0.073871
1.69;8.0;7.0;6.0;4.25;0.25;0.0;0.25;0.0;2.5;0.5;0.5;0.0;0.0;2.0;0.25;0.0;-0.236816;0.022461;0.985352;-1.12;0.49;0.49;361.0;-0.219924;0.019305;3.0;7.0;2.75;5.25;0.25;0.75;0.0;0.25;0.5;0.75;1.0;0.5;0.0;1.25;0.25;0.0;-0.257812;0.02832;0.975586;-0.07;-1.05;0.98;264.0;-0.220295;-0.082323
1.7;7.75;7.0;6.25;4.25;0.25;0.0;0.25;0.0;2.5;0.25;0.75;0.25;0.0;1.75;0.25;0.0;-0.233398;0.02002;0.983398;-1.12;0.56;0.56;362.0;-0.219608;0.014245;2.5;7.0;2.75;5.25;0.25;0.75;0.0;0.25;0.75;0.75;1.0;0.5;0.0;1.25;0.25;0.25;-0.253906;0.02832;0.970703;-0.21;-1.05;1.05;264.0;-0.206648;-0.082886
1.71;7.75;7.0;6.0;4.25;0.0;0.0;0.25;0.0;2.25;0.25;0.5;0.25;0.0;1.75;0.5;0.0;-0.230469;0.012207;0.987793;-0.91;0.49;0.56;352.0;-0.223362;0.010825;2.25;7.0;2.75;5.25;0.25;0.75;0.0;0.25;1.0;0.5;0.75;0.25;0.25;1.25;0.25;0.25;-0.25293;0.033691;0.975098;-0.21;-1.05;0.91;258.0;-0.209;-0.082369
1.72;8.25;7.0;6.25;4.25;0.0;0.0;0.25;0.0;2.25;0.25;0.5;0.5;0.0;1.75;0.5;0.0;-0.231934;0.015137;0.983398;-1.05;0.49;0.42;364.0;-0.223089;0.010578;2.5;7.25;2.75;5.5;0.25;0.75;0.0;0.25;1.0;0.5;0.75;0.25;0.25;1.25;0.5;0.25;-0.255859;0.029297;0.977539;-0.28;-1.12;0.98;270.0;-0.207297;-0.082729
1.73;8.25;7.25;6.25;4.25;0.0;0.0;0.25;0.0;2.25;0.25;0.5;0.25;0.0;1.75;0.5;0.25;-0.235352;0.009766;0.984375;-0.98;0.49;0.49;365.0;-0.22547;0.010462;3.0;7.25;2.75;5.25;0.25;1.0;0.0;0.25;0.75;0.75;1.0;0.5;0.25;1.25;0.25;0.25;-0.254883;0.029297;0.969238;-0.49;-0.98;0.91;277.0;-0.208792;-0.084984
1.74;8.0;7.0;6.0;4.25;0.25;0.0;0.25;0.0;2.25;0.5;0.5;0.25;0.0;1.5;0.25;0.0;-0.229004;0.016113;0.986816;-1.05;0.63;0.49;356.0;-0.229497;0.012116;2.75;6.75;2.75;5.25;0.25;1.0;0.0;0.25;0.5;0.5;1.0;0.5;0.25;1.0;0.0;0.25;-0.253418;0.032715;0.970215;-0.28;-0.98;0.84;258.0;-0.226443;-0.094544
1.75;8.0;6.75;6.0;4.25;0.25;0.0;0.25;0.0;2.5;0.5;0.5;0.25;0.0;1.75;0.25;0.25;-0.231445;0.020508;0.984375;-1.05;0.49;0.49;360.0;-0.216807;0.015691;2.5;7.0;2.75;5.5;0.25;1.0;0.0;0.25;0.5;0.5;1.0;0.5;0.25;1.0;0.0;0.25;-0.253906;0.033203;0.973633;-0.42;-0.91;0.98;261.0;-0.227066;-0.098944
1.76;8.0;6.75;6.0;4.25;0.25;0.0;0.25;0.0;2.5;0.5;0.5;0.25;0.0;1.75;0.25;0.25;-0.236816;0.016602;0.986816;-1.05;0.49;0.42;360.0;-0.216807;0.015691;2.5;7.0;2.5;5.25;0.5;1.0;0.0;0.25;0.75;0.5;1.0;0.5;0.25;1.5;0.0;0.25;-0.254395;0.026367;0.975098;-0.42;-0.91;0.91;266.0;-0.207111;-0.088018
1.77;8.25;7.0;6.0;4.25;0.25;0.0;0.25;0.0;2.25;0.25;0.5;0.25;0.0;1.75;0.25;0.25;-0.230957;0.013672;0.984863;-0.98;0.63;0.49;359.0;-0.228002;0.012195;2.5;7.25;2.75;5.25;0.5;1.0;0.0;0.25;0.5;0.5;1.0;0.25;0.25;1.0;0.25;0.5;-0.25293;0.03125;0.974121;-0.42;-0.98;0.84;265.0;-0.221615;-0.095218
1.78;8.25;7.0;6.0;4.0;0.25;0.0;0.25;0.0;2.0;0.5;0.5;0.25;0.0;2.0;0.25;0.25;-0.230469;0.016602;0.97998;-0.91;0.56;0.56;358.0;-0.22447;0.013046;2.5;7.25;3.0;5.25;0.5;1.0;0.0;0.25;0.5;0.75;1.25;0.25;0.0;1.0;0.0;0.5;-0.253418;0.033203;0.977051;-0.42;-0.77;0.84;268.0;-0.222603;-0.088573
1.79;8.25;7.25;6.25;4.0;0.25;0.0;0.25;0.0;2.25;0.25;0.75;0.25;0.0;2.0;0.25;0.25;-0.233398;0.01416;0.984863;-0.77;0.56;0.56;367.0;-0.221536;0.013596;2.25;7.0;2.75;5.25;0.5;1.0;0.0;0.0;0.75;1.0;1.0;0.25;0.0;1.25;0.0;0.5;-0.25293;0.030762;0.970703;-0.42;-0.91;0.77;261.0;-0.209304;-0.077921
1.8;8.25;7.0;6.25;4.25;0.25;0.0;0.25;0.0;2.25;0.25;0.5;0.25;0.0;2.0;0.5;0.25;-0.234375;0.019531;0.983887;-0.77;0.56;0.56;368.0;-0.219312;0.013144;2.25;7.0;3.0;5.25;0.5;1.0;0.0;0.0;0.75;0.5;1.0;0.5;0.25;1.5;0.0;0.5;-0.260742;0.028809;0.969238;-0.35;-0.91;0.84;266.0;-0.206252;-0.082552
1.81;8.5;7.0;6.0;4.25;0.25;0.0;0.25;0.0;2.5;0.25;0.5;0.25;0.0;2.0;0.25;0.25;-0.231934;0.013184;0.986816;-1.05;0.7;0.49;368.0;-0.220604;0.016529;2.25;7.0;3.0;5.25;0.25;0.75;0.0;0.25;1.0;0.5;1.25;0.5;0.25;1.75;0.25;0.5;-0.254395;0.030762;0.973145;-0.42;-0.91;0.77;276.0;-0.182748;-0.08026
1.82;8.25;7.0;6.25;4.25;0.25;0.0;0.25;0.0;2.25;0.25;0.5;0.0;0.0;2.0;0.5;0.25;-0.231445;0.013184;0.984375;-0.84;0.63;0.56;365.0;-0.222696;0.015587;2.25;7.0;3.0;5.25;0.25;1.0;0.0;0.0;0.5;0.75;1.25;0.5;0.25;1.75;0.5;0.25;-0.259277;0.029785;0.977051;-0.56;-0.84;0.77;272.0;-0.188884;-0.084167
1.83;8.0;7.0;6.25;4.25;0.25;0.0;0.25;0.0;2.25;0.25;0.5;0.25;0.0;2.25;0.5;0.25;-0.233887;0.013672;0.980957;-0.77;0.49;0.56;367.0;-0.213898;0.013447;2.75;7.0;2.75;5.25;0.5;1.25;0.0;0.0;0.5;0.75;1.0;0.5;0.25;1.25;0.0;0.25;-0.256836;0.029297;0.966797;-0.63;-0.77;0.77;267.0;-0.219098;-0.086777
1.84;8.0;6.75;6.25;4.25;0.25;0.0;0.25;0.0;2.25;0.25;0.5;0.0;0.0;2.25;0.5;0.25;-0.229492;0.009766;0.98877;-0.63;0.42;0.56;362.0;-0.215854;0.017163;2.25;7.0;2.75;5.25;0.5;1.25;0.0;0.25;0.5;0.75;1.25;0.5;0.25;1.25;0.0;0.25;-0.250488;0.02832;0.973145;-0.63;-0.77;0.77;269.0;-0.20728;-0.095932
1.85;8.0;6.75;6.0;4.25;0.25;0.0;0.25;0.0;2.25;0.5;0.75;0.0;0.0;1.75;0.5;0.25;-0.230469;0.011719;0.983887;-0.56;0.35;0.56;360.0;-0.216427;0.013791;2.5;7.0;2.75;5.25;0.25;1.0;0.0;0.25;0.75;0.75;1.25;0.5;0.25;1.5;0.25;0.25;-0.257324;0.028809;0.977539;-0.7;-0.84;0.77;274.0;-0.193081;-0.086336
1.86;8.0;7.25;6.0;4.25;0.25;0.0;0.25;0.0;2.25;0.25;0.5;0.25;0.0;2.0;0.5;0.0;-0.233398;0.01416;0.987793;-0.77;0.56;0.42;363.0;-0.221227;0.011847;2.5;6.75;2.75;5.25;0.25;1.0;0.0;0.25;0.75;0.75;1.25;0.75;0.25;1.5;0.0;0.25;-0.252441;0.031738;0.973145;-0.7;-0.77;0.7;272.0;-0.193082;-0.087857
1.87;8.0;7.25;6.25;4.25;0.25;0.0;0.25;0.0;2.5;0.25;0.5;0.25;0.0;2.0;0.5;0.0;-0.237793;0.016602;0.984863;-0.7;0.28;0.49;369.0;-0.216969;0.015027;2.0;6.75;2.75;5.25;0.5;1.0;0.0;0.25;0.75;0.75;1.25;0.5;0.25;1.5;0.0;0.0;-0.25;0.031738;0.975098;-0.77;-0.84;0.77;265.0;-0.195292;-0.086848
1.88;8.0;6.75;6.25;4.25;0.25;0.0;0.25;0.0;2.5;0.5;0.75;0.25;0.0;2.0;0.5;0.0;-0.23291;0.009766;0.984375;-0.91;0.49;0.42;370.0;-0.207313;0.016858;2.25;6.75;2.75;5.25;0.25;1.0;0.0;0.25;0.75;0.75;1.25;0.5;0.25;1.5;0.0;0.0;-0.25293;0.023438;0.968262;-0.91;-0.91;0.77;265.0;-0.198309;-0.086436
1.89;8.0;6.75;6.0;4.25;0.25;0.0;0.25;0.0;2.5;0.5;0.5;0.25;0.0;2.0;0.5;0.0;-0.232422;0.011719;0.987305;-1.12;0.56;0.42;364.0;-0.210228;0.017294;2.5;6.75;2.75;5.25;0.25;1.0;0.0;0.25;0.5;0.5;1.25;0.5;0.25;1.5;0.0;0.25;-0.253418;0.033203;0.977051;-0.77;-0.84;0.7;263.0;-0.208309;-0.092155
1.9;8.0;6.75;6.25;4.25;0.25;0.0;0.25;0.0;2.5;0.25;0.5;0.5;0.0;2.0;0.5;0.25;-0.237793;0.01416;0.982422;-1.05;0.49;0.49;369.0;-0.208591;0.013752;2.5;6.75;3.0;5.25;0.25;1.0;0.0;0.25;1.25;0.5;1.25;0.75;0.25;1.5;0.0;0.25;-0.251953;0.032227;0.973633;-0.77;-0.84;0.63;279.0;-0.186772;-0.078188
1.91;8.0;6.75;6.25;4.25;0.25;0.0;0.25;0.0;2.5;0.25;0.5;0.25;0.0;1.75;0.5;0.0;-0.233398;0.018555;0.980957;-1.05;0.42;0.56;362.0;-0.218225;0.016506;2.25;6.75;3.0;5.25;0.5;1.0;0.0;0.25;1.0;1.0;1.25;0.75;0.25;1.5;0.0;0.25;-0.257324;0.027344;0.980957;-0.91;-0.77;0.7;281.0;-0.180944;-0.080191
1.92;8.25;6.75;6.25;4.25;0.25;0.0;0.25;0.0;2.5;0.5;0.5;0.25;0.0;2.0;0.5;0.0;-0.23291;0.017578;0.98877;-1.19;0.56;0.42;370.0;-0.21216;0.018588;2.25;6.75;2.75;5.25;0.5;1.0;0.0;0.25;0.75;0.75;1.25;0.75;0.25;1.5;0.5;0.25;-0.253906;0.032227;0.974609;-0.77;-0.7;0.56;278.0;-0.17781;-0.088132
1.93;8.25;6.75;6.25;4.0;0.25;0.0;0.25;0.0;2.5;0.25;0.5;0.25;0.0;2.0;0.5;0.25;-0.233887;0.016113;0.984375;-1.12;0.35;0.56;366.0;-0.21274;0.018886;2.25;6.25;2.75;5.25;0.5;1.0;0.0;0.25;0.75;0.75;1.25;0.75;0.25;1.5;0.5;0.25;-0.252441;0.027344;0.967285;-0.77;-0.91;0.7;273.0;-0.173396;-0.08669
1.94;8.0;6.75;6.25;4.0;0.0;0.0;0.25;0.0;2.5;0.25;0.5;0.25;0.0;2.0;0.25;0.0;-0.231934;0.015137;0.985352;-1.26;0.28;0.49;355.0;-0.219352;0.020011;2.25;6.5;2.75;5.25;0.5;1.0;0.0;0.25;0.75;0.75;1.25;0.75;0.25;1.5;0.25;0.25;-0.252441;0.028809;0.972168;-0.84;-0.77;0.63;272.0;-0.181761;-0.087473
1.95;7.75;6.75;6.25;4.25;0.25;0.0;0.25;0.0;2.75;0.25;0.5;0.0;0.0;2.0;0.25;0.0;-0.231934;0.01416;0.980957;-1.19;0.49;0.56;359.0;-0.216387;0.022678;2.25;6.5;3.0;5.25;0.5;1.0;0.0;0.25;0.75;0.75;1.0;0.75;0.5;1.5;0.25;0.5;-0.254883;0.029297;0.975586;-0.84;-0.84;0.7;276.0;-0.181007;-0.089626
1.96;8.0;6.75;6.25;4.0;0.25;0.0;0.25;0.0;2.5;0.25;0.5;0.0;0.0;2.0;0.5;0.0;-0.23584;0.016113;0.984375;-0.98;0.14;0.42;358.0;-0.216994;0.022081;2.25;6.75;3.0;5.25;0.5;1.0;0.0;0.25;0.75;1.0;1.0;0.75;0.5;1.5;0.5;0.25;-0.25293;0.027344;0.969238;-0.91;-0.77;0.7;283.0;-0.175746;-0.087521
1.97;8.25;7.0;6.25;4.0;0.25;0.0;0.25;0.0;2.5;0.25;0.5;0.25;0.0;2.25;0.5;0.0;-0.234863;0.018066;0.985352;-1.12;0.28;0.42;369.0;-0.2125;0.019956;2.5;6.5;3.0;5.25;0.5;1.0;0.0;0.25;1.0;0.75;1.0;0.75;0.25;1.5;0.25;0.25;-0.251465;0.028809;0.973145;-0.91;-0.84;0.63;279.0;-0.183486;-0.078619
1.98;8.25;6.75;6.25;4.25;0.25;0.0;0.25;0.0;2.5;0.25;0.5;0.25;0.0;2.5;0.5;0.0;-0.232422;0.016602;0.986816;-1.12;0.35;0.35;372.0;-0.207818;0.020229;2.5;6.5;2.75;5.25;0.5;1.0;0.0;0.25;1.0;0.75;1.25;0.75;0.25;1.5;0.5;0.25;-0.254883;0.030273;0.974121;-0.98;-0.84;0.7;282.0;-0.172424;-0.080853
1.99;8.0;6.75;6.5;4.25;0.25;0.0;0.25;0.0;2.75;0.0;0.5;0.25;0.0;2.25;0.25;0.0;-0.234375;0.011719;0.981445;-1.19;0.35;0.42;368.0;-0.214459;0.022056;2.25;6.75;2.75;5.25;0.5;1.25;0.0;0.25;1.0;0.5;1.25;0.75;0.25;1.75;0.25;0.0;-0.253906;0.033691;0.969727;-0.91;-0.91;0.77;279.0;-0.180188;-0.083665
2.0;8.0;7.0;7.0;4.25;0.5;0.0;0.25;0.0;2.75;0.25;0.5;0.25;0.0;2.25;0.25;0.0;-0.23584;0.013672;0.992188;-1.12;0.42;0.42;382.0;-0.212523;0.022508;2.25;6.75;2.75;5.25;0.5;0.75;0.0;0.25;1.0;0.5;1.0;0.5;0.25;1.75;0.5;0.0;-0.254395;0.023926;0.969727;-1.05;-0.91;0.7;271.0;-0.183011;-0.076892
2.01;8.25;6.75;7.0;4.25;0.5;0.0;0.25;0.0;2.75;0.25;0.5;0.25;0.0;2.25;0.25;0.0;-0.23877;0.015137;0.984375;-1.19;0.56;0.42;382.0;-0.212589;0.024391;2.25;6.75;2.75;5.25;0.25;0.75;0.0;0.25;0.75;0.75;1.25;0.5;0.25;1.5;0.0;0.0;-0.258301;0.030273;0.971191;-0.98;-0.91;0.56;262.0;-0.198833;-0.084317
2.02;8.0;6.75;6.5;4.25;0.5;0.0;0.25;0.0;2.75;0.25;0.75;0.25;0.0;2.25;0.25;0.25;-0.236328;0.01123;0.990234;-1.12;0.49;0.49;378.0;-0.20474;0.020323;2.5;6.75;2.75;5.25;0.5;0.75;0.0;0.25;1.0;0.75;1.25;0.5;0.25;1.75;0.0;0.25;-0.257324;0.03125;0.968262;-0.91;-0.84;0.63;275.0;-0.186035;-0.075095
2.03;8.0;7.0;6.5;4.25;0.25;0.0;0.25;0.0;2.75;0.25;0.75;0.25;0.0;2.25;0.25;0.0;-0.229492;0.015137;0.980957;-1.05;0.42;0.49;376.0;-0.209023;0.020061;2.25;6.75;2.75;5.25;0.5;1.0;0.0;0.25;1.0;0.75;1.25;0.75;0.25;1.5;0.0;0.0;-0.252441;0.030273;0.976562;-0.84;-0.77;0.56;274.0;-0.187297;-0.08231
2.04;8.0;6.75;6.5;4.0;0.25;0.0;0.25;0.0;2.75;0.25;0.75;0.0;0.0;2.25;0.5;0.0;-0.237793;0.011719;0.988281;-1.05;0.35;0.49;370.0;-0.205453;0.024981;2.0;6.5;2.75;5.25;0.5;1.0;0.0;0.25;1.0;0.75;1.0;0.75;0.25;1.5;0.0;0.0;-0.256348;0.024414;0.974609;-0.84;-0.84;0.63;266.0;-0.18727;-0.083187
2.05;8.25;6.75;7.0;4.25;0.25;0.0;0.25;0.0;2.75;0.25;0.75;0.0;0.0;2.25;0.25;0.25;-0.22998;0.010742;0.986328;-0.98;0.28;0.42;381.0;-0.210945;0.024155;2.25;6.25;2.75;5.25;0.5;1.0;0.0;0.0;0.5;1.0;1.0;0.75;0.25;1.25;0.0;0.0;-0.257812;0.024902;0.973145;-0.77;-0.91;0.7;255.0;-0.203367;-0.085958
2.06;8.25;6.75;6.5;4.25;0.5;0.0;0.25;0.0;2.75;0.5;0.75;0.25;0.0;2.25;0.5;0.0;-0.230957;0.01123;0.981934;-1.19;0.49;0.49;385.0;-0.200526;0.021819;2.25;6.75;3.0;5.25;0.5;1.0;0.0;0.0;0.5;0.75;1.25;0.75;0.25;1.75;0.25;0.0;-0.257812;0.029785;0.970703;-0.77;-0.77;0.7;271.0;-0.191144;-0.082809
2.07;8.0;6.75;6.5;4.25;0.25;0.0;0.25;0.0;2.75;0.25;0.75;0.25;0.0;2.25;0.5;0.0;-0.230957;0.012207;0.98584;-1.19;0.56;0.49;376.0;-0.202933;0.02053;2.25;6.75;2.75;5.25;0.5;0.75;0.0;0.0;0.75;0.75;1.25;0.75;0.25;1.75;0.25;0.0;-0.256348;0.029785;0.971191;-0.63;-0.98;0.84;269.0;-0.184771;-0.077903
2.08;8.25;6.75;6.5;4.0;0.0;0.0;0.25;0.0;2.75;0.25;0.75;0.25;0.0;2.0;0.25;0.0;-0.236816;0.013672;0.98291;-1.12;0.56;0.42;368.0;-0.213061;0.022685;2.25;6.75;2.75;5.25;0.5;0.75;0.0;0.0;0.75;0.75;1.25;0.75;0.25;1.75;0.0;0.0;-0.252441;0.028809;0.969238;-0.63;-0.98;0.84;266.0;-0.191162;-0.077856
2.09;8.25;7.0;6.5;4.0;0.25;0.0;0.25;0.0;2.75;0.25;0.75;0.25;0.0;2.25;0.25;0.0;-0.235352;0.006836;0.983398;-0.91;0.35;0.56;376.0;-0.20986;0.022685;2.25;6.5;2.75;5.25;0.5;0.75;0.0;0.0;0.75;0.75;1.25;0.75;0.25;1.25;0.0;0.0;-0.25293;0.028809;0.971191;-0.56;-0.84;0.84;259.0;-0.199805;-0.081584
2.1;8.25;6.75;6.5;4.25;0.25;0.0;0.25;0.0;2.75;0.5;0.5;0.0;0.0;2.5;0.25;0.0;-0.235352;0.006348;0.984863;-0.98;0.49;0.49;376.0;-0.208369;0.026748;2.25;6.5;2.75;5.25;0.5;0.75;0.0;0.25;0.75;0.75;1.25;0.5;0.5;1.25;0.25;0.0;-0.252441;0.026367;0.97168;-0.56;-0.84;0.77;265.0;-0.191454;-0.087513
2.11;8.0;6.75;7.0;4.5;0.5;0.0;0.25;0.0;2.75;0.5;0.5;0.25;0.0;2.5;0.25;0.0;-0.236816;0.010254;0.986816;-0.98;0.49;0.56;388.0;-0.204713;0.023054;2.25;6.75;3.0;5.25;0.5;0.75;0.0;0.25;0.75;0.75;1.25;0.5;0.25;1.5;0.25;0.25;-0.258301;0.033691;0.969727;-0.7;-0.84;0.7;272.0;-0.189335;-0.081989
2.12;8.0;6.75;7.0;4.25;0.5;0.0;0.25;0.0;3.0;0.25;0.5;0.0;0.0;2.25;0.5;0.0;-0.23291;0.015137;0.98291;-1.05;0.56;0.42;383.0;-0.205333;0.027713;2.25;6.75;2.75;5.25;0.5;1.0;0.0;0.25;0.75;1.0;1.25;0.5;0.25;1.5;0.5;0.25;-0.25293;0.03125;0.972168;-0.63;-0.91;0.77;278.0;-0.177541;-0.084425
2.13;8.25;6.75;7.0;4.0;0.25;0.0;0.25;0.0;3.0;0.25;0.5;0.0;0.0;2.25;0.5;0.0;-0.23584;0.013672;0.980469;-0.98;0.49;0.63;380.0;-0.20679;0.030045;2.25;6.75;3.0;5.25;0.5;1.0;0.0;0.25;0.75;1.0;1.25;0.5;0.25;1.75;0.5;0.25;-0.255859;0.026367;0.973633;-0.56;-0.77;0.77;283.0;-0.173649;-0.080404
2.14;8.0;6.75;7.0;4.0;0.25;0.0;0.25;0.0;2.75;0.25;0.5;0.25;0.0;2.25;0.25;0.0;-0.234375;0.015625;0.979004;-0.91;0.56;0.56;374.0;-0.211244;0.025454;2.0;6.5;2.75;5.25;0.5;1.0;0.0;0.25;0.75;0.75;1.25;0.75;0.25;1.75;0.5;0.25;-0.256348;0.03418;0.970215;-0.49;-0.84;0.7;275.0;-0.168308;-0.087199
2.15;7.75;6.75;6.5;4.25;0.25;0.0;0.25;0.0;2.75;0.25;0.5;0.0;0.0;2.5;0.5;0.0;-0.234863;0.016113;0.984863;-1.05;0.49;0.42;370.0;-0.204062;0.024361;2.0;6.5;2.75;5.25;0.5;1.0;0.0;0.25;1.0;0.75;1.25;0.75;0.25;1.25;0.25;0.0;-0.257324;0.033691;0.97998;-0.63;-0.63;0.77;269.0;-0.181721;-0.085773
2.16;8.0;6.75;6.5;4.0;0.25;0.0;0.25;0.0;2.75;0.25;0.5;0.25;0.0;2.5;0.25;0.0;-0.234863;0.009766;0.989258;-1.12;0.49;0.49;370.0;-0.206433;0.025358;2.0;6.5;2.75;5.25;0.5;1.0;0.0;0.25;1.0;1.0;1.25;0.75;0.25;1.5;0.25;0.0;-0.255859;0.033203;0.965332;-0.56;-0.77;0.63;274.0;-0.172323;-0.081995
2.17;8.25;7.0;6.5;4.0;0.25;0.0;0.25;0.0;3.0;0.25;0.5;0.25;0.0;2.25;0.25;0.0;-0.230957;0.010254;0.981445;-1.05;0.56;0.56;376.0;-0.208741;0.026129;2.0;6.25;3.0;5.25;0.25;1.0;0.0;0.25;0.5;1.0;1.25;0.5;0.25;1.5;0.5;0.25;-0.254883;0.026855;0.968262;-0.56;-0.84;0.77;266.0;-0.178041;-0.089401
2.18;8.25;7.0;7.0;4.25;0.25;0.0;0.5;0.0;3.0;0.5;0.75;0.25;0.0;2.5;0.25;0.0;-0.23291;0.013672;0.981445;-0.98;0.42;0.42;398.0;-0.197247;0.027581;2.0;6.5;2.75;5.25;0.5;1.0;0.0;0.25;0.75;0.75;1.25;0.75;0.25;1.75;0.5;0.0;-0.253906;0.030273;0.978516;-0.63;-0.84;0.77;273.0;-0.171174;-0.085973
2.19;8.25;6.75;7.25;4.25;0.25;0.0;0.5;0.0;3.25;0.25;0.5;0.25;0.0;2.5;0.5;0.0;-0.234375;0.008789;0.990234;-1.05;0.28;0.49;399.0;-0.194121;0.03147;2.25;6.5;2.75;5.25;0.25;0.75;0.0;0.25;1.0;0.5;1.25;0.5;0.25;1.75;0.5;0.0;-0.257324;0.03418;0.968262;-0.56;-0.91;0.7;268.0;-0.177095;-0.078017
2.2;8.0;6.75;7.25;4.0;0.25;0.0;0.5;0.0;3.25;0.25;0.5;0.0;0.0;2.25;0.5;0.25;-0.230957;0.009277;0.983398;-1.12;0.42;0.49;389.0;-0.196373;0.03312;2.0;6.5;2.75;5.25;0.25;0.75;0.0;0.25;1.0;0.5;1.25;0.5;0.25;1.5;0.5;0.0;-0.253906;0.032715;0.970703;-0.56;-1.05;0.77;263.0;-0.179869;-0.082287
2.21;8.0;6.75;7.0;4.25;0.25;0.0;0.5;0.0;3.25;0.5;0.5;0.0;0.0;2.5;0.25;0.0;-0.22998;0.012695;0.987305;-1.19;0.28;0.49;390.0;-0.196279;0.033947;2.25;6.25;2.75;5.0;0.5;1.0;0.0;0.25;0.75;0.75;1.25;0.5;0.25;1.25;0.5;0.0;-0.25293;0.030762;0.977051;-0.56;-1.12;0.84;263.0;-0.184459;-0.083883
2.22;8.25;6.75;7.0;4.0;0.25;0.0;0.5;0.0;3.0;0.25;0.5;0.25;0.0;2.5;0.25;0.0;-0.236816;0.01416;0.987305;-1.19;0.42;0.42;386.0;-0.201467;0.031598;2.25;6.25;2.75;5.0;0.5;1.0;0.0;0.25;0.75;0.75;1.0;0.5;0.0;1.5;0.5;0.0;-0.255859;0.030273;0.976562;-0.49;-0.98;0.77;260.0;-0.186847;-0.077778
2.23;8.25;6.75;7.25;4.0;0.25;0.0;0.5;0.0;3.25;0.25;0.5;0.25;0.0;2.5;0.25;0.25;-0.231445;0.012695;0.988281;-1.12;0.42;0.49;394.0;-0.195702;0.032947;2.25;6.25;2.75;5.0;0.5;1.0;0.0;0.25;0.75;0.75;1.0;0.75;0.0;1.5;0.5;0.0;-0.25293;0.030273;0.970215;-0.63;-1.05;0.84;263.0;-0.182512;-0.080164
2.24;8.25;6.75;7.25;4.0;0.25;0.0;0.5;0.0;3.25;0.25;0.5;0.25;0.0;2.75;0.5;0.0;-0.234375;0.01416;0.987305;-0.91;0.28;0.49;398.0;-0.189881;0.034253;2.25;6.5;2.75;5.25;0.5;0.75;0.0;0.25;0.75;0.75;1.0;0.75;0.25;1.5;0.5;0.0;-0.251953;0.03125;0.97168;-0.49;-0.98;0.91;268.0;-0.183133;-0.083805
2.25;8.25;6.75;7.25;4.0;0.5;0.0;0.5;0.0;3.25;0.5;0.5;0.25;0.0;2.75;0.5;0.0;-0.230957;0.015625;0.990723;-1.12;0.42;0.42;404.0;-0.186374;0.034663;2.25;6.5;2.75;5.25;0.5;1.0;0.0;0.25;0.75;0.5;1.0;0.75;0.25;1.5;0.5;0.0;-0.253418;0.034668;0.973633;-0.7;-0.91;0.84;268.0;-0.187281;-0.087469
2.26;8.0;6.75;7.25;4.25;0.25;0.0;0.5;0.0;3.25;0.5;0.5;0.25;0.0;2.5;0.5;0.0;-0.22998;0.009766;0.980469;-1.19;0.35;0.35;399.0;-0.189541;0.031152;2.25;6.5;2.75;5.25;0.25;1.0;0.0;0.25;1.0;0.5;1.0;0.75;0.25;1.5;0.5;0.25;-0.254883;0.032715;0.972656;-0.56;-0.91;0.77;270.0;-0.179093;-0.085571
2.27;8.0;6.75;7.0;4.25;0.25;0.0;0.5;0.0;3.5;0.5;0.5;0.25;0.0;2.5;0.5;0.0;-0.236328;0.008789;0.988281;-1.12;0.56;0.42;399.0;-0.184969;0.032886;2.0;6.5;2.75;5.25;0.25;0.75;0.0;0.25;0.75;0.5;1.0;0.5;0.25;1.25;0.5;0.5;-0.253418;0.03418;0.96875;-0.63;-0.98;0.7;257.0;-0.18958;-0.091888
2.28;8.25;6.5;7.0;3.75;0.25;0.0;0.5;0.0;3.5;0.5;0.75;0.25;0.0;2.5;0.25;0.0;-0.233887;0.016602;0.991699;-1.19;0.35;0.56;394.0;-0.184822;0.038388;2.25;6.75;2.75;5.25;0.5;0.75;0.0;0.25;0.75;0.5;1.0;0.5;0.25;1.5;0.25;0.25;-0.26123;0.032227;0.972656;-0.63;-0.91;0.77;263.0;-0.197602;-0.085179
2.29;8.25;6.5;7.25;3.75;0.25;0.0;0.5;0.0;3.5;0.5;0.75;0.25;0.0;2.75;0.25;0.0;-0.234863;0.010742;0.989258;-1.26;0.56;0.49;399.0;-0.181963;0.039587;2.25;6.5;2.75;5.25;0.5;0.75;0.0;0.25;0.5;0.5;1.25;0.75;0.25;1.5;0.25;0.0;-0.259277;0.032715;0.973145;-0.56;-1.05;0.84;261.0;-0.195749;-0.090677
2.3;8.0;6.75;7.25;3.75;0.25;0.0;0.5;0.0;3.75;0.5;0.75;0.25;0.0;2.75;0.25;0.0;-0.238281;0.015625;0.987793;-1.19;0.56;0.49;402.0;-0.177981;0.039898;2.0;6.75;2.75;5.25;0.5;0.75;0.0;0.25;0.75;0.5;1.0;0.75;0.25;1.25;0.25;0.0;-0.252441;0.032227;0.975098;-0.49;-0.98;0.77;260.0;-0.199489;-0.090677
2.31;8.25;6.75;7.25;4.0;0.25;0.0;0.5;0.0;3.75;0.5;0.5;0.25;0.0;2.75;0.5;0.0;-0.229004;0.008789;0.981934;-1.26;0.56;0.56;408.0;-0.179065;0.038666;2.25;6.5;2.75;5.25;0.5;1.0;0.0;0.25;0.75;0.75;1.0;0.75;0.25;1.5;0.25;0.25;-0.252441;0.030762;0.97168;-0.49;-1.05;0.77;270.0;-0.186088;-0.087171
2.32;8.25;6.75;7.25;4.0;0.25;0.0;0.5;0.0;3.75;0.5;0.5;0.25;0.0;2.75;0.5;0.0;-0.234375;0.010742;0.986328;-1.12;0.35;0.63;408.0;-0.179065;0.038666;2.25;6.75;2.75;5.25;0.25;1.0;0.0;0.25;0.75;0.75;1.0;0.75;0.25;1.5;0.5;0.0;-0.254395;0.027344;0.975586;-0.42;-0.91;0.84;270.0;-0.185611;-0.088263
2.33;8.25;6.75;7.25;4.25;0.25;0.0;0.5;0.0;3.5;0.5;0.5;0.25;0.0;2.5;0.5;0.0;-0.237793;0.009277;0.984863;-1.26;0.49;0.49;405.0;-0.187099;0.033841;2.75;6.75;2.75;5.25;0.25;1.0;0.0;0.25;0.5;0.5;1.0;0.5;0.25;1.0;0.0;0.0;-0.259766;0.030762;0.971191;-0.49;-0.98;0.91;256.0;-0.229834;-0.093279
2.34;8.25;6.75;7.25;4.25;0.5;0.0;0.5;0.0;3.5;0.5;0.5;0.25;0.0;2.5;0.5;0.0;-0.235352;0.010254;0.98291;-1.19;0.49;0.56;408.0;-0.186644;0.034043;2.25;6.75;2.75;5.25;0.5;1.0;0.0;0.25;0.5;0.5;1.0;0.5;0.25;1.0;0.0;0.0;-0.254883;0.032227;0.972656;-0.56;-1.12;0.84;254.0;-0.224729;-0.095958
2.35;8.25;6.75;7.25;4.5;0.25;0.0;0.5;0.0;3.25;0.5;0.25;0.0;0.0;2.75;0.5;0.0;-0.234375;0.012207;0.98584;-1.26;0.49;0.49;401.0;-0.194119;0.034033;2.0;6.75;2.75;5.25;0.5;1.0;0.0;0.0;0.5;0.5;1.0;0.5;0.25;1.0;0.0;0.25;-0.256348;0.030273;0.972168;-0.49;-0.98;0.77;248.0;-0.222764;-0.094627
2.36;8.25;6.75;7.25;4.25;0.25;0.0;0.5;0.0;3.25;0.5;0.25;0.0;0.0;2.75;0.5;0.0;-0.235352;0.010254;0.987793;-1.19;0.56;0.49;398.0;-0.193416;0.035982;2.5;6.75;2.75;5.25;0.5;1.0;0.0;0.0;0.25;0.5;1.0;0.5;0.25;1.0;0.0;0.25;-0.256836;0.027344;0.972168;-0.42;-1.05;0.84;250.0;-0.233691;-0.0953
2.37;8.25;6.75;7.25;4.0;0.25;0.0;0.5;0.0;3.5;0.5;0.25;0.25;0.0;2.75;0.5;0.0;-0.230957;0.010254;0.986816;-1.12;0.49;0.56;402.0;-0.185824;0.037669;2.75;6.75;2.75;5.25;0.5;1.0;0.0;0.25;0.25;0.75;0.75;0.5;0.25;1.25;0.0;0.25;-0.255859;0.03125;0.966797;-0.35;-1.19;0.91;260.0;-0.226084;-0.09342
2.38;8.25;6.75;7.25;4.25;0.25;0.0;0.5;0.0;3.5;0.25;0.25;0.25;0.0;2.75;0.25;0.0;-0.236328;0.010742;0.987793;-1.12;0.42;0.56;399.0;-0.193887;0.03637;2.5;6.75;2.75;5.25;0.5;0.75;0.0;0.0;0.25;0.5;0.75;0.5;0.25;1.0;0.25;0.25;-0.254395;0.027344;0.97998;-0.56;-1.12;0.91;247.0;-0.232554;-0.092774
2.39;8.25;6.75;7.25;4.25;0.25;0.0;0.5;0.0;3.25;0.25;0.5;0.25;0.0;2.75;0.25;0.0;-0.233887;0.007812;0.97998;-1.12;0.42;0.56;398.0;-0.194916;0.03314;2.75;6.75;2.75;5.25;0.5;1.0;0.0;0.0;0.25;0.5;1.0;0.5;0.25;1.25;0.0;0.0;-0.257812;0.030762;0.974609;-0.42;-1.19;0.84;254.0;-0.23314;-0.089259
2.4;8.25;6.75;7.5;4.0;0.5;0.0;0.5;0.0;3.75;0.5;0.5;0.25;0.0;2.5;0.25;0.0;-0.236816;0.010254;0.98584;-1.12;0.42;0.56;409.0;-0.186784;0.039267;2.5;6.75;2.75;5.25;0.25;0.75;0.0;0.25;0.25;0.5;1.0;0.25;0.25;1.25;0.25;0.0;-0.255859;0.028809;0.96582;-0.35;-1.12;0.84;249.0;-0.227528;-0.093716
2.41;8.5;7.0;7.25;4.0;0.25;0.0;0.5;0.0;3.75;0.5;0.25;0.25;0.0;2.5;0.25;0.0;-0.229492;0.010742;0.991211;-1.05;0.49;0.56;405.0;-0.192497;0.039031;2.5;7.0;2.75;5.25;0.25;1.0;0.0;0.25;0.25;0.5;1.0;0.25;0.25;1.25;0.0;0.0;-0.255859;0.029297;0.968262;-0.49;-1.12;0.84;252.0;-0.235758;-0.096687
2.42;8.5;7.0;7.5;4.0;0.25;0.0;0.5;0.0;3.5;0.5;0.25;0.0;0.0;2.5;0.25;0.0;-0.236328;0.00293;0.984375;-1.12;0.42;0.56;402.0;-0.19992;0.039721;2.75;7.0;2.75;5.25;0.25;1.0;0.0;0.25;0.25;0.75;1.0;0.5;0.25;1.0;0.0;0.25;-0.251953;0.033691;0.973633;-0.49;-1.05;0.84;260.0;-0.229829;-0.098586
2.43;8.5;7.0;7.75;4.25;0.5;0.0;0.5;0.0;3.25;0.5;0.25;0.25;0.0;2.75;0.5;0.25;-0.232422;0.007812;0.987793;-0.98;0.56;0.49;417.0;-0.192006;0.032681;2.5;7.0;2.75;5.25;0.25;1.0;0.0;0.25;0.25;0.5;1.0;0.5;0.25;1.0;0.0;0.25;-0.256836;0.040039;0.974609;-0.42;-1.19;0.91;254.0;-0.233159;-0.102714
2.44;8.5;7.0;7.5;4.25;0.5;0.0;0.5;0.0;3.75;0.5;0.25;0.25;0.0;2.5;0.5;0.0;-0.230469;0.007324;0.97998;-0.98;0.35;0.56;417.0;-0.189108;0.036831;2.5;7.25;2.75;5.25;0.25;0.75;0.0;0.25;0.25;0.5;1.0;0.5;0.25;1.0;0.0;0.0;-0.257812;0.031738;0.96875;-0.49;-1.05;0.91;252.0;-0.239438;-0.100102
2.45;8.5;7.0;7.5;4.25;0.5;0.0;0.5;0.0;3.5;0.5;0.25;0.0;0.0;2.25;0.5;0.0;-0.229004;0.010254;0.986816;-1.12;0.35;0.56;409.0;-0.199232;0.0363;2.75;6.75;2.75;5.25;0.25;0.75;0.0;0.0;0.25;0.5;1.0;0.25;0.25;1.0;0.0;0.0;-0.251953;0.030273;0.971191;-0.49;-1.12;0.98;243.0;-0.246886;-0.088975
2.46;8.5;7.0;7.5;4.25;0.5;0.0;0.5;0.0;3.5;0.5;0.25;0.0;0.0;2.25;0.25;0.0;-0.23584;0.009766;0.984375;-1.12;0.42;0.49;406.0;-0.203519;0.037136;2.5;7.0;2.75;5.25;0.25;0.75;0.0;0.0;0.25;0.5;1.0;0.25;0.25;1.0;0.25;0.0;-0.253906;0.030273;0.969727;-0.56;-1.05;0.91;245.0;-0.23918;-0.091969
2.47;8.5;7.0;7.75;4.5;0.5;0.0;0.5;0.0;3.25;0.5;0.25;0.25;0.0;2.5;0.25;0.0;-0.230469;0.004883;0.981934;-0.98;0.42;0.49;413.0;-0.20223;0.032036;2.75;7.25;2.75;5.25;0.25;0.75;0.0;0.25;0.25;0.5;1.0;0.25;0.25;1.0;0.25;0.0;-0.251465;0.037109;0.966797;-0.63;-0.98;0.91;255.0;-0.239051;-0.095372
2.48;8.5;7.25;7.5;4.5;0.5;0.0;0.5;0.0;3.5;0.25;0.25;0.25;0.0;2.5;0.25;0.0;-0.234375;0.013672;0.987305;-0.91;0.49;0.49;414.0;-0.202147;0.032283;2.5;7.25;2.75;5.25;0.25;0.75;0.0;0.25;0.25;0.5;1.0;0.5;0.25;1.0;0.25;0.0;-0.258301;0.02832;0.96875;-0.63;-0.98;0.84;255.0;-0.232162;-0.0999
2.49;8.5;7.25;7.5;4.25;0.5;0.0;0.5;0.0;3.5;0.5;0.25;0.25;0.0;2.25;0.25;0.0;-0.231445;0.008301;0.985352;-1.05;0.42;0.49;411.0;-0.201935;0.033555;2.75;7.25;3.25;5.25;0.25;1.0;0.0;0.25;0.25;0.5;1.0;0.5;0.0;1.0;0.25;0.25;-0.254883;0.029785;0.971191;-0.56;-0.91;0.84;266.0;-0.234107;-0.093262
2.5;8.75;7.0;7.25;4.25;0.25;0.0;0.5;0.0;3.5;0.5;0.5;0.25;0.0;2.25;0.5;0.0;-0.234375;0.001465;0.979004;-0.98;0.56;0.49;411.0;-0.194867;0.032836;2.75;7.25;3.0;5.25;0.25;1.0;0.0;0.0;0.25;0.5;1.0;0.5;0.0;1.0;0.0;0.25;-0.255371;0.030273;0.975098;-0.7;-0.98;0.77;256.0;-0.244531;-0.090704
2.51;8.5;7.0;7.5;4.25;0.5;0.0;0.5;0.0;3.5;0.5;0.5;0.25;0.0;2.75;0.25;0.0;-0.237305;0.006836;0.983887;-1.05;0.56;0.42;416.0;-0.190838;0.035346;2.75;6.75;2.75;5.25;0.25;1.0;0.0;0.25;0.25;0.5;0.75;0.5;0.25;1.0;0.0;0.25;-0.258301;0.030762;0.972656;-0.63;-0.91;0.77;251.0;-0.238456;-0.099548
2.52;8.75;7.0;7.5;4.25;0.5;0.0;0.5;0.0;3.25;0.5;0.25;0.0;0.0;2.25;0.25;0.0;-0.231934;0.007324;0.984375;-0.98;0.49;0.56;405.0;-0.208976;0.035544;2.75;6.75;2.75;5.25;0.25;0.75;0.0;0.25;0.25;0.5;0.75;0.75;0.25;1.0;0.0;0.0;-0.25293;0.03418;0.967773;-0.7;-1.05;0.84;250.0;-0.237873;-0.098476
2.53;8.75;7.0;8.0;4.5;0.25;0.0;0.5;0.0;3.75;0.25;0.25;0.25;0.0;2.25;0.25;0.0;-0.233887;0.009277;0.984375;-0.84;0.63;0.56;418.0;-0.203181;0.03588;2.75;6.75;3.0;5.25;0.25;0.75;0.0;0.25;0.25;0.5;1.0;0.75;0.25;0.75;0.0;0.0;-0.254883;0.028809;0.972168;-0.7;-0.91;0.77;253.0;-0.238928;-0.098942
2.54;8.5;7.0;7.5;4.25;0.25;0.0;0.5;0.0;3.75;0.25;0.5;0.0;0.0;2.25;0.25;0.0;-0.235352;0.008301;0.981934;-0.91;0.49;0.42;406.0;-0.200132;0.03778;2.75;6.75;2.75;5.25;0.25;0.75;0.0;0.25;0.5;0.5;0.75;0.5;0.25;1.0;0.0;0.0;-0.256348;0.033203;0.972168;-0.91;-0.91;0.77;251.0;-0.235958;-0.090888
2.55;8.5;7.0;7.5;4.0;0.25;0.0;0.5;0.0;3.5;0.25;0.5;0.0;0.0;2.5;0.25;0.0;-0.228516;0.004395;0.986328;-0.84;0.49;0.49;402.0;-0.200003;0.038443;2.5;7.0;2.75;5.25;0.25;0.75;0.0;0.25;0.5;0.75;1.0;0.5;0.25;1.25;0.0;0.0;-0.256348;0.035645;0.970703;-0.84;-0.91;0.63;258.0;-0.219701;-0.089971
2.56;8.25;7.25;7.5;4.25;0.5;0.0;0.5;0.0;3.25;0.25;0.5;0.0;0.0;2.5;0.5;0.0;-0.227539;0.010742;0.986816;-1.05;0.56;0.42;407.0;-0.199757;0.031995;2.75;7.0;2.75;5.25;0.25;0.5;0.0;0.25;0.5;0.5;0.75;0.5;0.25;1.25;0.0;0.0;-0.255371;0.029785;0.977539;-0.84;-0.91;0.77;252.0;-0.232785;-0.087026
2.57;8.75;7.0;7.5;4.0;0.5;0.0;0.5;0.0;3.25;0.5;0.5;0.25;0.0;2.5;0.5;0.25;-0.229004;0.018066;0.990234;-0.98;0.56;0.49;414.0;-0.192719;0.032811;2.75;6.75;2.75;5.5;0.25;1.0;0.0;0.25;0.5;0.25;0.75;0.5;0.25;1.0;0.0;0.0;-0.258301;0.027832;0.970703;-0.84;-0.98;0.77;254.0;-0.240923;-0.09634
2.58;8.25;7.0;7.5;4.25;0.25;0.0;0.5;0.0;3.25;0.25;0.5;0.25;0.0;2.5;0.5;0.25;-0.236328;0.009766;0.98877;-0.91;0.28;0.56;406.0;-0.194016;0.029418;2.75;7.0;2.75;5.25;0.25;0.75;0.0;0.0;0.5;0.25;0.75;0.25;0.25;1.0;0.0;0.25;-0.258789;0.032715;0.966309;-0.77;-0.84;0.7;245.0;-0.248789;-0.087278
2.59;8.25;6.75;7.5;4.25;0.5;0.0;0.5;0.0;3.25;0.25;0.5;0.0;0.0;2.5;0.25;0.0;-0.233398;0.005859;0.987305;-0.98;0.42;0.56;399.0;-0.20138;0.035317;2.25;6.75;2.75;5.25;0.25;1.0;0.0;0.0;0.5;0.25;1.0;0.25;0.25;1.0;0.25;0.25;-0.255371;0.032227;0.973633;-0.84;-0.98;0.77;245.0;-0.229114;-0.09352
2.6;8.5;7.0;7.75;4.0;0.5;0.0;0.5;0.0;3.25;0.25;0.5;0.25;0.0;2.75;0.25;0.0;-0.230957;0.013184;0.990234;-0.91;0.49;0.49;410.0;-0.197581;0.035367;2.25;6.75;3.0;5.25;0.25;1.0;0.0;0.25;0.5;0.5;0.75;0.25;0.25;1.25;0.0;0.25;-0.260742;0.032715;0.967285;-0.84;-0.84;0.77;252.0;-0.227172;-0.091836
2.61;8.5;6.75;7.75;4.0;0.5;0.0;0.5;0.0;3.25;0.5;0.5;0.25;0.0;2.5;0.25;0.0;-0.22998;0.007324;0.986328;-0.77;0.35;0.42;408.0;-0.196648;0.036001;2.5;7.0;3.0;5.25;0.25;1.0;0.0;0.25;0.5;0.5;0.75;0.25;0.25;1.0;0.0;0.25;-0.253906;0.036621;0.96875;-0.77;-0.84;0.77;255.0;-0.236828;-0.092798
2.62;8.5;6.75;7.5;3.75;0.5;0.0;0.5;0.0;3.75;0.5;0.25;0.25;0.0;2.5;0.25;0.0;-0.232422;0.008301;0.982422;-0.91;0.42;0.42;406.0;-0.190455;0.042795;2.5;6.75;2.75;5.25;0.25;1.0;0.0;0.25;0.5;0.5;0.75;0.25;0.25;1.0;0.0;0.25;-0.255859;0.03418;0.970215;-0.77;-0.77;0.77;249.0;-0.234659;-0.094284
2.63;8.5;6.75;7.5;4.0;0.5;0.0;0.5;0.0;3.75;0.5;0.25;0.0;0.0;2.25;0.25;0.0;-0.233398;0.013672;0.984863;-0.84;0.21;0.56;404.0;-0.197492;0.042451;2.5;6.75;2.75;5.25;0.25;1.0;0.0;0.25;0.5;0.5;1.0;0.5;0.25;1.0;0.25;0.5;-0.253906;0.028809;0.967773;-0.91;-0.91;0.77;259.0;-0.214156;-0.097875
2.64;8.5;6.75;7.5;4.0;0.5;0.0;0.5;0.0;3.25;0.5;0.5;0.0;0.0;2.5;0.25;0.0;-0.230957;0.006836;0.980469;-0.84;0.21;0.42;402.0;-0.199033;0.037978;2.25;6.75;2.75;5.25;0.25;0.75;0.0;0.0;0.5;0.5;1.0;0.5;0.25;1.0;0.0;0.25;-0.256348;0.035645;0.970215;-0.91;-0.91;0.7;245.0;-0.226898;-0.092024
2.65;8.5;6.75;7.5;4.25;0.5;0.0;0.5;0.0;3.5;0.25;0.5;0.25;0.0;2.75;0.25;0.0;-0.233887;0.005371;0.990234;-0.91;0.35;0.49;411.0;-0.192437;0.036385;2.25;6.75;2.75;5.25;0.25;1.0;0.0;0.0;0.5;0.5;1.0;0.25;0.0;1.0;0.0;0.25;-0.254395;0.033691;0.974609;-0.84;-0.84;0.7;243.0;-0.234999;-0.088241
2.66;8.25;6.75;7.75;4.0;0.5;0.0;0.5;0.0;3.5;0.25;0.25;0.0;0.0;2.5;0.25;0.0;-0.237793;0.007324;0.985352;-0.77;0.42;0.49;400.0;-0.200185;0.040897;2.25;6.75;2.75;5.25;0.25;0.75;0.0;0.25;0.5;0.5;0.75;0.5;0.0;1.25;0.25;0.0;-0.254883;0.031738;0.973633;-0.91;-0.84;0.7;248.0;-0.222465;-0.089309
2.67;8.25;6.75;7.75;4.25;0.5;0.0;0.5;0.0;3.5;0.5;0.25;0.0;0.0;2.25;0.25;0.0;-0.231934;0.003418;0.98291;-0.84;0.49;0.49;403.0;-0.201256;0.038296;2.5;6.75;2.75;5.25;0.25;0.75;0.0;0.25;0.5;0.5;0.75;0.5;0.25;1.0;0.0;0.0;-0.255859;0.028809;0.973145;-0.91;-0.84;0.7;248.0;-0.234046;-0.093169
2.68;8.5;6.75;7.75;3.75;0.5;0.0;0.5;0.0;3.75;0.5;0.25;0.0;0.0;2.75;0.5;0.0;-0.230469;0.007812;0.98291;-0.77;0.56;0.56;411.0;-0.186238;0.045405;2.5;6.75;2.75;5.25;0.25;1.0;0.0;0.25;0.5;0.5;0.75;0.75;0.25;1.0;0.0;0.0;-0.248535;0.029297;0.973633;-0.91;-0.91;0.7;254.0;-0.228052;-0.097576
2.69;8.5;6.75;7.5;3.75;0.5;0.0;0.5;0.0;3.75;0.5;0.5;0.25;0.0;2.75;0.25;0.0;-0.232422;0.005371;0.990234;-0.84;0.49;0.49;411.0;-0.184155;0.042454;2.5;6.75;2.75;5.25;0.25;1.0;0.0;0.25;0.5;0.5;1.0;0.75;0.25;1.25;0.0;0.25;-0.259277;0.026855;0.970703;-0.91;-0.91;0.77;260.0;-0.214;-0.096551
2.7;8.5;6.75;7.75;3.75;0.5;0.0;0.5;0.0;3.75;0.5;0.5;0.25;0.0;2.75;0.25;0.0;-0.231934;0.012695;0.983398;-0.84;0.7;0.49;414.0;-0.184754;0.042798;2.75;6.75;2.75;5.25;0.25;1.0;0.0;0.25;0.5;0.5;0.75;0.75;0.25;1.0;0.0;0.0;-0.256836;0.027832;0.973145;-0.84;-0.84;0.7;256.0;-0.229985;-0.095299
2.71;8.75;6.75;8.0;3.75;0.5;0.0;0.5;0.0;3.25;0.25;0.5;0.0;0.0;2.75;0.5;0.0;-0.231445;0.00293;0.987305;-0.84;0.63;0.56;410.0;-0.196127;0.040924;2.25;7.0;2.75;5.25;0.25;1.0;0.0;0.25;0.5;0.5;0.75;0.75;0.25;1.0;0.0;0.0;-0.25293;0.035645;0.971191;-0.84;-0.98;0.77;253.0;-0.227971;-0.100564
2.72;8.75;6.75;8.0;3.75;0.5;0.0;0.5;0.0;3.25;0.25;0.5;0.0;0.0;2.25;0.25;0.0;-0.231445;0.008301;0.982422;-0.77;0.49;0.49;403.0;-0.207445;0.040222;2.75;6.75;2.75;5.25;0.5;0.75;0.0;0.0;0.5;0.5;0.75;0.75;0.25;1.25;0.25;0.0;-0.259277;0.032715;0.968262;-0.84;-0.98;0.7;257.0;-0.220292;-0.084021
2.73;8.75;6.75;8.0;4.0;0.5;0.0;0.5;0.0;3.25;0.5;0.5;0.0;0.0;2.75;0.25;0.0;-0.232422;0.010254;0.990723;-0.77;0.42;0.56;413.0;-0.197976;0.040007;2.75;6.75;2.75;5.25;0.25;0.75;0.0;0.25;0.5;0.5;0.75;0.75;0.25;1.25;0.25;0.0;-0.257324;0.032715;0.972656;-0.77;-0.98;0.77;259.0;-0.218046;-0.090662
2.74;8.5;7.0;7.75;4.0;0.5;0.0;0.5;0.0;3.5;0.5;0.5;0.0;0.0;2.5;0.25;0.0;-0.22998;0.004883;0.991211;-0.77;0.49;0.49;411.0;-0.196898;0.039164;2.75;7.0;2.75;5.25;0.25;0.5;0.0;0.25;0.5;0.5;0.75;0.75;0.25;1.0;0.0;0.25;-0.251953;0.024414;0.974121;-0.77;-0.98;0.77;254.0;-0.230215;-0.093119
2.75;8.5;6.75;7.75;4.0;0.5;0.0;0.5;0.0;3.5;0.5;0.25;0.0;0.0;2.5;0.25;0.0;-0.229492;0.01123;0.985352;-0.7;0.42;0.56;406.0;-0.198514;0.041533;2.5;6.75;2.75;5.25;0.25;0.75;0.0;0.25;0.25;0.5;1.0;0.5;0.25;1.0;0.0;0.25;-0.258301;0.030273;0.967285;-0.77;-0.98;0.84;248.0;-0.232267;-0.100033
2.76;8.5;7.0;7.75;4.0;0.5;0.0;0.5;0.0;3.5;0.25;0.5;0.0;0.0;2.75;0.25;0.0;-0.230957;0.007812;0.985352;-0.98;0.49;0.56;410.0;-0.196479;0.039776;2.5;6.75;2.75;5.25;0.25;1.0;0.0;0.25;0.5;0.5;1.0;0.5;0.25;1.25;0.0;0.0;-0.258301;0.03418;0.97168;-0.7;-0.91;0.7;256.0;-0.222088;-0.093056
2.77;8.5;6.75;7.75;3.75;0.5;0.0;0.5;0.0;3.5;0.25;0.25;0.0;0.0;2.5;0.25;0.0;-0.231445;0.010254;0.986328;-0.98;0.63;0.63;400.0;-0.200967;0.043371;3.0;6.5;3.0;5.25;0.25;0.75;0.0;0.25;0.25;0.5;1.0;0.5;0.25;1.25;0.25;0.0;-0.252441;0.032715;0.967773;-0.63;-0.91;0.77;258.0;-0.225112;-0.088664
2.78;8.5;6.5;8.0;4.0;0.75;0.0;0.5;0.0;3.5;0.25;0.25;0.0;0.0;2.75;0.5;0.0;-0.233398;0.005371;0.98877;-0.77;0.49;0.63;411.0;-0.192502;0.043055;3.25;6.75;2.75;5.25;0.25;0.75;0.0;0.25;0.25;0.5;1.0;0.5;0.25;1.0;0.25;0.0;-0.251953;0.030762;0.974121;-0.77;-0.98;0.77;258.0;-0.234185;-0.091751
2.79;8.5;6.75;8.0;4.0;0.75;0.0;0.5;0.0;3.25;0.5;0.25;0.0;0.0;2.5;0.5;0.0;-0.229492;0.007812;0.98291;-0.7;0.56;0.56;411.0;-0.198207;0.039143;2.75;6.75;2.75;5.25;0.25;0.75;0.0;0.25;0.5;0.5;1.0;0.5;0.25;1.0;0.5;0.0;-0.258301;0.033203;0.974121;-0.7;-0.98;0.84;259.0;-0.216623;-0.090972
2.8;8.5;6.75;8.0;4.0;0.5;0.0;0.5;0.0;3.25;0.5;0.25;0.0;0.0;2.75;0.25;0.0;-0.230469;0.009277;0.981445;-0.84;0.63;0.63;407.0;-0.199526;0.040623;2.75;7.0;2.75;5.25;0.5;0.75;0.0;0.25;0.5;0.75;1.0;0.25;0.25;1.25;0.25;0.25;-0.251465;0.026367;0.972168;-0.7;-0.91;0.84;266.0;-0.215235;-0.085076
2.81;8.5;6.75;7.75;4.0;0.5;0.0;0.5;0.0;3.25;0.5;0.25;0.25;0.0;2.75;0.25;0.0;-0.232422;0.010742;0.985352;-0.7;0.49;0.63;407.0;-0.196142;0.037876;2.5;6.75;3.0;5.25;0.25;1.0;0.0;0.25;0.5;0.75;1.25;0.25;0.25;1.25;0.25;0.25;-0.255859;0.025391;0.970703;-0.7;-0.98;0.91;266.0;-0.207472;-0.088453
2.82;8.5;6.75;7.75;4.0;0.5;0.0;0.5;0.0;3.25;0.5;0.25;0.25;0.0;2.75;0.5;0.0;-0.238281;0.006348;0.989258;-0.7;0.63;0.56;410.0;-0.191922;0.037037;2.25;6.75;2.75;5.25;0.25;0.75;0.0;0.25;0.5;0.75;1.0;0.75;0.25;1.25;0.5;0.25;-0.254395;0.030273;0.971191;-0.63;-0.98;0.77;263.0;-0.194203;-0.09472
2.83;8.75;6.75;8.0;4.0;0.5;0.0;0.5;0.0;3.75;0.5;0.5;0.0;0.0;2.5;0.5;0.0;-0.235352;0.01123;0.984863;-0.7;0.56;0.56;421.0;-0.189496;0.042398;2.75;6.75;2.75;5.25;0.25;1.0;0.0;0.25;0.5;0.5;1.0;0.5;0.25;1.0;0.25;0.25;-0.252441;0.027344;0.976562;-0.56;-0.98;0.84;261.0;-0.219473;-0.094408
2.84;8.5;6.75;8.0;4.0;0.5;0.0;0.5;0.0;3.5;0.5;0.25;0.25;0.0;2.5;0.5;0.0;-0.230469;0.006836;0.98584;-0.63;0.49;0.56;414.0;-0.191981;0.038681;2.5;6.75;2.75;5.25;0.5;1.0;0.0;0.25;0.5;0.5;1.0;0.5;0.25;1.0;0.25;0.25;-0.250977;0.029785;0.971191;-0.63;-1.05;0.91;261.0;-0.216396;-0.094821
2.85;8.5;7.0;7.5;4.0;0.5;0.0;0.5;0.0;3.25;0.5;0.25;0.0;0.0;2.5;0.25;0.25;-0.231934;0.008301;0.97998;-0.77;0.56;0.56;403.0;-0.201354;0.036501;2.75;6.75;2.75;5.25;0.25;1.0;0.0;0.25;0.25;0.5;1.0;0.5;0.25;1.0;0.5;0.25;-0.255859;0.028809;0.972656;-0.7;-1.05;0.91;260.0;-0.219105;-0.099345
2.86;8.5;6.75;7.75;4.0;0.5;0.0;0.5;0.0;3.25;0.5;0.5;0.0;0.0;2.75;0.25;0.0;-0.234375;0.010254;0.986328;-0.63;0.42;0.63;407.0;-0.196044;0.039159;2.5;6.75;2.75;5.25;0.25;1.0;0.0;0.25;0.25;0.5;1.0;0.5;0.25;1.0;0.0;0.25;-0.25293;0.033203;0.972168;-0.7;-1.12;0.91;251.0;-0.23132;-0.102078
2.87;8.5;6.75;7.75;4.0;0.5;0.0;0.5;0.0;3.25;0.5;0.25;0.0;0.0;2.75;0.25;0.0;-0.230469;0.009277;0.985352;-0.63;0.42;0.63;404.0;-0.199029;0.040256;2.5;6.75;2.75;5.25;0.25;1.0;0.0;0.25;0.5;0.5;1.0;0.75;0.25;1.25;0.0;0.25;-0.253906;0.033203;0.968262;-0.77;-1.12;0.77;260.0;-0.214;-0.096551
2.88;8.5;6.75;7.75;4.0;0.5;0.0;0.5;0.0;3.25;0.5;0.25;0.0;0.0;2.75;0.25;0.0;-0.230957;0.008789;0.989746;-0.7;0.49;0.56;404.0;-0.199029;0.040256;2.5;7.0;3.0;5.25;0.5;1.0;0.0;0.25;0.5;0.5;1.0;0.5;0.25;1.0;0.0;0.0;-0.254883;0.033203;0.970215;-0.63;-0.98;0.84;262.0;-0.228976;-0.092267
2.89;8.75;7.0;7.75;4.0;0.5;0.0;0.5;0.0;3.25;0.25;0.25;0.0;0.0;2.5;0.25;0.0;-0.231445;0.005859;0.982422;-0.49;0.28;0.63;405.0;-0.208411;0.038495;2.75;7.0;3.0;5.25;0.5;1.0;0.0;0.25;0.5;0.5;1.0;0.5;0.5;1.25;0.0;0.25;-0.259277;0.031738;0.976074;-0.7;-0.91;0.84;271.0;-0.218622;-0.092274
2.9;8.75;7.0;7.75;4.0;0.5;0.0;0.5;0.0;3.25;0.25;0.25;0.0;0.0;2.5;0.5;0.0;-0.237793;0.007324;0.98877;-0.77;0.56;0.56;407.0;-0.204076;0.037646;2.5;7.0;3.0;5.25;0.5;1.0;0.0;0.25;0.5;0.5;1.0;0.75;0.25;1.0;0.0;0.25;-0.253418;0.031738;0.96875;-0.63;-0.98;0.77;267.0;-0.220964;-0.095694
2.91;8.75;7.0;7.75;4.0;0.5;0.0;0.5;0.0;3.25;0.5;0.25;0.0;0.0;2.5;0.5;0.0;-0.231445;0.010742;0.98584;-0.49;0.49;0.63;410.0;-0.200997;0.037829;2.5;6.75;2.75;5.25;0.25;1.0;0.0;0.25;0.25;0.5;1.0;0.75;0.25;1.0;0.25;0.0;-0.254395;0.027344;0.970703;-0.7;-0.91;0.84;256.0;-0.222625;-0.10281
2.92;8.75;7.25;7.75;4.0;0.5;0.0;0.5;0.0;3.0;0.5;0.5;0.0;0.0;2.25;0.5;0.0;-0.234863;0.012207;0.992188;-0.63;0.49;0.7;410.0;-0.206812;0.032644;2.5;7.0;3.0;5.25;0.25;1.0;0.0;0.25;0.25;0.5;1.0;0.75;0.25;1.0;0.0;0.0;-0.253906;0.033203;0.97168;-0.63;-0.98;0.84;258.0;-0.232012;-0.101389
2.93;8.75;7.0;7.75;4.25;0.5;0.0;0.5;0.0;3.25;0.5;0.5;0.0;0.0;2.5;0.75;0.0;-0.235352;0.008301;0.989746;-0.63;0.56;0.56;419.0;-0.194538;0.034079;2.5;7.0;3.0;5.25;0.25;1.0;0.0;0.25;0.5;0.5;1.0;0.5;0.25;1.0;0.0;0.0;-0.255371;0.023926;0.977051;-0.63;-0.91;0.91;259.0;-0.230176;-0.094046
2.94;8.5;6.75;8.0;4.0;0.5;0.0;0.5;0.0;3.25;0.25;0.5;0.0;0.0;2.25;0.25;0.0;-0.236816;0.004883;0.983887;-0.7;0.56;0.42;403.0;-0.206666;0.037766;2.5;7.0;2.75;5.25;0.25;0.75;0.0;0.25;0.5;0.5;1.0;0.25;0.25;1.25;0.0;0.0;-0.256836;0.03125;0.96875;-0.63;-1.05;0.84;253.0;-0.229772;-0.089357
2.95;8.75;7.0;7.5;4.0;0.5;0.0;0.5;0.0;3.0;0.25;0.5;0.0;0.0;2.5;0.0;0.0;-0.231934;0.012207;0.987793;-0.49;0.56;0.56;398.0;-0.213467;0.035746;2.5;7.0;2.75;5.25;0.25;0.75;0.0;0.25;0.5;0.5;1.0;0.25;0.25;1.0;0.25;0.0;-0.257812;0.02832;0.96875;-0.63;-1.05;0.91;253.0;-0.228445;-0.091725
2.96;8.5;7.0;7.5;4.0;0.5;0.0;0.5;0.0;3.0;0.25;0.5;0.0;0.0;2.5;0.25;0.0;-0.233398;0.008789;0.984863;-0.56;0.63;0.56;398.0;-0.207643;0.034377;2.5;7.0;2.75;5.25;0.25;0.75;0.0;0.25;0.5;0.5;1.0;0.5;0.25;1.25;0.0;0.25;-0.25293;0.026855;0.970215;-0.63;-0.98;0.91;257.0;-0.221447;-0.092961
2.97;8.75;6.75;7.5;4.25;0.5;0.0;0.5;0.0;3.0;0.25;0.25;0.0;0.0;2.75;0.25;0.0;-0.233398;0.005859;0.981445;-0.63;0.7;0.63;401.0;-0.207809;0.036127;2.75;7.0;2.75;5.25;0.5;1.0;0.0;0.25;0.5;0.5;1.0;0.5;0.25;1.0;0.0;0.0;-0.257812;0.032227;0.966797;-0.63;-0.98;0.84;262.0;-0.230434;-0.092209
2.98;8.75;6.75;7.25;4.0;0.5;0.0;0.5;0.0;3.25;0.25;0.0;0.0;0.0;2.5;0.0;0.0;-0.231934;0.004395;0.985352;-0.63;0.7;0.63;390.0;-0.213882;0.041041;2.75;7.25;2.75;5.25;0.5;1.25;0.0;0.25;0.5;0.5;1.0;0.5;0.25;1.0;0.25;0.25;-0.253418;0.03418;0.973633;-0.7;-1.12;0.84;272.0;-0.221354;-0.095973
2.99;8.5;7.0;7.5;4.0;0.5;0.0;0.5;0.0;3.0;0.25;0.0;0.0;0.0;2.25;0.25;0.0;-0.22998;0.010254;0.98877;-0.49;0.49;0.63;390.0;-0.217697;0.035727;2.5;7.0;2.75;5.25;0.5;1.0;0.0;0.25;0.25;0.5;0.75;0.25;0.25;1.0;0.25;0.0;-0.254395;0.02832;0.969727;-0.7;-0.98;0.84;253.0;-0.23833;-0.096949
3.0;8.75;6.75;7.5;4.0;0.5;0.0;0.5;0.0;3.0;0.5;0.0;0.0;0.0;2.25;0.25;0.0;-0.236328;0.012207;0.984375;-0.63;0.56;0.63;393.0;-0.214444;0.037752;2.5;7.0;3.0;5.5;0.25;1.0;0.0;0.25;0.25;0.5;0.75;0.5;0.25;1.0;0.0;0.0;-0.25293;0.031738;0.972656;-0.7;-0.98;0.91;256.0;-0.242757;-0.100488
3.01;8.75;7.25;8.0;4.25;0.5;0.0;0.5;0.0;3.0;0.5;0.25;0.0;0.0;2.25;0.25;0.0;-0.233887;0.006348;0.989258;-0.63;0.56;0.7;410.0;-0.215152;0.03302;2.75;7.25;2.75;5.5;0.25;0.75;0.0;0.25;0.25;0.5;1.0;0.5;0.25;1.0;0.0;0.0;-0.260254;0.03418;0.974121;-0.63;-0.91;0.84;258.0;-0.241795;-0.099261
3.02;8.75;7.25;7.5;3.75;0.5;0.0;0.5;0.0;3.0;0.5;0.25;0.0;0.0;2.25;0.25;0.0;-0.232422;0.011719;0.986816;-0.63;0.49;0.7;398.0;-0.21329;0.036044;3.0;7.25;2.75;5.5;0.25;0.75;0.0;0.25;0.25;0.5;1.0;0.25;0.25;1.0;0.0;0.0;-0.254883;0.032715;0.977539;-0.84;-0.98;0.84;258.0;-0.248608;-0.094784
3.03;8.75;7.25;7.25;4.0;0.5;0.0;0.5;0.0;3.0;0.25;0.25;0.0;0.0;2.0;0.25;0.0;-0.238281;0.009277;0.986328;-0.56;0.49;0.49;393.0;-0.220434;0.0326;3.0;7.25;2.75;5.25;0.25;0.75;0.0;0.25;0.25;0.5;0.75;0.25;0.25;1.0;0.0;0.25;-0.257324;0.03125;0.973145;-0.77;-0.91;0.84;253.0;-0.249942;-0.094284
3.04;8.75;7.25;7.75;4.0;0.5;0.0;0.25;0.0;3.25;0.5;0.25;0.0;0.0;2.0;0.25;0.0;-0.236328;0.003418;0.989258;-0.77;0.49;0.56;401.0;-0.21669;0.033682;2.75;7.25;2.75;5.5;0.25;0.75;0.0;0.25;0.25;0.5;1.0;0.5;0.25;1.0;0.0;0.0;-0.253906;0.029297;0.971191;-0.77;-1.05;0.84;258.0;-0.241795;-0.099261
3.05;9.0;7.0;7.5;4.0;0.5;0.0;0.25;0.0;3.0;0.5;0.25;0.0;0.0;2.25;0.25;0.0;-0.234375;0.009766;0.983398;-0.77;0.56;0.49;397.0;-0.216958;0.033735;3.0;7.25;2.75;5.5;0.25;0.75;0.0;0.25;0.25;0.5;0.75;0.5;0.25;1.0;0.0;0.0;-0.247559;0.033203;0.970703;-0.77;-0.91;0.91;258.0;-0.248756;-0.096793
3.06;8.5;7.0;7.25;4.0;0.25;0.0;0.5;0.0;2.75;0.5;0.25;0.0;0.0;2.25;0.25;0.0;-0.228027;0.004883;0.983887;-0.63;0.56;0.56;386.0;-0.215769;0.031978;3.0;7.25;2.75;5.5;0.5;0.75;0.0;0.0;0.25;0.5;0.75;0.5;0.25;1.0;0.0;0.0;-0.250977;0.029785;0.970703;-0.77;-1.05;0.91;257.0;-0.251147;-0.090159
3.07;8.5;7.0;7.0;4.0;0.25;0.0;0.5;0.0;2.75;0.5;0.25;0.0;0.0;2.25;0.25;0.0;-0.234863;0.004883;0.991699;-0.63;0.49;0.63;383.0;-0.215373;0.031522;2.5;7.5;3.0;5.5;0.5;1.0;0.0;0.25;0.25;0.5;0.75;0.5;0.25;1.0;0.25;0.0;-0.253418;0.029297;0.975098;-0.84;-1.05;0.91;267.0;-0.23773;-0.099712
3.08;8.75;7.25;7.75;4.0;0.25;0.0;0.5;0.0;3.0;0.5;0.5;0.0;0.0;2.25;0.25;0.0;-0.23584;0.004395;0.985352;-0.7;0.56;0.63;404.0;-0.211779;0.033245;2.5;7.5;2.75;5.5;0.25;0.75;0.0;0.0;0.25;0.5;0.75;0.25;0.25;1.0;0.0;0.0;-0.253906;0.026855;0.969727;-0.77;-1.05;0.84;248.0;-0.256235;-0.094925
3.09;8.75;7.25;7.75;4.0;0.5;0.0;0.5;0.0;2.75;0.5;0.5;0.0;0.0;2.25;0.25;0.0;-0.230469;0.013184;0.98291;-0.63;0.49;0.7;403.0;-0.215287;0.031317;3.0;7.25;3.0;5.5;0.25;0.75;0.0;0.0;0.25;0.5;1.0;0.25;0.25;1.0;0.0;0.25;-0.25293;0.029785;0.975586;-0.91;-1.12;0.84;258.0;-0.249122;-0.089074
3.1;8.75;7.25;7.75;4.25;0.5;0.0;0.5;0.0;2.75;0.5;0.5;0.0;0.0;2.25;0.25;0.0;-0.230957;0.004883;0.98877;-0.77;0.49;0.56;406.0;-0.21582;0.029426;3.0;7.75;3.0;5.5;0.25;0.75;0.0;0.0;0.5;0.5;0.75;0.5;0.25;1.0;0.25;0.0;-0.260254;0.037109;0.974609;-0.91;-0.91;0.91;268.0;-0.242021;-0.086296
3.11;8.75;7.25;7.5;4.25;0.25;0.0;0.5;0.0;2.75;0.5;0.5;0.0;0.0;2.0;0.5;0.0;-0.23291;0.008789;0.983398;-0.63;0.63;0.56;401.0;-0.215301;0.027075;2.75;7.75;3.0;5.5;0.25;1.0;0.0;0.25;0.25;0.5;0.75;0.5;0.25;1.0;0.25;0.0;-0.256348;0.032227;0.970215;-0.98;-0.98;0.77;269.0;-0.242403;-0.099937
3.12;8.75;7.25;7.5;4.0;0.25;0.0;0.25;0.0;2.75;0.5;0.25;0.0;0.0;2.0;0.25;0.0;-0.229004;0.006836;0.984863;-0.63;0.56;0.7;388.0;-0.225736;0.028594;3.0;8.0;3.0;5.5;0.25;1.0;0.0;0.0;0.25;0.5;0.75;0.5;0.0;1.0;0.5;0.0;-0.251953;0.025391;0.972168;-0.91;-1.05;0.77;271.0;-0.245945;-0.090547
3.13;9.0;7.25;6.5;4.25;0.25;0.0;0.5;0.0;2.75;0.25;0.5;0.0;0.0;2.25;0.25;0.0;-0.229004;0.010254;0.989258;-0.49;0.49;0.63;388.0;-0.219277;0.027155;3.25;7.75;2.75;5.5;0.25;0.75;0.0;0.0;0.25;0.5;0.75;0.5;0.0;1.0;0.5;0.0;-0.256348;0.030762;0.973633;-0.84;-0.98;0.77;265.0;-0.24683;-0.087722
3.14;9.0;7.25;7.5;4.25;0.25;0.0;0.5;0.0;2.75;0.25;0.5;0.0;0.0;2.25;0.25;0.0;-0.232422;0.005859;0.981445;-0.56;0.49;0.63;400.0;-0.220686;0.029048;3.0;7.75;2.75;5.5;0.25;0.75;0.0;0.0;0.25;0.5;0.75;0.5;0.0;1.0;0.0;0.0;-0.253906;0.032715;0.971191;-0.84;-0.98;0.84;256.0;-0.259737;-0.090014
3.15;9.0;7.25;7.75;4.0;0.25;0.0;0.5;0.0;2.75;0.5;0.25;0.0;0.0;1.75;0.25;0.0;-0.234375;0.008789;0.980957;-0.56;0.49;0.7;396.0;-0.227872;0.030989;3.0;7.75;2.75;5.5;0.25;1.0;0.0;0.25;0.25;0.5;1.0;0.25;0.0;1.0;0.0;0.0;-0.253418;0.032715;0.967285;-0.98;-1.05;0.84;263.0;-0.25447;-0.094881
3.16;9.25;7.5;7.5;4.0;0.5;0.0;0.25;0.0;2.75;0.5;0.5;0.0;0.0;2.0;0.25;0.0;-0.231934;0.012207;0.983398;-0.56;0.56;0.63;402.0;-0.225469;0.027721;3.0;7.75;2.75;5.5;0.25;1.0;0.0;0.25;0.25;0.5;1.0;0.25;0.0;1.0;0.0;0.0;-0.244629;0.033203;0.973145;-0.84;-0.98;0.84;263.0;-0.25447;-0.094881
3.17;9.25;7.5;7.25;4.25;0.5;0.0;0.25;0.0;2.75;0.25;0.25;0.0;0.0;2.0;0.25;0.0;-0.237305;0.007812;0.984375;-0.49;0.35;0.77;396.0;-0.232232;0.026113;3.0;7.5;2.75;5.5;0.25;1.0;0.0;0.25;0.25;0.5;0.75;0.25;0.25;1.0;0.0;0.0;-0.252441;0.025391;0.973633;-0.91;-1.05;0.84;260.0;-0.254344;-0.097277
3.18;8.75;7.5;7.5;4.25;0.25;0.0;0.25;0.0;2.75;0.25;0.25;0.0;0.0;2.0;0.0;0.0;-0.228027;0.012695;0.988281;-0.42;0.56;0.56;388.0;-0.235554;0.025928;3.0;7.5;3.0;5.5;0.25;1.0;0.0;0.0;0.25;0.5;0.75;0.25;0.25;1.0;0.25;0.0;-0.252441;0.033691;0.969727;-0.91;-1.05;0.91;262.0;-0.25108;-0.090265
3.19;9.0;7.5;7.5;4.25;0.25;0.0;0.5;0.0;2.75;0.25;0.25;0.0;0.0;2.25;0.25;0.0;-0.23291;0.007324;0.987793;-0.49;0.49;0.56;400.0;-0.225115;0.028854;3.0;7.75;3.0;5.5;0.5;1.0;0.0;0.0;0.25;0.5;0.75;0.25;0.25;0.75;0.0;0.0;-0.254883;0.029297;0.968262;-0.84;-1.05;0.77;263.0;-0.264291;-0.091718
3.2;9.0;7.75;7.5;4.25;0.25;0.0;0.5;0.0;2.5;0.25;0.25;0.0;0.0;2.0;0.25;0.0;-0.229004;0.007812;0.988281;-0.35;0.42;0.56;396.0;-0.234409;0.024529;3.0;8.0;3.0;5.5;0.5;1.0;0.0;0.25;0.25;0.5;0.75;0.5;0.25;0.75;0.0;0.25;-0.252441;0.029297;0.974121;-0.91;-1.05;0.84;274.0;-0.253491;-0.100317
3.21;9.25;7.5;7.5;4.25;0.25;0.0;0.25;0.0;2.5;0.25;0.25;0.25;0.0;2.0;0.25;0.0;-0.23584;0.012695;0.993164;-0.49;0.35;0.63;396.0;-0.234502;0.021742;3.0;8.0;2.75;5.5;0.25;0.75;0.0;0.25;0.25;0.5;0.75;0.5;0.0;1.0;0.25;0.25;-0.257812;0.030273;0.974121;-0.91;-0.98;0.77;267.0;-0.246774;-0.096584
3.22;9.0;7.5;7.75;4.0;0.25;0.0;0.25;0.0;2.5;0.25;0.25;0.0;0.0;1.75;0.25;0.0;-0.232422;0.007324;0.986328;-0.63;0.49;0.7;388.0;-0.240276;0.024972;3.0;8.0;3.0;5.5;0.25;0.5;0.0;0.25;0.25;0.5;0.75;0.25;0.0;1.0;0.25;0.0;-0.25293;0.026855;0.972168;-0.84;-0.91;0.77;263.0;-0.256472;-0.089037
3.23;9.0;7.5;7.75;4.25;0.5;0.0;0.25;0.0;2.5;0.25;0.5;0.0;0.0;1.75;0.5;0.0;-0.229492;0.013672;0.987305;-0.56;0.49;0.63;399.0;-0.231778;0.021592;3.0;8.0;3.0;5.5;0.25;0.75;0.0;0.25;0.25;0.5;0.75;0.25;0.25;0.75;0.25;0.0;-0.256348;0.032227;0.966797;-0.84;-1.05;0.84;266.0;-0.257375;-0.096716
3.24;9.0;7.5;7.5;4.25;0.25;0.0;0.25;0.0;2.5;0.25;0.5;0.0;0.0;2.0;0.5;0.0;-0.22998;0.01123;0.983887;-0.42;0.49;0.56;396.0;-0.228544;0.021685;3.0;8.0;3.0;5.5;0.25;1.0;0.0;0.25;0.25;0.5;0.75;0.25;0.25;1.0;0.25;0.0;-0.25293;0.030273;0.967285;-0.91;-0.98;0.77;271.0;-0.250493;-0.0963
3.25;9.25;7.5;7.5;4.0;0.25;0.0;0.25;0.0;2.5;0.25;0.25;0.0;0.0;2.0;0.5;0.0;-0.230957;0.007812;0.981934;-0.49;0.56;0.56;393.0;-0.232664;0.025199;3.25;8.0;3.0;5.5;0.25;0.75;0.0;0.25;0.25;0.5;0.75;0.25;0.25;1.0;0.5;0.0;-0.25293;0.032715;0.965332;-0.84;-0.98;0.77;274.0;-0.246255;-0.092119
3.26;9.5;7.5;7.5;4.25;0.25;0.0;0.25;0.0;2.5;0.25;0.25;0.0;0.0;1.75;0.25;0.0;-0.231934;0.005859;0.990234;-0.42;0.49;0.56;393.0;-0.242788;0.023777;2.75;8.0;3.0;5.5;0.25;0.75;0.0;0.0;0.25;0.5;0.75;0.5;0.25;1.0;0.25;0.0;-0.258789;0.037109;0.976562;-0.77;-0.91;0.7;264.0;-0.248703;-0.094025
3.27;9.25;7.5;7.5;4.5;0.25;0.0;0.25;0.0;2.5;0.25;0.25;0.0;0.0;1.5;0.25;0.0;-0.230957;0.007812;0.986328;-0.56;0.56;0.63;391.0;-0.24586;0.02034;3.0;8.25;3.0;5.5;0.25;1.0;0.0;0.0;0.25;0.5;0.75;0.75;0.25;1.25;0.25;0.25;-0.261719;0.019531;0.968262;-0.91;-0.91;0.77;279.0;-0.237309;-0.09551
3.28;9.5;8.0;7.5;4.25;0.25;0.0;0.25;0.0;2.75;0.5;0.5;0.0;0.0;1.75;0.25;0.0;-0.234375;0.01123;0.988281;-0.56;0.42;0.63;408.0;-0.233898;0.022926;3.0;8.25;3.0;5.5;0.25;0.75;0.0;0.0;0.25;0.5;0.75;0.5;0.25;1.25;0.0;0.25;-0.25293;0.022461;0.966309;-0.84;-0.84;0.7;271.0;-0.249828;-0.091572
3.29;9.25;7.5;7.5;4.25;0.25;0.0;0.25;0.0;2.5;0.5;0.5;0.0;0.0;2.0;0.25;0.0;-0.228516;0.004395;0.990234;-0.56;0.42;0.49;398.0;-0.231017;0.023353;3.0;7.75;3.0;5.5;0.25;0.75;0.0;0.0;0.25;0.5;0.75;0.25;0.25;1.0;0.0;0.25;-0.25293;0.027832;0.969727;-0.91;-0.91;0.63;260.0;-0.257584;-0.090271
3.3;9.25;7.5;7.5;4.25;0.25;0.0;0.25;0.0;2.5;0.25;0.5;0.0;0.0;2.0;0.25;0.0;-0.23291;0.007812;0.988281;-0.56;0.49;0.56;396.0;-0.234404;0.023061;3.0;8.0;3.0;5.5;0.25;1.0;0.0;0.0;0.25;0.5;0.75;0.25;0.25;1.0;0.0;0.0;-0.254395;0.02832;0.975098;-0.91;-1.12;0.77;264.0;-0.261378;-0.091799
3.31;9.0;7.75;7.75;4.25;0.25;0.0;0.25;0.0;2.5;0.25;0.25;0.0;0.0;1.75;0.25;0.0;-0.226562;0.016113;0.97998;-0.56;0.49;0.56;393.0;-0.241768;0.021842;3.0;7.75;3.0;5.5;0.5;1.0;0.0;0.25;0.25;0.5;0.75;0.25;0.25;1.0;0.0;0.0;-0.253906;0.032227;0.973145;-0.7;-0.91;0.7;269.0;-0.254551;-0.094038
3.32;9.0;7.25;7.75;4.25;0.5;0.0;0.25;0.0;2.5;0.25;0.25;0.25;0.0;1.75;0.25;0.0;-0.230957;0.014648;0.98584;-0.7;0.42;0.56;394.0;-0.235345;0.022223;3.0;7.75;2.75;5.5;0.5;0.75;0.0;0.25;0.25;0.5;0.75;0.25;0.0;1.0;0.0;0.25;-0.255371;0.026367;0.978027;-0.77;-0.84;0.7;262.0;-0.255918;-0.092079
3.33;9.25;7.75;7.75;4.25;0.25;0.0;0.25;0.0;2.5;0.5;0.25;0.0;0.0;2.0;0.25;0.0;-0.231445;0.008301;0.985352;-0.7;0.42;0.49;401.0;-0.235704;0.023656;3.0;7.25;3.0;5.5;0.25;0.75;0.0;0.25;0.25;0.5;0.75;0.25;0.0;1.0;0.0;0.25;-0.256348;0.029297;0.96875;-0.84;-0.98;0.77;257.0;-0.254404;-0.090265
3.34;9.25;7.75;7.0;4.25;0.25;0.0;0.25;0.0;2.5;0.25;0.25;0.0;0.0;1.75;0.5;0.0;-0.237793;0.009766;0.987305;-0.63;0.42;0.56;390.0;-0.237607;0.020126;3.25;7.75;3.0;5.5;0.25;0.75;0.0;0.25;0.25;0.5;0.75;0.25;0.25;1.0;0.0;0.0;-0.244629;0.027344;0.975098;-0.84;-0.98;0.84;266.0;-0.258738;-0.091631
3.35;9.25;7.5;7.25;4.25;0.25;0.0;0.25;0.0;2.5;0.0;0.25;0.0;0.0;2.0;0.5;0.0;-0.22998;0.01123;0.991211;-0.56;0.28;0.77;390.0;-0.236281;0.022491;3.25;7.75;3.0;5.5;0.25;1.0;0.0;0.25;0.5;0.5;0.75;0.25;0.25;1.0;0.0;0.0;-0.256836;0.025879;0.96875;-0.84;-1.05;0.84;272.0;-0.250812;-0.088806
3.36;9.25;7.75;7.5;4.25;0.25;0.0;0.25;0.0;2.5;0.25;0.25;0.0;0.0;2.0;0.25;0.0;-0.231934;0.003906;0.984375;-0.7;0.35;0.56;395.0;-0.238898;0.022861;3.0;8.0;3.0;5.5;0.25;1.0;0.0;0.25;0.25;0.5;0.75;0.25;0.25;1.0;0.0;0.0;-0.251953;0.03125;0.969727;-0.77;-0.91;0.77;269.0;-0.257517;-0.096451
3.37;9.5;8.0;7.5;4.25;0.25;0.0;0.25;0.0;2.5;0.25;0.25;0.0;0.0;2.0;0.25;0.0;-0.237305;0.009766;0.987793;-0.7;0.42;0.63;401.0;-0.241178;0.022279;3.0;7.75;3.0;5.5;0.25;0.75;0.0;0.0;0.25;0.5;0.75;0.25;0.25;1.0;0.0;0.0;-0.251953;0.033203;0.96875;-0.7;-1.05;0.84;259.0;-0.261121;-0.088995
3.38;9.5;7.75;7.75;4.25;0.25;0.0;0.25;0.0;2.75;0.25;0.25;0.0;0.0;1.5;0.25;0.0;-0.230469;0.010742;0.98291;-0.84;0.49;0.56;400.0;-0.243396;0.024426;3.0;7.75;3.0;5.5;0.5;0.75;0.0;0.0;0.25;0.5;0.75;0.25;0.0;1.0;0.25;0.0;-0.256836;0.030273;0.974121;-0.7;-0.98;0.84;262.0;-0.256126;-0.083857
3.39;9.25;7.75;7.75;4.25;0.25;0.0;0.25;0.0;2.75;0.25;0.25;0.0;0.0;2.0;0.25;0.0;-0.231445;0.011719;0.991699;-0.77;0.56;0.56;402.0;-0.234692;0.025602;3.0;7.75;3.0;5.5;0.25;0.75;0.0;0.25;0.25;0.5;0.75;0.25;0.25;1.0;0.25;0.0;-0.249023;0.033691;0.969727;-0.77;-0.98;0.77;266.0;-0.250017;-0.093663
3.4;9.5;7.75;7.25;4.25;0.25;0.0;0.25;0.0;2.5;0.25;0.0;0.0;0.0;2.25;0.25;0.0;-0.233887;0.007324;0.982422;-0.7;0.49;0.56;394.0;-0.239408;0.024882;3.0;7.75;3.0;5.5;0.25;1.0;0.0;0.25;0.25;0.5;0.75;0.25;0.0;1.0;0.25;0.25;-0.254395;0.024902;0.97168;-0.7;-0.98;0.7;268.0;-0.249242;-0.093633
3.41;9.5;7.5;7.25;4.5;0.25;0.0;0.25;0.0;2.5;0.25;0.25;0.25;0.0;2.25;0.5;0.0;-0.234375;0.003418;0.982422;-0.84;0.63;0.49;404.0;-0.227563;0.02017;3.25;7.75;3.0;5.5;0.25;1.0;0.0;0.25;0.25;0.5;0.75;0.25;0.0;0.75;0.25;0.25;-0.25293;0.028809;0.970703;-0.7;-0.98;0.84;269.0;-0.256586;-0.093845
3.42;9.0;7.5;7.5;4.25;0.25;0.0;0.25;0.0;2.5;0.5;0.25;0.25;0.0;2.25;0.5;0.0;-0.229004;0.006836;0.982422;-0.7;0.63;0.56;401.0;-0.221602;0.021586;3.0;8.0;2.75;5.5;0.25;1.0;0.0;0.25;0.25;0.5;1.0;0.25;0.0;0.75;0.25;0.0;-0.253418;0.035645;0.97168;-0.77;-0.98;0.84;267.0;-0.254693;-0.097793
3.43;9.25;6.75;7.75;4.25;0.25;0.0;0.25;0.0;2.5;0.25;0.5;0.0;0.0;2.0;0.25;0.0;-0.236816;0.009277;0.984375;-0.63;0.35;0.56;391.0;-0.231123;0.027236;2.5;8.0;3.0;5.5;0.25;0.75;0.0;0.25;0.25;0.5;0.75;0.25;0.0;1.0;0.25;0.0;-0.253906;0.037109;0.970215;-0.77;-0.98;0.98;260.0;-0.252091;-0.095436
3.44;9.0;7.5;7.75;4.25;0.25;0.0;0.25;0.0;2.5;0.25;0.5;0.0;0.0;2.25;0.25;0.0;-0.232422;0.007812;0.984863;-0.7;0.63;0.49;398.0;-0.229669;0.02386;2.5;7.75;3.0;5.5;0.25;0.75;0.0;0.25;0.25;0.25;0.75;0.25;0.25;1.0;0.5;0.0;-0.256836;0.027344;0.970215;-0.77;-0.98;0.84;260.0;-0.244797;-0.099659
3.45;9.25;8.0;8.0;4.25;0.25;0.0;0.25;0.0;2.5;0.25;0.5;0.0;0.0;2.25;0.25;0.0;-0.229492;0.004883;0.98877;-0.7;0.56;0.56;409.0;-0.233442;0.022595;3.0;7.75;2.75;5.5;0.25;0.75;0.0;0.25;0.5;0.25;0.75;0.25;0.25;1.0;0.25;0.0;-0.254395;0.032715;0.976562;-0.7;-0.98;0.77;264.0;-0.248255;-0.092485
3.46;9.0;8.25;8.0;4.25;0.25;0.0;0.25;0.0;2.5;0.5;0.25;0.25;0.0;2.25;0.25;0.0;-0.234375;0.006836;0.983887;-0.77;0.56;0.56;412.0;-0.230218;0.019863;3.0;8.0;3.0;5.5;0.25;0.75;0.0;0.25;0.25;0.25;0.75;0.25;0.25;0.75;0.0;0.0;-0.252441;0.030273;0.970703;-0.84;-0.91;0.77;260.0;-0.270128;-0.098629
3.47;9.0;8.0;8.0;4.5;0.25;0.0;0.25;0.0;2.75;0.5;0.25;0.0;0.0;1.25;0.25;0.0;-0.22998;0.012207;0.985352;-0.84;0.63;0.42;403.0;-0.243097;0.020084;3.0;8.0;3.0;5.5;0.25;0.75;0.0;0.25;0.25;0.5;0.5;0.25;0.25;0.75;0.0;0.0;-0.253418;0.033203;0.975098;-0.77;-0.98;0.77;260.0;-0.270004;-0.096665
3.48;9.25;7.75;7.75;4.25;0.5;0.0;0.25;0.0;2.75;0.5;0.25;0.0;0.0;1.25;0.25;0.0;-0.235352;0.012695;0.985352;-0.77;0.56;0.56;401.0;-0.241751;0.023498;3.0;7.75;3.0;5.5;0.25;0.75;0.0;0.0;0.25;0.5;0.5;0.25;0.25;0.75;0.5;0.0;-0.253418;0.026855;0.966797;-0.7;-1.05;0.84;259.0;-0.257741;-0.090934
3.49;9.5;7.25;7.75;4.25;0.25;0.0;0.25;0.0;2.5;0.5;0.25;0.0;0.0;1.75;0.25;0.0;-0.234375;0.007812;0.986328;-0.77;0.49;0.63;397.0;-0.238394;0.025775;3.25;8.0;3.0;5.5;0.25;1.0;0.0;0.0;0.5;0.5;0.75;0.25;0.0;1.0;0.5;0.0;-0.25293;0.027832;0.972168;-0.7;-1.05;0.91;274.0;-0.245799;-0.081575
3.5;9.25;7.75;7.75;4.25;0.25;0.0;0.25;0.0;2.5;0.5;0.25;0.0;0.0;2.5;0.25;0.0;-0.231445;0.010254;0.986816;-0.7;0.42;0.63;406.0;-0.228286;0.02542;3.0;8.0;3.0;5.5;0.5;0.75;0.0;0.0;0.25;0.5;0.75;0.25;0.0;0.75;0.0;0.0;-0.258789;0.030273;0.975098;-0.63;-1.12;0.84;260.0;-0.270985;-0.087011
3.51;9.25;8.0;7.75;4.25;0.5;0.0;0.25;0.0;2.5;0.25;0.5;0.0;0.0;2.0;0.25;0.0;-0.230957;0.009277;0.981445;-0.63;0.56;0.56;407.0;-0.236092;0.021496;3.0;8.0;3.0;5.5;0.5;0.75;0.0;0.0;0.25;0.5;0.75;0.25;0.25;0.75;0.0;0.25;-0.255371;0.031738;0.970703;-0.7;-0.98;0.84;264.0;-0.263501;-0.091631
3.52;9.75;7.5;7.75;4.25;0.5;0.0;0.25;0.0;2.5;0.25;0.25;0.0;0.0;1.75;0.25;0.0;-0.236816;0.010742;0.980469;-0.63;0.49;0.56;402.0;-0.243213;0.025153;3.0;8.0;3.0;5.5;0.25;0.75;0.0;0.25;0.25;0.5;0.75;0.25;0.25;1.0;0.0;0.0;-0.25293;0.032227;0.97168;-0.63;-1.05;0.84;266.0;-0.258697;-0.094474
3.53;9.75;7.75;7.75;4.25;0.25;0.0;0.25;0.0;2.5;0.25;0.25;0.25;0.0;1.75;0.25;0.0;-0.231934;0.006348;0.984863;-0.7;0.56;0.56;404.0;-0.241946;0.021404;3.0;8.0;3.0;5.5;0.25;0.75;0.0;0.25;0.25;0.5;0.75;0.25;0.25;1.0;0.0;0.0;-0.256348;0.030762;0.965332;-0.63;-0.91;0.84;266.0;-0.258697;-0.094474
3.54;9.5;7.75;7.75;4.25;0.25;0.0;0.25;0.0;2.5;0.25;0.25;0.0;0.0;2.0;0.0;0.0;-0.235352;0.002441;0.979492;-0.63;0.35;0.7;398.0;-0.244923;0.024736;3.0;8.0;3.0;5.5;0.25;0.75;0.0;0.25;0.25;0.5;1.0;0.25;0.0;1.0;0.0;0.0;-0.254395;0.029297;0.975586;-0.7;-1.05;0.91;266.0;-0.257276;-0.091455
3.55;9.5;7.75;7.75;4.25;0.5;0.0;0.25;0.0;2.5;0.25;0.5;0.0;0.0;1.75;0.25;0.0;-0.231445;0.008301;0.985352;-0.56;0.49;0.63;405.0;-0.239858;0.022379;3.0;8.25;3.0;5.5;0.25;0.75;0.0;0.25;0.25;0.5;0.75;0.25;0.25;1.0;0.0;0.0;-0.252441;0.029297;0.971191;-0.7;-0.91;0.84;268.0;-0.260182;-0.095148
3.56;9.5;7.75;7.75;4.25;0.25;0.0;0.25;0.0;2.5;0.5;0.5;0.25;0.0;1.25;0.5;0.0;-0.233398;0.009277;0.985352;-0.63;0.49;0.56;406.0;-0.237042;0.017602;3.25;8.25;3.0;5.5;0.5;0.75;0.0;0.25;0.25;0.5;0.75;0.25;0.0;1.0;0.0;0.0;-0.253418;0.02832;0.969727;-0.7;-0.91;0.84;272.0;-0.263907;-0.088116
3.57;9.5;8.0;7.75;4.25;0.25;0.0;0.25;0.0;2.5;0.25;0.5;0.0;0.0;1.75;0.5;0.0;-0.234863;0.010254;0.98584;-0.49;0.56;0.63;407.0;-0.237237;0.020188;3.25;8.25;3.0;5.75;0.25;0.75;0.0;0.25;0.25;0.5;0.75;0.25;0.25;1.0;0.0;0.0;-0.254395;0.028809;0.969727;-0.63;-0.98;0.84;274.0;-0.26196;-0.094462
3.58;9.5;7.75;8.0;4.25;0.5;0.0;0.25;0.0;2.5;0.25;0.25;0.0;0.0;2.0;0.5;0.0;-0.265137;0.027344;0.995605;-0.49;0.49;0.56;410.0;-0.235077;0.02399;3.25;8.25;3.25;6.25;0.25;0.75;0.0;0.25;0.25;0.25;0.75;0.25;0.25;0.75;0.0;0.0;-0.253906;0.025879;0.970703;-0.56;-0.91;0.91;278.0;-0.273328;-0.099153
3.59;9.5;8.0;8.0;4.25;0.25;0.0;0.25;0.0;2.5;0.25;0.25;0.0;0.0;2.25;0.25;0.0;-0.231445;0.004395;0.98877;-0.56;0.35;0.56;409.0;-0.23783;0.024161;3.0;8.25;2.75;5.5;0.25;0.75;0.0;0.25;0.25;0.25;0.5;0.25;0.25;0.75;0.0;0.0;-0.255859;0.03418;0.977051;-0.63;-0.98;0.77;257.0;-0.277141;-0.101329
3.6;9.25;8.0;7.75;4.25;0.25;0.0;0.25;0.0;2.75;0.25;0.25;0.0;0.0;2.0;0.25;0.0;-0.226074;0.01416;0.98584;-0.56;0.42;0.56;404.0;-0.235826;0.024407;3.0;8.25;2.75;5.5;0.25;0.75;0.0;0.25;0.25;0.5;0.5;0.25;0.25;0.75;0.0;0.0;-0.257812;0.030273;0.966797;-0.7;-0.91;0.91;260.0;-0.27148;-0.099522
3.61;9.5;7.75;7.75;4.25;0.25;0.0;0.25;0.0;2.5;0.25;0.25;0.0;0.0;1.75;0.25;0.0;-0.22998;0.008301;0.991211;-0.56;0.49;0.63;399.0;-0.24406;0.023077;3.0;7.75;2.75;5.5;0.25;1.0;0.0;0.25;0.25;0.5;0.5;0.25;0.25;0.5;0.0;0.0;-0.258789;0.011719;0.974609;-0.63;-1.05;0.84;255.0;-0.273442;-0.102744
3.62;9.25;7.75;7.75;4.25;0.25;0.0;0.25;0.0;2.25;0.5;0.25;0.0;0.0;1.75;0.25;0.0;-0.229492;0.004395;0.984863;-0.49;0.42;0.63;395.0;-0.243965;0.020483;3.0;8.25;3.0;5.5;0.25;1.0;0.0;0.25;0.25;0.5;0.75;0.25;0.25;0.5;0.0;0.0;-0.249512;0.032227;0.975586;-0.63;-0.98;0.84;266.0;-0.2707;-0.101887
3.63;9.25;7.75;7.75;4.25;0.25;0.0;0.25;0.0;2.5;0.5;0.25;0.0;0.0;1.75;0.25;0.0;-0.226562;0.007812;0.98291;-0.49;0.35;0.49;399.0;-0.239477;0.022759;3.0;8.25;2.75;5.5;0.25;1.0;0.0;0.25;0.25;0.5;0.5;0.5;0.25;0.75;0.0;0.0;-0.254883;0.03125;0.96875;-0.56;-1.05;0.77;266.0;-0.264932;-0.103587
3.64;9.75;8.0;8.0;4.25;0.5;0.0;0.25;0.0;2.5;0.25;0.25;0.0;0.0;1.75;0.25;0.0;-0.234375;0.010254;0.979492;-0.49;0.35;0.49;410.0;-0.24551;0.023279;3.0;8.25;2.75;5.5;0.25;1.0;0.0;0.25;0.25;0.5;0.75;0.5;0.25;0.75;0.0;0.0;-0.251953;0.030762;0.966797;-0.63;-0.91;0.84;269.0;-0.259705;-0.103719
3.65;9.5;8.0;8.0;4.25;0.5;0.0;0.25;0.0;2.5;0.25;0.25;0.0;0.0;1.75;0.25;0.0;-0.23584;0.009277;0.989258;-0.49;0.28;0.56;407.0;-0.244414;0.022684;3.25;8.25;3.0;5.5;0.25;1.0;0.0;0.25;0.25;0.5;0.75;0.75;0.25;0.75;0.0;0.0;-0.253418;0.032227;0.975098;-0.63;-0.91;0.84;277.0;-0.256362;-0.10142
3.66;9.25;8.0;8.0;4.25;0.5;0.0;0.25;0.0;2.5;0.5;0.25;0.0;0.0;1.75;0.25;0.0;-0.23291;0.012695;0.98584;-0.63;0.42;0.49;407.0;-0.239927;0.022373;3.25;8.25;3.0;6.0;0.25;1.0;0.0;0.25;0.25;0.5;0.75;0.25;0.25;1.0;0.25;0.0;-0.250488;0.030273;0.96875;-0.63;-0.91;0.77;283.0;-0.254289;-0.097598
3.67;9.75;8.25;8.0;4.25;0.25;0.0;0.25;0.0;2.5;0.5;0.25;0.0;0.0;2.0;0.25;0.0;-0.231445;0.004883;0.984375;-0.7;0.49;0.49;415.0;-0.240407;0.022996;3.25;8.25;3.25;6.25;0.25;1.0;0.0;0.25;0.5;0.5;0.75;0.25;0.25;1.0;0.25;0.0;-0.249023;0.028809;0.972168;-0.63;-0.98;0.84;292.0;-0.2485;-0.092403
3.68;9.5;8.0;8.0;4.25;0.5;0.0;0.25;0.0;2.5;0.5;0.25;0.0;0.0;2.0;0.25;0.0;-0.23291;0.008301;0.98877;-0.63;0.35;0.56;412.0;-0.237376;0.023841;3.0;8.25;2.75;5.5;0.25;1.0;0.0;0.25;0.5;0.5;0.75;0.25;0.25;1.0;0.25;0.0;-0.248047;0.03125;0.969727;-0.7;-0.91;0.7;274.0;-0.245247;-0.094174
3.69;9.5;8.0;8.0;4.25;0.5;0.0;0.25;0.0;2.75;0.25;0.25;0.0;0.0;2.0;0.25;0.0;-0.22998;0.009277;0.981934;-0.49;0.35;0.49;413.0;-0.236389;0.025733;3.0;8.25;2.75;5.5;0.25;0.75;0.0;0.25;0.25;0.5;0.75;0.25;0.0;0.75;0.25;0.0;-0.255859;0.03418;0.969727;-0.63;-0.98;0.77;263.0;-0.262624;-0.096271
3.7;9.5;7.25;8.0;4.25;0.5;0.0;0.25;0.0;2.5;0.0;0.25;0.0;0.0;2.0;0.25;0.0;-0.231445;0.007812;0.980957;-0.35;0.35;0.42;399.0;-0.240783;0.026868;3.0;8.0;2.75;5.5;0.25;0.75;0.0;0.25;0.25;0.5;0.75;0.25;0.0;0.5;0.0;0.0;-0.249023;0.033203;0.971191;-0.56;-0.84;0.7;256.0;-0.274757;-0.098229
3.71;9.25;7.5;8.0;4.25;0.5;0.0;0.25;0.0;2.5;0.25;0.25;0.0;0.0;2.0;0.25;0.0;-0.23291;0.004395;0.98584;-0.35;0.35;0.49;402.0;-0.237338;0.025341;3.0;7.75;2.75;5.5;0.25;0.75;0.0;0.25;0.25;0.5;0.75;0.25;0.25;0.5;0.25;0.25;-0.251953;0.032715;0.975586;-0.7;-0.84;0.7;260.0;-0.258198;-0.101915
3.72;9.25;7.75;8.0;4.25;0.5;0.0;0.5;0.0;2.75;0.0;0.25;0.0;0.0;2.25;0.0;0.0;-0.231445;0.009277;0.986816;-0.42;0.42;0.49;409.0;-0.235077;0.029881;2.75;8.0;3.0;5.5;0.25;1.0;0.0;0.25;0.25;0.5;0.75;0.5;0.25;0.75;0.0;0.0;-0.259766;0.028809;0.972168;-0.63;-0.84;0.7;266.0;-0.256759;-0.103175
3.73;9.25;7.25;8.0;4.25;0.5;0.0;0.25;0.0;2.75;0.0;0.25;0.25;0.0;2.25;0.25;0.0;-0.229004;0.006348;0.986328;-0.42;0.49;0.49;405.0;-0.228319;0.027047;3.0;8.0;3.0;5.5;0.25;1.0;0.0;0.25;0.25;0.5;0.75;0.25;0.25;0.75;0.0;0.25;-0.255859;0.030762;0.966797;-0.63;-0.7;0.7;268.0;-0.259908;-0.100028
3.74;9.0;7.5;8.0;4.25;0.5;0.0;0.5;0.0;2.75;0.25;0.25;0.25;0.0;2.25;0.25;0.0;-0.235352;0.012207;0.993652;-0.42;0.49;0.49;412.0;-0.221949;0.027712;3.25;7.75;3.0;5.5;0.25;0.75;0.0;0.25;0.25;0.5;0.75;0.25;0.25;0.75;0.0;0.5;-0.254395;0.027832;0.969238;-0.63;-0.77;0.7;267.0;-0.257701;-0.096442
3.75;9.25;7.5;8.0;4.25;0.5;0.0;0.5;0.0;2.75;0.5;0.25;0.0;0.0;2.25;0.0;0.0;-0.230469;0.009766;0.98877;-0.63;0.56;0.35;412.0;-0.227401;0.03155;3.0;7.5;3.0;5.5;0.25;1.0;0.0;0.25;0.25;0.5;0.75;0.25;0.25;1.0;0.25;0.25;-0.256348;0.029297;0.973633;-0.56;-0.7;0.63;268.0;-0.243986;-0.096186
3.76;9.25;7.5;8.0;4.25;0.5;0.0;0.5;0.0;2.75;0.25;0.25;0.0;0.0;2.25;0.25;0.0;-0.232422;0.008789;0.987305;-0.49;0.28;0.63;412.0;-0.22621;0.030536;3.25;7.5;3.25;5.5;0.25;1.0;0.0;0.25;0.25;0.5;0.75;0.25;0.25;1.0;0.0;0.0;-0.255859;0.030273;0.969238;-0.63;-0.77;0.63;269.0;-0.256161;-0.090887
3.77;9.25;7.5;7.75;4.25;0.5;0.0;0.5;0.0;2.75;0.25;0.25;0.0;0.0;2.5;0.25;0.0;-0.231934;0.013184;0.984375;-0.49;0.35;0.49;411.0;-0.222311;0.030931;3.0;7.25;3.0;5.5;0.5;1.0;0.0;0.25;0.25;0.5;0.75;0.25;0.25;0.5;0.0;0.0;-0.25293;0.032715;0.97168;-0.63;-0.77;0.63;259.0;-0.263343;-0.0975
3.78;9.0;7.25;7.75;4.25;0.5;0.0;0.5;0.0;2.75;0.25;0.25;0.25;0.0;2.25;0.25;0.0;-0.239258;0.013672;0.985352;-0.63;0.42;0.56;406.0;-0.220414;0.028453;2.75;7.25;3.0;5.5;0.25;1.0;0.0;0.25;0.25;0.5;0.75;0.5;0.25;0.5;0.25;0.0;-0.253418;0.032227;0.973633;-0.63;-0.77;0.7;259.0;-0.250744;-0.103621
3.79;8.75;7.5;7.75;4.25;0.25;0.0;0.5;0.0;2.75;0.25;0.25;0.0;0.0;2.25;0.25;0.0;-0.227051;0.008789;0.990234;-0.56;0.49;0.42;400.0;-0.224163;0.028748;2.75;7.25;3.0;5.5;0.25;1.0;0.0;0.25;0.5;0.5;1.0;0.25;0.25;0.75;0.0;0.0;-0.256836;0.033691;0.978516;-0.63;-0.77;0.77;262.0;-0.245007;-0.094237
3.8;9.0;7.5;7.75;4.25;0.25;0.0;0.5;0.0;2.75;0.25;0.25;0.0;0.0;2.25;0.25;0.0;-0.239746;0.009766;0.97998;-0.56;0.28;0.42;403.0;-0.225421;0.029311;3.0;7.25;3.0;5.5;0.25;1.0;0.0;0.25;0.5;0.5;1.0;0.25;0.25;1.0;0.25;0.0;-0.252441;0.030273;0.969238;-0.7;-0.84;0.77;270.0;-0.234095;-0.089649
3.81;9.0;7.75;8.0;4.25;0.5;0.0;0.5;0.0;2.75;0.25;0.25;0.0;0.0;2.25;0.5;0.0;-0.23291;0.005371;0.986816;-0.7;0.42;0.56;414.0;-0.221775;0.028025;3.0;7.0;2.75;5.25;0.25;1.0;0.0;0.25;0.5;0.5;1.0;0.25;0.25;1.0;0.25;0.0;-0.254395;0.032715;0.967285;-0.7;-0.91;0.7;262.0;-0.231359;-0.089448
3.82;9.5;7.5;8.0;4.5;0.5;0.0;0.5;0.0;3.0;0.25;0.5;0.0;0.0;2.25;0.25;0.0;-0.229004;0.007812;0.984375;-0.35;0.21;0.49;424.0;-0.220706;0.030321;2.5;7.25;2.75;5.25;0.25;1.0;0.0;0.25;0.5;0.5;1.0;0.25;0.25;1.0;0.25;0.0;-0.250977;0.031738;0.968262;-0.77;-0.91;0.77;259.0;-0.229402;-0.094535
3.83;9.5;7.5;8.0;4.25;0.25;0.0;0.5;0.0;2.75;0.25;0.25;0.0;0.0;2.25;0.0;0.0;-0.231445;0.013184;0.98291;-0.35;0.28;0.42;409.0;-0.232621;0.031642;2.375;7.25;2.75;5.375;0.25;1.0;0.0;0.25;0.375;0.5;1.0;0.25;0.25;1.0;0.375;0.0;-0.25219749999999996;0.031494;0.9714354999999999;-0.735;-0.875;0.735;258.5;-0.228615;-0.098895
3.84;8.75;7.5;8.0;4.25;0.25;0.0;0.5;0.0;2.75;0.25;0.25;0.0;0.0;2.25;0.25;0.0;-0.228516;0.005859;0.979004;-0.42;0.42;0.49;403.0;-0.224476;0.029206;2.25;7.25;2.75;5.5;0.25;1.0;0.0;0.25;0.25;0.5;1.0;0.25;0.25;1.0;0.5;0.0;-0.253418;0.03125;0.974609;-0.7;-0.84;0.7;258.0;-0.227828;-0.103255
3.85;8.5;7.0;7.5;4.25;0.25;0.0;0.5;0.0;3.0;0.25;0.25;0.0;0.0;2.5;0.5;0.0;-0.23291;0.013672;0.980957;-0.42;0.49;0.42;398.0;-0.207551;0.03246;2.5;7.25;2.75;5.5;0.25;1.0;0.0;0.25;0.5;0.25;1.0;0.5;0.25;1.0;0.0;0.0;-0.253906;0.029297;0.977051;-0.7;-0.77;0.7;259.0;-0.237411;-0.10016
3.86;8.5;7.25;7.75;4.25;0.25;0.0;0.5;0.0;3.0;0.25;0.25;0.0;0.0;2.5;0.25;0.0;-0.231445;0.012207;0.988281;-0.56;0.49;0.49;401.0;-0.213708;0.032463;2.75;7.0;3.0;5.5;0.0;0.75;0.0;0.25;0.25;0.25;1.0;0.25;0.25;1.0;0.0;0.0;-0.26123;0.030762;0.973145;-0.77;-0.7;0.84;250.0;-0.252413;-0.097804
3.87;8.75;7.25;7.75;4.25;0.5;0.0;0.5;0.0;3.25;0.25;0.25;0.0;0.0;2.25;0.0;0.0;-0.23291;0.008789;0.990234;-0.42;0.42;0.49;405.0;-0.218215;0.035326;2.75;7.0;3.0;5.5;0.25;0.75;0.0;0.25;0.5;0.25;1.0;0.5;0.25;1.0;0.25;0.0;-0.252441;0.027832;0.971191;-0.77;-0.84;0.77;262.0;-0.231715;-0.092905
3.88;9.25;7.25;7.75;4.25;0.5;0.0;0.5;0.0;3.25;0.5;0.25;0.0;0.0;2.5;0.25;0.0;-0.229492;0.011719;0.986328;-0.49;0.35;0.63;419.0;-0.209818;0.036501;2.75;7.0;3.0;5.5;0.25;0.75;0.0;0.25;0.5;0.375;1.0;0.375;0.25;1.0;0.25;0.0;-0.25366200000000005;0.029052500000000002;0.9707030000000001;-0.8400000000000001;-0.875;0.77;262.0;-0.231578;-0.09094050000000001
3.89;9.5;7.25;7.75;4.25;0.25;0.0;0.5;0.0;3.0;0.25;0.25;0.0;0.0;2.25;0.25;0.0;-0.23291;0.005371;0.984375;-0.49;0.42;0.42;410.0;-0.222495;0.033752;2.75;7.0;3.0;5.5;0.25;0.75;0.0;0.25;0.5;0.5;1.0;0.25;0.25;1.0;0.25;0.0;-0.254883;0.030273;0.970215;-0.91;-0.91;0.77;262.0;-0.231441;-0.088976
3.9;9.0;7.0;8.0;4.0;0.25;0.0;0.5;0.0;3.25;0.25;0.25;0.0;0.0;2.5;0.25;0.0;-0.228027;0.006836;0.980469;-0.56;0.49;0.56;407.0;-0.210803;0.039195;2.5;6.75;2.75;5.25;0.25;0.75;0.0;0.25;0.25;0.5;1.0;0.5;0.25;1.0;0.0;0.0;-0.253906;0.02832;0.969238;-0.77;-0.77;0.7;247.0;-0.235822;-0.098754
3.91;8.75;7.0;8.0;4.0;0.25;0.0;0.5;0.0;3.25;0.25;0.25;0.0;0.0;2.5;0.25;0.0;-0.23291;0.008789;0.98877;-0.63;0.35;0.49;405.0;-0.209457;0.038708;2.5;6.75;2.75;5.25;0.25;1.0;0.0;0.25;0.25;0.75;0.75;0.5;0.25;1.25;0.0;0.0;-0.250977;0.029297;0.973145;-0.77;-0.91;0.7;252.0;-0.228739;-0.096237
3.92;8.75;7.25;8.0;4.25;0.5;0.0;0.5;0.0;3.25;0.25;0.5;0.0;0.0;2.5;0.25;0.0;-0.232422;0.006836;0.984375;-0.77;0.56;0.49;416.0;-0.207675;0.034668;2.5;7.0;2.75;5.25;0.25;1.0;0.0;0.25;0.25;0.5;1.25;0.5;0.0;1.25;0.0;0.0;-0.250488;0.029785;0.973145;-0.91;-0.84;0.77;255.0;-0.229302;-0.09578
3.93;9.0;7.25;8.0;4.25;0.5;0.0;0.5;0.0;3.25;0.25;0.5;0.25;0.0;2.25;0.25;0.0;-0.230469;0.010742;0.986328;-0.77;0.49;0.49;419.0;-0.209565;0.032104;2.75;6.75;3.0;5.25;0.25;1.0;0.0;0.25;0.25;0.5;1.0;0.5;0.25;1.0;0.0;0.0;-0.252441;0.032227;0.969238;-0.84;-0.7;0.7;256.0;-0.237055;-0.096241
3.94;8.75;7.25;7.75;4.25;0.5;0.0;0.5;0.0;3.25;0.25;0.25;0.25;0.0;2.25;0.25;0.0;-0.22998;0.008789;0.98877;-0.84;0.63;0.49;411.0;-0.210849;0.032181;2.5;6.75;2.75;5.25;0.25;0.75;0.0;0.25;0.25;0.5;0.75;0.75;0.25;1.0;0.0;0.0;-0.253906;0.028809;0.973633;-0.77;-0.84;0.63;247.0;-0.235978;-0.10085
3.95;8.5;7.0;7.75;4.25;0.5;0.0;0.5;0.0;3.25;0.25;0.5;0.25;0.0;2.25;0.25;0.0;-0.236328;0.009766;0.98584;-0.77;0.56;0.49;408.0;-0.205183;0.031836;2.375;6.75;2.75;5.25;0.25;0.875;0.0;0.25;0.25;0.5;0.75;0.75;0.25;1.125;0.125;0.125;-0.253906;0.031006000000000002;0.970703;-0.8400000000000001;-0.84;0.665;250.5;-0.226216;-0.1022675
3.96;9.0;7.0;7.75;4.0;0.5;0.0;0.5;0.0;3.25;0.5;0.5;0.25;0.0;2.25;0.25;0.0;-0.234863;0.008789;0.98584;-0.77;0.63;0.49;414.0;-0.204234;0.034972;2.25;6.75;2.75;5.25;0.25;1.0;0.0;0.25;0.25;0.5;0.75;0.75;0.25;1.25;0.25;0.25;-0.253906;0.033203;0.967773;-0.91;-0.84;0.7;254.0;-0.216454;-0.103685
3.97;9.0;7.25;8.0;4.0;0.5;0.0;0.5;0.0;3.25;0.5;0.25;0.0;0.0;2.75;0.25;0.0;-0.234863;0.006348;0.97998;-0.63;0.7;0.49;418.0;-0.204902;0.039055;2.25;6.75;2.75;5.25;0.25;1.0;0.0;0.25;0.5;0.75;0.75;0.75;0.25;1.0;0.0;0.25;-0.250488;0.02832;0.973633;-0.84;-0.77;0.63;255.0;-0.217471;-0.09932
3.98;9.0;7.0;7.75;4.25;0.25;0.0;0.5;0.0;3.25;0.5;0.5;0.25;0.0;1.5;0.0;0.0;-0.233887;0.005859;0.98584;-0.63;0.56;0.56;404.0;-0.22042;0.031215;2.5;6.75;2.75;5.25;0.25;0.75;0.0;0.25;0.5;0.5;1.0;0.75;0.25;1.0;0.0;0.25;-0.25293;0.030762;0.974121;-0.84;-0.77;0.77;255.0;-0.220425;-0.09699
3.99;8.75;7.0;7.75;4.25;0.25;0.0;0.5;0.0;3.25;0.5;0.25;0.0;0.0;2.25;0.25;0.0;-0.233398;0.008789;0.984863;-0.7;0.7;0.63;405.0;-0.210022;0.035756;2.5;7.0;2.75;5.25;0.25;1.0;0.0;0.25;0.5;0.5;0.75;0.75;0.25;1.0;0.25;0.5;-0.255371;0.027832;0.972168;-0.84;-0.77;0.84;262.0;-0.216255;-0.100509
4.0;8.75;7.0;7.75;4.0;0.5;0.0;0.5;0.0;3.25;0.5;0.25;0.0;0.0;2.25;0.25;0.0;-0.236816;0.005371;0.982422;-0.63;0.56;0.56;405.0;-0.20882;0.037875;2.25;6.75;2.75;5.25;0.25;0.75;0.0;0.25;0.5;0.5;0.75;0.75;0.25;1.0;0.25;0.25;-0.250488;0.033203;0.972168;-0.91;-0.77;0.63;252.0;-0.216296;-0.098917
4.01;8.75;7.0;7.75;4.0;0.5;0.0;0.5;0.0;3.25;0.5;0.25;0.0;0.0;2.25;0.25;0.0;-0.227539;0.010254;0.986816;-0.7;0.7;0.49;405.0;-0.20882;0.037875;2.5;6.75;2.75;5.25;0.25;0.5;0.0;0.25;0.5;0.5;0.75;0.75;0.25;1.0;0.0;0.0;-0.257324;0.026855;0.972656;-0.84;-0.91;0.77;248.0;-0.229873;-0.093365
4.02;8.75;7.0;7.75;4.25;0.5;0.0;0.5;0.0;3.0;0.5;0.0;0.0;0.0;2.25;0.25;0.0;-0.230469;0.009277;0.978516;-0.56;0.42;0.7;402.0;-0.216646;0.034903;2.25;6.75;3.0;5.25;0.25;0.75;0.0;0.25;0.5;0.75;1.0;0.5;0.25;1.0;0.0;0.0;-0.249023;0.025879;0.97168;-0.84;-0.77;0.7;254.0;-0.222034;-0.091725
4.03;9.0;7.0;7.5;4.25;0.5;0.0;0.5;0.0;3.0;0.25;0.25;0.0;0.0;2.5;0.25;0.0;-0.232422;0.006836;0.987305;-0.56;0.49;0.49;404.0;-0.21405;0.034561;2.5;7.0;2.75;5.25;0.25;0.75;0.0;0.25;0.5;0.5;0.75;0.5;0.25;1.25;0.0;0.0;-0.255371;0.037109;0.974121;-0.84;-0.98;0.7;253.0;-0.229925;-0.091409
4.04;8.75;7.0;7.75;4.25;0.5;0.0;0.5;0.0;3.25;0.5;0.25;0.0;0.0;2.25;0.25;0.0;-0.227539;0.010742;0.984375;-0.56;0.49;0.56;408.0;-0.209399;0.035945;2.0;7.0;2.5;5.25;0.5;0.75;0.0;0.25;0.5;0.5;0.75;0.75;0.25;1.25;0.25;0.25;-0.254883;0.028809;0.975098;-0.84;-0.84;0.84;254.0;-0.208791;-0.099737
4.05;9.0;7.0;7.75;4.0;0.5;0.0;0.5;0.0;3.25;0.5;0.5;0.25;0.0;2.75;0.25;0.0;-0.235352;0.004395;0.987305;-0.7;0.42;0.63;418.0;-0.197387;0.036557;2.25;6.75;2.75;5.25;0.5;0.75;0.0;0.25;0.5;0.5;0.75;0.5;0.25;1.25;0.0;0.0;-0.255859;0.030273;0.972656;-0.84;-0.84;0.77;250.0;-0.224829;-0.091088
4.06;8.5;6.75;7.75;4.0;0.5;0.0;0.5;0.0;3.25;0.5;0.25;0.0;0.0;2.75;0.25;0.0;-0.232422;0.009766;0.990234;-0.7;0.49;0.49;404.0;-0.199029;0.040256;2.75;6.75;3.0;5.25;0.25;0.75;0.0;0.25;0.5;0.5;0.75;0.25;0.25;1.0;0.25;0.0;-0.25293;0.031738;0.972168;-0.91;-0.91;0.77;254.0;-0.234095;-0.086298
4.07;8.25;7.0;7.75;4.0;0.5;0.0;0.5;0.0;3.25;0.25;0.25;0.0;0.0;2.5;0.25;0.0;-0.231934;0.003906;0.980957;-0.63;0.49;0.42;399.0;-0.205646;0.037496;2.5;6.75;3.25;5.25;0.25;1.25;0.0;0.25;0.5;0.75;1.0;0.5;0.25;1.25;0.25;0.25;-0.257812;0.03418;0.967285;-0.84;-0.77;0.7;272.0;-0.207664;-0.09038
4.08;8.5;6.75;8.0;4.0;0.5;0.0;0.5;0.0;3.25;0.5;0.25;0.25;0.0;2.25;0.25;0.0;-0.230957;0.004395;0.987793;-0.77;0.49;0.49;406.0;-0.203631;0.036661;2.25;6.75;3.0;5.25;0.5;1.0;0.0;0.25;0.5;0.75;1.0;0.75;0.25;1.25;0.25;0.0;-0.255859;0.030273;0.96875;-0.84;-0.77;0.77;268.0;-0.203289;-0.091778
4.09;8.75;6.75;8.0;4.0;0.5;0.0;0.5;0.0;3.25;0.5;0.25;0.0;0.0;2.75;0.25;0.0;-0.227539;0.01123;0.984375;-0.84;0.49;0.49;410.0;-0.200932;0.041094;2.25;6.75;3.0;5.5;0.25;1.0;0.0;0.25;0.5;0.5;1.0;0.5;0.25;1.0;0.25;0.0;-0.253418;0.033691;0.972168;-0.91;-0.7;0.7;260.0;-0.220102;-0.096936
4.1;8.75;7.0;7.75;4.0;0.5;0.0;0.5;0.0;3.25;0.5;0.5;0.0;0.0;2.5;0.25;0.0;-0.231934;0.01123;0.984863;-0.91;0.63;0.49;410.0;-0.202273;0.037595;2.25;6.75;2.5;5.25;0.25;1.0;0.0;0.0;0.5;0.5;1.0;0.5;0.25;1.0;0.25;0.0;-0.251465;0.030273;0.968262;-0.84;-0.84;0.7;246.0;-0.221668;-0.095007
4.11;8.75;6.75;7.75;4.0;0.5;0.0;0.5;0.0;3.25;0.5;0.25;0.0;0.0;2.5;0.25;0.0;-0.236328;0.010742;0.984863;-0.84;0.63;0.49;405.0;-0.203963;0.039947;2.25;6.75;2.75;5.25;0.5;1.0;0.0;0.25;0.5;0.75;1.0;0.5;0.25;1.25;0.5;0.0;-0.254395;0.030762;0.974121;-0.84;-0.7;0.7;265.0;-0.200443;-0.091543
4.12;8.75;6.75;8.0;4.0;0.5;0.0;0.5;0.0;3.25;0.5;0.25;0.0;0.0;2.5;0.25;0.0;-0.223145;0.007324;0.984375;-0.7;0.77;0.56;408.0;-0.204423;0.040316;2.25;6.75;2.75;5.25;0.25;1.0;0.0;0.25;0.5;0.5;1.0;0.5;0.25;1.0;0.25;0.25;-0.255859;0.032227;0.973633;-0.84;-0.91;0.7;255.0;-0.215395;-0.098916
4.13;9.0;6.75;7.5;4.0;0.5;0.0;0.5;0.0;3.25;0.5;0.25;0.0;0.0;2.5;0.25;0.0;-0.228027;0.007812;0.990723;-0.63;0.63;0.56;405.0;-0.204893;0.040058;2.5;6.5;2.25;5.25;0.25;1.0;0.0;0.25;0.5;0.5;0.75;0.5;0.25;1.0;0.25;0.0;-0.254883;0.032715;0.975098;-0.84;-0.84;0.7;245.0;-0.222882;-0.099016
4.14;8.75;6.75;7.5;4.0;0.5;0.0;0.5;0.0;3.25;0.25;0.5;0.0;0.0;2.5;0.25;0.0;-0.232422;0.007812;0.987305;-0.56;0.77;0.63;402.0;-0.20358;0.038294;2.75;6.75;2.75;5.25;0.25;1.0;0.0;0.25;0.5;0.5;1.0;0.5;0.25;1.0;0.25;0.0;-0.251953;0.032715;0.974121;-0.77;-0.91;0.7;259.0;-0.222786;-0.093157
