Time;left pressure 1[N/cm²];left pressure 2[N/cm²];left pressure 3[N/cm²];left pressure 4[N/cm²];left pressure 5[N/cm²];left pressure 6[N/cm²];left pressure 7[N/cm²];left pressure 8[N/cm²];left pressure 9[N/cm²];left pressure 10[N/cm²];left pressure 11[N/cm²];left pressure 12[N/cm²];left pressure 13[N/cm²];left pressure 14[N/cm²];left pressure 15[N/cm²];left pressure 16[N/cm²];left acceleration X[g];left acceleration Y[g];left acceleration Z[g];left angular X[dps];left angular Y[dps];left angular Z[dps];left total force[N];left center of pressure X[-0.5...+0.5];left center of pressure Y[-0.5...+0.5];right pressure 1[N/cm²];right pressure 2[N/cm²];right pressure 3[N/cm²];right pressure 4[N/cm²];right pressure 5[N/cm²];right pressure 6[N/cm²];right pressure 7[N/cm²];right pressure 8[N/cm²];right pressure 9[N/cm²];right pressure 10[N/cm²];right pressure 11[N/cm²];right pressure 12[N/cm²];right pressure 13[N/cm²];right pressure 14[N/cm²];right pressure 15[N/cm²];right pressure 16[N/cm²];right acceleration X[g];right acceleration Y[g];right acceleration Z[g];right angular X[dps];right angular Y[dps];right angular Z[dps];right total force[N];right center of pressure X[-0.5...+0.5];right center of pressure Y[-0.5...+0.5]
0.0;8.0;4.75;3.25;2.75;0.25;0.75;0.0;0.5;1.25;0.25;0.5;0.5;0.25;0.5;0.25;0.5;-0.202148;0.021484;0.990723;-0.56;0.84;0.56;276.0;-0.23883;-0.022421;4.75;5.25;2.75;4.25;0.25;1.0;0.0;0.5;0.0;0.25;0.25;0.5;0.5;0.5;0.5;0.25;-0.233398;0.038086;0.982422;-0.77;-1.05;0.63;242.0;-0.253521;-0.090219
0.01;8.0;4.75;3.25;2.75;0.25;0.75;0.0;0.5;1.25;0.25;0.5;0.5;0.25;0.5;0.25;0.5;-0.202148;0.021484;0.990723;-0.56;0.84;0.56;276.0;-0.23883;-0.022421;4.5;5.25;2.75;4.25;0.25;1.0;0.0;0.5;0.0;0.25;0.25;0.25;0.75;0.5;0.5;0.5;-0.236816;0.040527;0.979492;-0.77;-0.98;0.7;241.0;-0.24938;-0.095111
0.02;8.0;4.75;3.25;2.75;0.25;0.75;0.0;0.5;1.25;0.25;0.5;0.5;0.25;0.5;0.25;0.5;-0.202148;0.021484;0.990723;-0.56;0.84;0.56;276.0;-0.23883;-0.022421;4.0;5.25;2.75;4.25;0.25;1.0;0.0;0.5;0.0;0.25;0.25;0.25;0.75;0.5;0.5;0.25;-0.23584;0.037598;0.98291;-0.7;-0.98;0.7;233.0;-0.249519;-0.09867
0.03;8.0;4.75;3.25;2.75;0.25;0.75;0.0;0.5;1.25;0.25;0.5;0.5;0.25;0.5;0.25;0.5;-0.202148;0.021484;0.990723;-0.56;0.84;0.56;276.0;-0.23883;-0.022421;4.25;5.25;2.75;4.25;0.25;1.0;0.0;0.5;0.0;0.25;0.25;0.25;0.75;0.5;0.25;0.25;-0.236816;0.036133;0.98291;-0.77;-1.05;0.7;233.0;-0.259455;-0.096356
0.04;8.0;4.75;3.25;2.75;0.25;0.75;0.0;0.5;1.25;0.25;0.5;0.5;0.25;0.5;0.25;0.5;-0.202148;0.021484;0.990723;-0.56;0.84;0.56;276.0;-0.23883;-0.022421;4.5;5.25;2.75;4.25;0.25;1.0;0.0;0.5;0.25;0.0;0.25;0.25;0.75;0.5;0.0;0.25;-0.236328;0.039551;0.977051;-0.63;-1.05;0.77;234.0;-0.267552;-0.090331
0.05;8.0;4.75;3.25;2.75;0.25;0.75;0.0;0.5;1.25;0.25;0.5;0.5;0.25;0.5;0.25;0.5;-0.202148;0.021484;0.990723;-0.56;0.84;0.56;276.0;-0.23883;-0.022421;4.5;5.0;2.75;4.25;0.25;1.0;0.0;0.5;0.25;0.25;0.25;0.25;0.75;0.75;0.25;0.25;-0.233398;0.040527;0.976562;-0.7;-1.12;0.63;240.0;-0.245288;-0.08501
0.06;8.0;4.75;3.25;2.75;0.25;0.75;0.0;0.5;1.25;0.25;0.5;0.5;0.25;0.5;0.25;0.5;-0.202148;0.021484;0.990723;-0.56;0.84;0.56;276.0;-0.23883;-0.022421;4.5;5.0;2.75;4.25;0.0;1.0;0.0;0.5;0.0;0.25;0.0;0.25;0.75;0.5;0.25;0.25;-0.22998;0.035156;0.980957;-0.63;-1.12;0.77;228.0;-0.267364;-0.094868
0.07;7.75;4.5;3.25;2.75;0.25;0.75;0.0;0.25;1.25;0.25;0.25;0.25;0.25;0.5;0.0;0.25;-0.199219;0.022949;0.995117;-0.56;0.7;0.49;257.0;-0.25983;-0.010007;4.5;5.0;2.75;4.25;0.0;1.0;0.0;0.5;0.0;0.0;0.0;0.25;0.5;0.25;0.25;0.25;-0.237793;0.040527;0.982422;-0.63;-1.12;0.7;220.0;-0.285748;-0.095867
0.08;7.75;4.75;3.25;2.75;0.25;0.75;0.0;0.25;1.25;0.25;0.25;0.25;0.0;0.75;0.25;0.25;-0.20459;0.031738;0.993164;-0.63;0.77;0.49;262.0;-0.251937;-0.006577;4.5;5.5;2.75;4.5;0.0;0.75;0.0;0.5;0.0;0.0;0.25;0.25;0.75;0.25;0.25;0.25;-0.23584;0.04248;0.975586;-0.63;-1.12;0.7;231.0;-0.279362;-0.100782
0.09;7.75;4.75;3.25;2.75;0.25;0.75;0.0;0.25;1.5;0.25;0.25;0.5;0.0;0.75;0.0;0.25;-0.196777;0.02832;0.992676;-0.63;0.77;0.56;266.0;-0.247208;-0.005118;4.5;5.5;2.75;4.5;0.0;1.0;0.0;0.5;0.0;0.0;0.0;0.25;0.75;0.25;0.25;0.25;-0.233398;0.036621;0.978516;-0.63;-1.12;0.7;231.0;-0.283987;-0.102813
0.1;7.75;5.0;3.25;2.75;0.25;0.75;0.0;0.25;1.5;0.25;0.25;0.5;0.25;0.75;0.25;0.25;-0.202148;0.022949;0.995117;-0.56;0.84;0.56;273.0;-0.238316;-0.011342;4.25;5.5;2.75;4.25;0.0;1.25;0.0;0.5;0.0;0.0;0.0;0.25;0.75;0.25;0.25;0.25;-0.23877;0.041016;0.982422;-0.77;-1.12;0.77;228.0;-0.280737;-0.106055
0.11;7.75;4.5;3.25;2.75;0.0;0.75;0.0;0.25;1.5;0.5;0.25;0.5;0.0;0.75;0.0;0.25;-0.201172;0.024902;0.992676;-0.7;0.77;0.56;263.0;-0.241705;-0.003587;4.5;5.5;2.75;4.25;0.0;1.0;0.0;0.5;0.0;0.25;0.0;0.25;0.75;0.25;0.25;0.25;-0.236328;0.039062;0.978027;-0.56;-1.12;0.77;231.0;-0.277475;-0.09917
0.12;7.75;4.75;3.25;2.75;0.25;0.75;0.0;0.25;1.25;0.25;0.25;0.25;0.25;0.75;0.0;0.25;-0.202637;0.032715;0.995605;-0.56;0.77;0.49;262.0;-0.255373;-0.009845;4.5;5.25;2.75;4.25;0.0;1.0;0.0;0.5;0.0;0.25;0.0;0.25;0.5;0.0;0.25;0.25;-0.22998;0.043457;0.979492;-0.7;-1.26;0.7;223.0;-0.287787;-0.09747
0.13;8.0;4.5;3.25;2.5;0.25;0.5;0.0;0.25;1.25;0.25;0.25;0.25;0.25;0.75;0.25;0.25;-0.19873;0.016113;0.994629;-0.49;0.63;0.56;259.0;-0.248887;-0.002309;4.5;5.25;2.5;4.25;0.0;1.0;0.0;0.5;0.0;0.0;0.25;0.25;0.5;0.0;0.0;0.25;-0.23584;0.041992;0.976074;-0.7;-1.12;0.7;217.0;-0.297415;-0.102642
0.14;7.75;4.5;3.25;2.75;0.0;0.5;0.0;0.25;1.5;0.0;0.25;0.25;0.25;0.75;0.0;0.5;-0.202148;0.01709;0.998047;-0.7;0.77;0.42;255.0;-0.251287;-0.004676;4.5;5.5;2.75;4.25;0.0;1.0;0.0;0.5;0.0;0.0;0.25;0.25;0.5;0.25;0.25;0.25;-0.237305;0.037109;0.980957;-0.7;-1.12;0.7;228.0;-0.282227;-0.09767
0.15;7.75;4.75;3.25;2.75;0.25;0.5;0.0;0.25;1.25;0.0;0.25;0.25;0.25;0.5;0.0;0.5;-0.20752;0.028809;0.993164;-0.63;0.77;0.63;255.0;-0.26461;-0.011072;4.5;5.5;2.75;4.25;0.0;1.0;0.0;0.75;0.0;0.0;0.25;0.25;0.5;0.25;0.25;0.25;-0.23584;0.039551;0.975586;-0.77;-1.05;0.7;232.0;-0.277391;-0.102941
0.16;7.75;4.5;3.25;3.0;0.25;0.5;0.0;0.25;1.25;0.25;0.25;0.25;0.0;0.25;0.0;0.5;-0.197754;0.018555;0.995117;-0.56;0.56;0.63;254.0;-0.267939;-0.008763;4.5;5.5;2.5;4.25;0.25;1.0;0.0;0.5;0.0;0.0;0.0;0.25;0.5;0.25;0.0;0.25;-0.234375;0.037109;0.98291;-0.77;-0.98;0.7;222.0;-0.295765;-0.098054
0.17;7.75;4.5;3.25;2.75;0.25;0.5;0.0;0.25;1.5;0.25;0.25;0.25;0.25;0.5;0.0;0.25;-0.20166;0.030273;0.993164;-0.56;0.84;0.49;257.0;-0.253898;-0.003015;4.75;5.0;2.75;4.5;0.25;1.25;0.0;0.5;0.0;0.25;0.0;0.25;1.0;0.25;0.0;0.25;-0.236816;0.040527;0.984375;-0.63;-1.05;0.7;237.0;-0.276492;-0.10081
0.18;7.75;4.5;3.25;2.5;0.25;0.5;0.0;0.25;1.5;0.0;0.25;0.0;0.25;0.25;0.0;0.25;-0.200195;0.02832;1.0;-0.56;0.91;0.49;246.0;-0.270897;0.000638;4.5;5.0;2.75;4.5;0.25;1.0;0.0;0.5;0.0;0.25;0.0;0.25;0.75;0.25;0.0;0.25;-0.23584;0.038086;0.983887;-0.77;-0.98;0.63;229.0;-0.281131;-0.097449
0.19;7.75;4.5;3.0;2.5;0.25;0.5;0.0;0.25;1.5;0.0;0.25;0.25;0.25;0.5;0.25;0.25;-0.198242;0.020996;0.993652;-0.49;0.63;0.56;251.0;-0.251401;-0.003148;4.5;5.0;2.75;4.5;0.25;1.0;0.0;0.5;0.0;0.0;0.0;0.25;0.75;0.25;0.25;0.25;-0.23584;0.039551;0.976562;-0.91;-0.98;0.7;229.0;-0.27898;-0.099263
0.2;7.75;4.5;3.25;2.75;0.0;0.5;0.0;0.25;1.0;0.25;0.25;0.25;0.0;0.5;0.25;0.25;-0.197754;0.023926;0.993164;-0.63;0.77;0.56;248.0;-0.266564;-0.008362;4.5;5.25;2.5;4.5;0.25;1.0;0.0;0.75;0.0;0.25;0.25;0.25;0.5;0.25;0.25;0.25;-0.242676;0.039551;0.977539;-0.77;-0.98;0.7;236.0;-0.268003;-0.102201
0.21;7.5;4.75;3.25;2.75;0.25;0.5;0.0;0.25;1.25;0.25;0.25;0.25;0.0;0.75;0.0;0.25;-0.198242;0.019531;0.992676;-0.56;0.77;0.56;253.0;-0.258879;-0.003885;4.25;5.25;2.5;4.0;0.25;1.0;0.0;0.5;0.25;0.25;0.0;0.25;0.5;0.25;0.0;0.25;-0.22998;0.039551;0.979492;-0.84;-0.98;0.7;220.0;-0.277245;-0.090078
0.22;7.75;4.75;3.0;2.25;0.25;0.5;0.0;0.25;1.5;0.25;0.25;0.25;0.25;0.5;0.0;0.25;-0.205566;0.021973;0.994141;-0.42;0.63;0.56;251.0;-0.254588;-0.000471;4.25;5.25;2.75;4.25;0.0;1.0;0.0;0.5;0.0;0.0;0.0;0.25;0.5;0.25;0.0;0.25;-0.23584;0.041504;0.98291;-0.84;-0.91;0.63;217.0;-0.294889;-0.09953
0.23;7.75;4.75;3.0;2.5;0.25;0.5;0.0;0.0;1.5;0.25;0.25;0.25;0.25;0.5;0.25;0.25;-0.199219;0.022461;0.990723;-0.42;0.63;0.49;252.0;-0.251456;0.00239;4.25;5.25;2.5;4.25;0.0;1.25;0.0;0.5;0.0;0.0;0.0;0.25;0.75;0.25;0.0;0.25;-0.233887;0.038574;0.981934;-0.84;-0.98;0.56;219.0;-0.288381;-0.108392
0.24;7.75;4.75;3.0;2.75;0.25;0.75;0.0;0.0;1.5;0.25;0.25;0.25;0.25;0.25;0.25;0.25;-0.204102;0.027344;0.992676;-0.49;0.63;0.49;256.0;-0.256745;-0.005058;4.5;5.25;2.5;4.0;0.25;1.0;0.0;0.5;0.0;0.0;0.25;0.25;0.75;0.25;0.0;0.25;-0.234863;0.04248;0.980469;-0.84;-0.84;0.7;222.0;-0.282855;-0.099654
0.25;7.5;4.5;3.25;2.75;0.25;0.5;0.0;0.25;1.5;0.25;0.25;0.25;0.0;0.25;0.25;0.25;-0.20166;0.027832;0.998047;-0.49;0.7;0.49;253.0;-0.254788;-0.002553;4.5;4.75;2.5;4.25;0.0;1.0;0.0;0.5;0.0;0.0;0.25;0.25;0.75;0.25;0.0;0.25;-0.236816;0.037598;0.97998;-0.77;-0.91;0.7;217.0;-0.281991;-0.102065
0.26;7.5;4.5;3.25;2.75;0.25;0.5;0.0;0.25;1.5;0.25;0.25;0.25;0.0;0.5;0.25;0.5;-0.199707;0.025391;0.991211;-0.49;0.77;0.56;256.0;-0.245193;-0.002718;4.25;5.0;2.75;4.25;0.0;1.0;0.0;0.5;0.0;0.0;0.0;0.0;0.5;0.25;0.0;0.0;-0.237305;0.037109;0.980469;-0.77;-0.91;0.77;210.0;-0.30496;-0.094539
0.27;7.75;4.5;3.25;2.75;0.25;0.5;0.0;0.25;1.0;0.25;0.5;0.25;0.25;0.5;0.0;0.25;-0.200684;0.025879;0.996094;-0.42;0.63;0.56;253.0;-0.262902;-0.012133;4.25;5.25;2.75;4.25;0.25;1.0;0.0;0.5;0.0;0.0;0.0;0.25;0.5;0.5;0.0;0.0;-0.234375;0.038574;0.979492;-0.77;-0.91;0.7;221.0;-0.289549;-0.093
0.28;7.75;4.5;3.0;2.5;0.25;0.5;0.0;0.25;1.25;0.25;0.25;0.25;0.0;0.5;0.25;0.25;-0.20459;0.026855;0.993652;-0.49;0.7;0.56;248.0;-0.257079;-0.002029;4.5;5.25;2.75;4.5;0.0;1.0;0.0;0.5;0.0;0.0;0.0;0.25;0.5;0.25;0.0;0.25;-0.230469;0.035156;0.987305;-0.77;-0.84;0.7;223.0;-0.296167;-0.098572
0.29;7.5;4.5;3.25;2.75;0.0;0.75;0.0;0.25;1.5;0.25;0.25;0.25;0.25;0.5;0.25;0.25;-0.19873;0.023926;0.996094;-0.49;0.63;0.56;257.0;-0.24521;-0.008998;4.25;5.25;2.75;4.25;0.0;1.0;0.0;0.5;0.0;0.25;0.0;0.25;0.75;0.25;0.0;0.25;-0.237793;0.035645;0.985352;-0.77;-0.91;0.7;222.0;-0.283128;-0.101277
0.3;7.75;4.75;3.25;2.75;0.25;0.75;0.0;0.25;1.25;0.25;0.0;0.25;0.25;0.5;0.25;0.25;-0.203125;0.021484;0.992676;-0.49;0.7;0.56;259.0;-0.259334;-0.011155;4.5;5.25;2.75;4.25;0.0;1.0;0.0;0.75;0.0;0.25;0.25;0.25;0.75;0.25;0.25;0.25;-0.229004;0.040527;0.981445;-0.91;-0.98;0.7;235.0;-0.26516;-0.10384
0.31;7.75;4.0;3.25;3.0;0.25;0.75;0.0;0.25;1.5;0.25;0.25;0.25;0.25;0.5;0.25;0.25;-0.20166;0.024414;0.996094;-0.49;0.77;0.49;261.0;-0.242721;-0.006358;4.5;5.25;2.5;4.25;0.0;1.25;0.0;0.75;0.0;0.25;0.25;0.25;0.5;0.25;0.0;0.25;-0.239258;0.039062;0.97998;-0.77;-0.98;0.7;230.0;-0.276541;-0.105195
0.32;7.5;4.25;3.25;2.75;0.25;0.75;0.0;0.25;1.25;0.25;0.25;0.25;0.25;0.25;0.25;0.25;-0.20459;0.024902;0.992188;-0.56;0.77;0.56;252.0;-0.25525;-0.012332;4.5;5.25;2.5;4.25;0.0;1.25;0.0;0.75;0.0;0.0;0.0;0.25;0.5;0.25;0.0;0.25;-0.241699;0.038574;0.981934;-0.91;-0.98;0.77;224.0;-0.289514;-0.107203
0.33;7.5;4.5;3.25;2.5;0.25;0.75;0.0;0.25;1.75;0.25;0.25;0.25;0.25;0.5;0.0;0.25;-0.203125;0.022461;0.996094;-0.63;0.84;0.49;258.0;-0.243622;-0.000931;4.5;5.25;2.75;4.25;0.0;1.25;0.0;0.75;0.0;0.25;0.25;0.25;0.75;0.5;0.0;0.0;-0.233887;0.039551;0.978516;-0.77;-0.91;0.7;236.0;-0.26917;-0.102149
0.34;7.5;4.5;3.25;2.75;0.25;0.75;0.0;0.25;1.75;0.25;0.25;0.25;0.0;0.5;0.25;0.5;-0.202148;0.024414;0.987305;-0.56;0.63;0.49;263.0;-0.23732;-0.002007;4.0;5.25;2.75;4.5;0.0;1.0;0.0;0.75;0.0;0.25;0.0;0.25;0.75;0.5;0.25;0.0;-0.23584;0.039062;0.981934;-0.7;-1.05;0.63;230.0;-0.265349;-0.106305
0.35;7.5;4.75;3.25;2.75;0.25;0.75;0.0;0.25;1.25;0.25;0.25;0.0;0.25;0.25;0.25;0.5;-0.202148;0.029785;0.993652;-0.56;0.77;0.49;255.0;-0.260102;-0.013915;4.25;5.25;2.75;4.25;0.0;1.0;0.0;0.5;0.25;0.25;0.0;0.25;0.75;0.25;0.25;0.25;-0.234375;0.038574;0.984375;-0.77;-0.98;0.7;229.0;-0.266038;-0.095165
0.36;7.25;4.25;3.25;2.75;0.25;0.5;0.0;0.25;1.25;0.25;0.0;0.0;0.25;0.25;0.25;0.25;-0.202148;0.025391;0.991211;-0.49;0.7;0.49;240.0;-0.266077;-0.005901;4.5;5.25;2.5;4.25;0.0;1.0;0.0;0.5;0.25;0.25;0.0;0.25;0.5;0.25;0.0;0.25;-0.23584;0.040039;0.981445;-0.84;-1.05;0.7;223.0;-0.281023;-0.091402
0.37;7.5;4.25;3.25;2.5;0.25;0.75;0.0;0.25;1.5;0.25;0.25;0.25;0.0;0.25;0.0;0.25;-0.203125;0.028809;0.994629;-0.49;0.63;0.56;247.0;-0.259186;-0.000519;4.75;5.25;2.5;4.25;0.0;1.0;0.0;0.5;0.0;0.0;0.0;0.25;0.75;0.25;0.25;0.0;-0.232422;0.037598;0.980469;-0.91;-0.98;0.7;223.0;-0.28848;-0.099008
0.38;7.5;4.5;3.25;2.5;0.25;0.75;0.0;0.25;1.5;0.25;0.25;0.25;0.0;0.25;0.25;0.25;-0.200684;0.026855;0.990234;-0.49;0.7;0.49;253.0;-0.253191;-0.003098;4.5;5.25;2.5;4.5;0.0;1.0;0.0;0.75;0.0;0.0;0.0;0.25;0.5;0.25;0.25;0.0;-0.232422;0.040039;0.976562;-0.84;-0.91;0.63;225.0;-0.286709;-0.10491
0.39;7.5;4.0;3.0;2.5;0.25;0.75;0.0;0.25;1.0;0.25;0.25;0.25;0.0;0.5;0.0;0.25;-0.199219;0.025879;0.996094;-0.63;0.7;0.49;237.0;-0.266417;-0.006467;4.5;5.5;2.75;4.25;0.0;1.0;0.0;0.75;0.0;0.0;0.25;0.25;0.5;0.25;0.0;0.25;-0.23584;0.044434;0.978027;-0.77;-0.98;0.7;229.0;-0.285947;-0.1032
0.4;7.5;4.0;3.25;2.5;0.25;0.5;0.0;0.25;1.5;0.25;0.25;0.25;0.0;0.5;0.25;0.25;-0.206055;0.026855;0.992676;-0.49;0.63;0.49;247.0;-0.244812;0.00518;4.25;5.25;2.75;4.25;0.0;1.0;0.0;0.75;0.0;0.25;0.25;0.25;0.5;0.5;0.25;0.0;-0.23584;0.037109;0.980469;-0.84;-0.91;0.7;231.0;-0.265099;-0.098617
0.41;7.5;4.0;3.25;2.5;0.25;0.75;0.0;0.25;1.5;0.25;0.25;0.5;0.0;0.5;0.0;0.25;-0.19873;0.020996;0.990234;-0.63;0.7;0.49;250.0;-0.245959;-0.0006;4.5;4.75;2.75;4.25;0.0;0.75;0.0;0.75;0.0;0.0;0.0;0.25;0.5;0.75;0.25;0.0;-0.233398;0.039062;0.978027;-0.84;-0.91;0.63;222.0;-0.270641;-0.091078
0.42;7.25;4.0;3.25;2.75;0.25;0.75;0.0;0.25;1.5;0.0;0.5;0.25;0.25;0.5;0.0;0.0;-0.200684;0.025391;0.990234;-0.56;0.7;0.49;248.0;-0.249764;-0.005703;4.25;5.25;2.75;4.25;0.0;0.75;0.0;0.75;0.0;0.25;0.0;0.0;0.5;0.5;0.25;0.25;-0.233887;0.039551;0.975586;-0.84;-0.98;0.77;223.0;-0.274856;-0.094961
0.43;7.5;4.25;3.0;2.5;0.0;0.75;0.0;0.25;1.5;0.0;0.5;0.25;0.25;0.5;0.25;0.25;-0.203613;0.029297;0.998047;-0.56;0.56;0.56;249.0;-0.242845;-0.008071;4.25;5.25;2.5;4.25;0.0;0.75;0.0;0.75;0.0;0.25;0.25;0.25;0.5;0.25;0.25;0.25;-0.233887;0.041504;0.983887;-0.84;-0.91;0.7;224.0;-0.269481;-0.103149
0.44;7.5;4.0;3.0;2.5;0.0;0.75;0.0;0.25;1.5;0.25;0.25;0.25;0.25;0.5;0.25;0.5;-0.200195;0.024414;0.990723;-0.35;0.56;0.56;248.0;-0.237335;-0.006219;4.25;5.0;2.75;4.25;0.25;1.0;0.0;0.5;0.0;0.25;0.25;0.25;0.5;0.25;0.0;0.25;-0.235352;0.042969;0.97998;-0.84;-0.91;0.63;223.0;-0.277752;-0.094747
0.45;7.5;4.25;3.0;2.5;0.0;0.75;0.0;0.25;1.5;0.25;0.25;0.25;0.25;0.5;0.25;0.25;-0.199219;0.026367;1.001465;-0.7;0.91;0.49;249.0;-0.242713;-0.006009;4.5;5.25;2.75;4.25;0.25;1.0;0.0;0.5;0.0;0.0;0.25;0.25;0.5;0.5;0.25;0.25;-0.235352;0.039062;0.979492;-0.84;-0.91;0.7;231.0;-0.27174;-0.092091
0.46;7.25;4.0;3.0;2.25;0.0;0.75;0.0;0.25;1.75;0.25;0.5;0.25;0.25;0.75;0.0;0.25;-0.20166;0.025391;0.993164;-0.56;0.84;0.49;246.0;-0.227243;0.002388;4.5;5.25;2.75;4.25;0.25;1.0;0.0;0.75;0.0;0.25;0.25;0.25;0.5;0.5;0.25;0.25;-0.23291;0.039551;0.975098;-0.84;-0.98;0.7;238.0;-0.261086;-0.095472
0.47;7.5;4.25;3.0;2.5;0.0;0.75;0.0;0.25;2.0;0.25;0.25;0.25;0.25;0.5;0.0;0.25;-0.199707;0.025879;0.990723;-0.56;0.7;0.49;253.0;-0.235971;0.002779;4.5;5.0;2.75;4.5;0.25;1.0;0.0;0.5;0.0;0.0;0.25;0.25;0.75;0.5;0.25;0.25;-0.233887;0.037598;0.98291;-0.84;-0.98;0.7;234.0;-0.265939;-0.096717
0.48;7.5;4.25;3.0;2.5;0.25;0.75;0.0;0.25;1.75;0.25;0.25;0.25;0.0;0.5;0.0;0.25;-0.199707;0.025879;0.991211;-0.56;0.56;0.42;250.0;-0.245501;0.003971;4.25;5.0;2.75;4.25;0.0;1.0;0.0;0.5;0.0;0.0;0.25;0.25;0.75;0.5;0.25;0.25;-0.232422;0.043945;0.98291;-0.91;-0.98;0.7;225.0;-0.265798;-0.099702
0.49;7.5;4.0;3.0;2.5;0.25;0.75;0.0;0.25;1.75;0.25;0.5;0.25;0.25;0.5;0.25;0.5;-0.204102;0.025879;0.995605;-0.42;0.56;0.49;257.0;-0.224007;-0.002748;4.5;5.0;2.75;4.5;0.0;1.0;0.0;0.5;0.0;0.0;0.25;0.25;0.75;0.5;0.25;0.25;-0.233398;0.038086;0.976562;-0.77;-1.05;0.63;231.0;-0.267767;-0.098772
0.5;7.25;4.0;3.25;2.5;0.0;0.75;0.0;0.25;1.75;0.25;0.5;0.5;0.25;0.5;0.25;0.25;-0.201172;0.030273;0.992188;-0.49;0.7;0.49;256.0;-0.222183;-0.005141;4.5;5.25;2.75;4.25;0.0;1.0;0.0;0.75;0.0;0.0;0.25;0.25;0.75;0.25;0.25;0.25;-0.239258;0.041504;0.982422;-0.84;-0.91;0.7;232.0;-0.271349;-0.105893
0.51;7.5;4.25;3.25;2.5;0.25;0.75;0.0;0.25;1.75;0.5;0.25;0.5;0.25;0.5;0.0;0.25;-0.199219;0.020508;0.992188;-0.49;0.56;0.56;261.0;-0.231692;-0.001886;4.25;5.5;2.75;4.25;0.0;0.75;0.0;0.5;0.0;0.0;0.25;0.25;0.5;0.25;0.25;0.25;-0.23877;0.040039;0.98291;-0.7;-0.91;0.63;222.0;-0.282425;-0.097954
0.52;7.25;4.25;3.5;2.5;0.25;0.75;0.0;0.25;1.75;0.25;0.25;0.25;0.0;0.75;0.0;0.25;-0.200684;0.03125;0.993164;-0.35;0.49;0.56;256.0;-0.238256;0.006422;4.5;5.25;2.5;4.0;0.0;1.0;0.0;0.5;0.0;0.0;0.25;0.0;0.75;0.25;0.25;0.25;-0.237305;0.03418;0.978027;-0.84;-1.05;0.7;219.0;-0.282452;-0.099055
0.53;7.25;4.25;3.25;2.5;0.25;0.75;0.0;0.25;1.75;0.25;0.5;0.25;0.0;0.75;0.25;0.25;-0.200684;0.024902;0.997559;-0.42;0.56;0.49;258.0;-0.22563;0.003108;4.5;5.25;2.75;4.25;0.0;1.0;0.0;0.75;0.0;0.0;0.25;0.25;0.75;0.25;0.25;0.25;-0.231445;0.043457;0.979492;-0.91;-0.91;0.7;232.0;-0.271349;-0.105893
0.54;7.25;4.0;3.0;2.5;0.25;1.0;0.0;0.25;1.75;0.25;0.25;0.25;0.0;0.75;0.25;0.25;-0.19873;0.026855;0.992676;-0.49;0.56;0.49;253.0;-0.227489;0.001855;4.25;5.0;2.5;4.25;0.0;1.0;0.0;0.5;0.0;0.0;0.0;0.25;0.75;0.0;0.0;0.25;-0.240234;0.038086;0.979004;-0.91;-0.98;0.7;212.0;-0.296457;-0.10853
0.55;7.25;4.0;3.0;2.5;0.25;0.75;0.0;0.25;2.0;0.25;0.25;0.25;0.0;0.75;0.25;0.25;-0.197754;0.024902;0.993652;-0.28;0.56;0.49;253.0;-0.221545;0.008923;4.25;5.0;2.75;4.25;0.0;1.0;0.0;0.5;0.0;0.25;0.0;0.25;0.75;0.0;0.0;0.25;-0.236816;0.038086;0.977539;-0.84;-1.05;0.77;217.0;-0.289006;-0.103502
0.56;7.25;4.0;3.0;2.5;0.25;0.75;0.0;0.25;1.75;0.25;0.5;0.25;0.0;0.75;0.25;0.0;-0.199707;0.02002;0.993652;-0.56;0.84;0.42;251.0;-0.226685;0.005627;4.25;5.0;2.75;4.25;0.25;1.0;0.0;0.5;0.0;0.25;0.0;0.0;0.75;0.25;0.25;0.25;-0.237305;0.043945;0.979492;-0.84;-0.98;0.77;223.0;-0.276973;-0.095595
0.57;7.25;4.0;3.25;2.5;0.25;0.75;0.0;0.25;1.75;0.5;0.25;0.25;0.0;1.0;0.0;0.25;-0.20459;0.025879;0.993652;-0.56;0.77;0.49;255.0;-0.224921;0.009334;4.25;5.0;2.75;4.25;0.0;1.5;0.0;0.5;0.0;0.25;0.0;0.25;0.75;0.25;0.25;0.25;-0.23877;0.033691;0.981445;-0.84;-0.91;0.7;229.0;-0.269589;-0.104788
0.58;7.25;4.0;2.75;2.5;0.25;0.75;0.0;0.25;1.5;0.5;0.25;0.5;0.0;1.0;0.25;0.25;-0.202148;0.029297;0.992188;-0.42;0.49;0.56;251.0;-0.218596;-0.000919;4.25;5.25;2.75;4.25;0.0;1.0;0.0;0.75;0.0;0.25;0.0;0.25;0.75;0.5;0.25;0.25;-0.234375;0.039062;0.978516;-0.91;-0.98;0.7;232.0;-0.262744;-0.103467
0.59;7.25;3.75;2.75;2.5;0.0;0.75;0.0;0.25;1.5;0.25;0.5;0.5;0.0;0.75;0.25;0.5;-0.202148;0.026855;1.0;-0.49;0.63;0.49;245.0;-0.220317;-0.00566;4.25;5.25;2.75;4.0;0.25;1.0;0.0;0.75;0.0;0.25;0.0;0.25;0.75;0.25;0.0;0.0;-0.23291;0.040039;0.980957;-0.84;-0.98;0.77;225.0;-0.280192;-0.101441
0.6;7.25;3.75;3.0;2.5;0.0;0.75;0.0;0.25;1.75;0.25;0.25;0.5;0.25;0.75;0.25;0.25;-0.205078;0.024414;0.999512;-0.56;0.7;0.56;250.0;-0.218922;-0.001699;4.25;5.25;2.75;4.25;0.25;1.0;0.0;0.75;0.25;0.25;0.25;0.25;0.75;0.25;0.0;0.0;-0.236816;0.033691;0.977051;-0.77;-0.98;0.77;234.0;-0.265925;-0.097463
0.61;7.25;4.0;3.5;2.5;0.0;0.75;0.0;0.25;1.75;0.25;0.0;0.5;0.25;0.75;0.25;0.5;-0.205078;0.029297;0.990234;-0.49;0.56;0.56;257.0;-0.223579;-0.00168;4.25;5.25;2.75;4.25;0.25;0.75;0.0;0.5;0.0;0.25;0.0;0.0;0.75;0.5;0.25;0.25;-0.235352;0.037598;0.978516;-0.84;-0.98;0.77;225.0;-0.273067;-0.091215
0.62;7.25;4.0;3.25;2.25;0.25;1.0;0.0;0.25;1.75;0.25;0.25;0.5;0.25;0.5;0.25;0.5;-0.200195;0.027344;0.992676;-0.49;0.63;0.49;257.0;-0.22111;-0.005445;4.5;5.0;2.75;4.0;0.0;1.0;0.0;0.5;0.0;0.25;0.0;0.25;0.75;0.5;0.25;0.25;-0.233398;0.038574;0.983887;-0.91;-0.91;0.7;225.0;-0.267094;-0.093133
0.63;7.25;3.75;3.0;2.5;0.25;1.0;0.0;0.25;2.0;0.5;0.25;0.5;0.0;0.5;0.25;0.25;-0.202637;0.023926;0.990234;-0.63;0.7;0.49;257.0;-0.21463;0.003051;4.25;4.75;3.0;4.25;0.0;1.0;0.0;0.75;0.0;0.25;0.25;0.25;0.75;0.75;0.25;0.25;-0.242676;0.037598;0.976562;-0.77;-0.84;0.63;235.0;-0.24685;-0.096991
0.64;7.25;3.5;3.0;2.25;0.25;0.75;0.0;0.25;2.25;0.25;0.25;0.5;0.0;0.5;0.0;0.25;-0.204102;0.021484;0.993652;-0.42;0.63;0.49;247.0;-0.218077;0.015095;4.75;5.0;2.75;4.0;0.25;1.0;0.0;0.75;0.0;0.25;0.0;0.0;0.75;0.5;0.0;0.25;-0.233398;0.042969;0.973633;-0.77;-0.91;0.63;229.0;-0.276725;-0.091635
0.65;7.0;3.5;2.75;2.5;0.25;0.75;0.0;0.25;1.75;0.5;0.25;0.5;0.25;0.5;0.25;0.25;-0.20166;0.022949;0.992676;-0.63;0.7;0.56;245.0;-0.213682;-0.002585;4.5;5.25;2.75;4.25;0.25;1.0;0.0;0.75;0.0;0.0;0.0;0.25;0.75;0.5;0.0;0.25;-0.234863;0.038086;0.981445;-0.84;-0.91;0.63;232.0;-0.277141;-0.101058
0.66;7.0;4.0;3.0;2.5;0.25;0.75;0.0;0.25;1.75;0.5;0.25;0.25;0.25;0.75;0.0;0.25;-0.203613;0.023926;0.998535;-0.49;0.56;0.56;249.0;-0.224612;0.001215;4.5;5.0;2.5;4.25;0.25;1.0;0.0;0.5;0.0;0.0;0.25;0.25;0.75;0.5;0.0;0.0;-0.238281;0.041016;0.979492;-0.63;-0.91;0.7;223.0;-0.27845;-0.096286
0.67;7.25;4.0;2.75;2.25;0.25;0.75;0.0;0.25;1.75;0.5;0.25;0.25;0.25;0.75;0.25;0.25;-0.200195;0.028809;0.996582;-0.56;0.7;0.56;249.0;-0.218107;0.003122;4.5;5.0;2.75;4.25;0.25;0.75;0.0;0.5;0.0;0.25;0.25;0.0;0.75;0.25;0.25;0.25;-0.240723;0.039062;0.976074;-0.77;-0.98;0.7;225.0;-0.273826;-0.090949
0.68;7.25;3.5;2.5;2.5;0.25;0.75;0.0;0.25;1.75;0.25;0.25;0.25;0.25;0.75;0.0;0.25;-0.202637;0.029785;0.992188;-0.56;0.63;0.63;238.0;-0.227172;0.003032;4.5;5.25;2.5;4.25;0.25;1.0;0.0;0.75;0.0;0.25;0.25;0.25;0.75;0.5;0.25;0.25;-0.236328;0.04248;0.978027;-0.7;-1.05;0.77;237.0;-0.256758;-0.10148
0.69;6.75;4.0;3.0;2.5;0.25;0.75;0.0;0.25;2.0;0.25;0.25;0.25;0.0;0.25;0.0;0.25;-0.201172;0.030273;0.990723;-0.63;0.84;0.49;240.0;-0.23702;0.004394;4.5;5.5;2.75;4.25;0.25;1.0;0.0;0.75;0.0;0.25;0.25;0.25;0.75;0.5;0.25;0.25;-0.236816;0.043457;0.979004;-0.7;-0.77;0.63;243.0;-0.258527;-0.099756
0.7;7.0;4.0;3.0;2.25;0.25;0.75;0.0;0.25;1.75;0.25;0.5;0.25;0.0;0.5;0.25;0.25;-0.202637;0.025879;0.994141;-0.49;0.77;0.56;245.0;-0.226407;0.003691;4.25;5.25;2.75;4.25;0.25;1.25;0.0;0.75;0.0;0.0;0.25;0.25;0.75;0.5;0.25;0.25;-0.230469;0.039062;0.980469;-0.77;-0.84;0.77;238.0;-0.259762;-0.105658
0.71;7.25;3.75;3.0;2.5;0.25;0.75;0.0;0.25;1.75;0.25;0.25;0.25;0.25;0.75;0.25;0.5;-0.206055;0.026855;0.992188;-0.56;0.63;0.49;251.0;-0.219296;0.000589;4.25;5.0;2.75;4.25;0.25;1.25;0.0;0.5;0.25;0.0;0.25;0.0;0.75;0.25;0.25;0.25;-0.240723;0.039062;0.983398;-0.77;-0.98;0.7;229.0;-0.267178;-0.094355
0.72;7.0;3.75;2.75;2.5;0.25;0.75;0.0;0.5;1.75;0.25;0.25;0.5;0.0;0.5;0.0;0.5;-0.202148;0.028809;0.996582;-0.63;0.7;0.49;245.0;-0.225102;-0.008194;4.25;5.0;2.75;4.0;0.25;1.0;0.0;0.5;0.0;0.25;0.25;0.0;0.75;0.5;0.25;0.25;-0.23584;0.038086;0.98291;-0.77;-0.91;0.63;225.0;-0.263323;-0.09131
0.73;7.0;3.75;3.25;2.25;0.0;0.75;0.0;0.25;1.75;0.25;0.5;0.5;0.25;0.5;0.0;0.25;-0.208008;0.024414;0.995117;-0.49;0.7;0.63;245.0;-0.224664;-0.001204;4.25;5.0;2.5;4.0;0.25;1.0;0.0;0.5;0.0;0.25;0.25;0.25;0.75;0.5;0.25;0.25;-0.234863;0.035645;0.978027;-0.77;-0.84;0.7;225.0;-0.257236;-0.096378
0.74;7.0;3.75;3.25;2.25;0.0;0.75;0.0;0.25;1.75;0.25;0.5;0.25;0.0;0.5;0.0;0.25;-0.195801;0.023438;0.995117;-0.63;0.63;0.49;239.0;-0.233764;0.006875;4.5;5.0;2.5;3.75;0.25;1.0;0.0;0.5;0.0;0.25;0.25;0.25;0.75;0.5;0.0;0.25;-0.231445;0.036133;0.979004;-0.84;-0.91;0.77;222.0;-0.267284;-0.092206
0.75;7.0;3.75;3.0;2.25;0.25;0.75;0.0;0.25;2.0;0.25;0.5;0.25;0.25;0.75;0.0;0.25;-0.19873;0.023926;0.992188;-0.63;0.77;0.49;247.0;-0.215077;0.007531;4.0;5.0;2.75;4.0;0.25;1.0;0.0;0.75;0.0;0.25;0.25;0.25;0.75;0.5;0.0;0.25;-0.236816;0.042969;0.973145;-0.77;-1.05;0.7;226.0;-0.259436;-0.102056
0.76;7.0;3.75;3.0;2.5;0.25;0.75;0.0;0.25;2.0;0.25;0.5;0.25;0.25;0.25;0.25;0.25;-0.202637;0.026855;0.987793;-0.56;0.7;0.49;249.0;-0.220491;0.000519;4.0;5.0;2.5;4.25;0.25;1.25;0.0;0.75;0.0;0.0;0.25;0.25;0.75;0.5;0.25;0.25;-0.232422;0.041504;0.978516;-0.63;-1.12;0.77;229.0;-0.25619;-0.110234
0.77;7.0;3.75;3.0;2.5;0.25;0.75;0.0;0.25;2.0;0.5;0.25;0.25;0.25;0.25;0.25;0.25;-0.20166;0.027832;0.993164;-0.63;0.56;0.42;249.0;-0.220357;0.002582;4.25;4.75;2.5;4.5;0.25;1.25;0.0;0.75;0.0;0.0;0.25;0.25;1.0;0.5;0.25;0.25;-0.239258;0.044922;0.979492;-0.63;-0.91;0.7;235.0;-0.252375;-0.111982
0.78;7.0;3.75;3.0;2.5;0.25;1.0;0.0;0.25;2.0;0.5;0.25;0.5;0.25;0.5;0.25;0.25;-0.202637;0.026367;0.989746;-0.63;0.7;0.49;257.0;-0.209032;-0.002374;4.25;4.75;2.75;4.0;0.25;1.25;0.0;0.5;0.0;0.0;0.25;0.25;0.75;0.5;0.0;0.25;-0.23584;0.039062;0.979492;-0.63;-1.05;0.77;223.0;-0.269057;-0.097632
0.79;7.25;3.5;2.75;2.25;0.25;0.75;0.0;0.25;2.0;0.25;0.5;0.5;0.25;0.5;0.25;0.25;-0.20166;0.023438;0.992188;-0.63;0.63;0.56;248.0;-0.208312;0.003294;4.25;5.0;2.5;4.0;0.25;1.0;0.0;0.5;0.0;0.0;0.25;0.0;0.75;0.5;0.25;0.25;-0.238281;0.038086;0.981445;-0.63;-0.91;0.7;219.0;-0.269829;-0.095839
0.8;6.75;3.5;2.75;2.25;0.25;0.75;0.0;0.5;2.0;0.25;0.25;0.5;0.25;0.5;0.25;0.25;-0.200684;0.029785;0.992676;-0.63;0.84;0.49;244.0;-0.205534;-0.004504;4.25;5.0;2.5;4.25;0.25;1.0;0.0;0.5;0.0;0.0;0.25;0.25;0.75;0.5;0.25;0.25;-0.234375;0.041992;0.978516;-0.7;-0.98;0.63;225.0;-0.263929;-0.100116
0.81;6.5;3.75;2.75;2.25;0.25;0.75;0.0;0.5;2.0;0.25;0.0;0.5;0.25;0.75;0.25;0.25;-0.202637;0.020508;0.996094;-0.7;0.84;0.49;243.0;-0.204595;-0.004449;4.25;4.75;2.5;4.0;0.0;1.0;0.0;0.75;0.0;0.0;0.0;0.25;0.75;0.5;0.0;0.25;-0.233398;0.040039;0.973633;-0.7;-0.91;0.7;215.0;-0.274347;-0.105536
0.82;6.75;3.5;3.0;2.5;0.25;0.75;0.0;0.5;2.0;0.25;0.25;0.5;0.25;0.75;0.0;0.25;-0.199219;0.023926;0.991699;-0.49;0.98;0.56;249.0;-0.208548;-0.003418;4.25;4.75;2.75;4.25;0.0;1.0;0.0;0.75;0.0;0.0;0.0;0.25;0.75;0.75;0.0;0.25;-0.238281;0.042969;0.981445;-0.7;-0.91;0.7;223.0;-0.26726;-0.101532
0.83;7.0;3.75;3.25;2.5;0.25;0.75;0.0;0.5;2.0;0.25;0.25;0.5;0.25;0.5;0.0;0.25;-0.206055;0.025391;0.994141;-0.49;0.77;0.56;255.0;-0.219084;-0.004319;4.25;5.0;2.5;4.0;0.25;1.25;0.0;0.75;0.0;0.25;0.0;0.25;0.75;0.75;0.0;0.25;-0.234863;0.040039;0.978027;-0.77;-0.98;0.77;229.0;-0.25899;-0.101208
0.84;6.75;4.0;3.0;2.5;0.25;0.5;0.0;0.25;1.75;0.5;0.25;0.25;0.25;0.5;0.25;0.25;-0.196777;0.027344;0.996582;-0.63;0.84;0.49;244.0;-0.222059;0.000649;4.0;4.75;2.5;4.25;0.25;1.0;0.0;0.5;0.0;0.0;0.0;0.25;0.75;0.5;0.0;0.0;-0.228027;0.037598;0.976074;-0.7;-0.98;0.77;212.0;-0.280274;-0.100657
0.85;6.75;4.25;3.25;2.5;0.25;0.75;0.0;0.25;2.0;0.5;0.25;0.25;0.25;0.75;0.25;0.25;-0.20459;0.025879;0.995605;-0.63;0.98;0.49;259.0;-0.211351;0.002297;4.25;4.75;2.75;4.0;0.0;1.0;0.0;0.5;0.0;0.25;0.25;0.25;0.75;0.25;0.25;0.25;-0.23291;0.036133;0.976562;-0.77;-0.84;0.7;220.0;-0.264391;-0.098047
0.86;7.0;4.0;3.25;2.25;0.25;0.75;0.0;0.5;2.0;0.5;0.25;0.25;0.25;0.75;0.0;0.25;-0.204102;0.019531;0.994629;-0.63;0.77;0.56;257.0;-0.214238;0.00233;4.25;4.75;2.5;4.0;0.0;1.0;0.0;0.5;0.0;0.25;0.25;0.25;0.75;0.5;0.25;0.25;-0.237305;0.040039;0.976074;-0.84;-0.84;0.63;219.0;-0.257209;-0.097735
0.87;7.0;3.75;3.0;2.25;0.25;0.75;0.0;0.25;2.0;0.5;0.5;0.25;0.25;0.5;0.0;0.25;-0.205566;0.025879;0.992188;-0.63;0.91;0.49;248.0;-0.215732;0.006584;4.25;4.75;2.5;3.75;0.0;1.0;0.0;0.75;0.0;0.25;0.25;0.25;0.75;0.5;0.25;0.0;-0.233398;0.038574;0.977051;-0.84;-0.98;0.7;219.0;-0.256317;-0.100126
0.88;7.0;3.5;3.0;2.25;0.25;0.75;0.0;0.25;2.0;0.5;0.5;0.25;0.0;0.75;0.0;0.25;-0.196777;0.029785;0.99707;-0.49;0.7;0.63;245.0;-0.211421;0.014466;4.0;4.75;2.5;4.0;0.0;1.25;0.0;0.5;0.0;0.0;0.0;0.25;0.75;0.5;0.0;0.0;-0.235352;0.041992;0.981934;-0.84;-0.84;0.77;209.0;-0.280571;-0.103647
0.89;7.0;3.5;2.75;2.25;0.25;0.75;0.0;0.25;1.75;0.25;0.5;0.5;0.0;0.75;0.25;0.5;-0.202637;0.024414;0.995117;-0.77;0.77;0.49;243.0;-0.207144;0.002316;4.25;5.0;2.75;4.25;0.25;1.25;0.0;0.5;0.0;0.0;0.0;0.25;0.75;0.5;0.0;0.0;-0.233398;0.039551;0.981934;-0.84;-0.98;0.77;224.0;-0.281462;-0.098447
0.9;6.75;3.25;2.75;2.25;0.25;0.75;0.0;0.25;1.75;0.25;0.75;0.5;0.25;0.75;0.25;0.25;-0.200684;0.026367;0.989258;-0.56;0.77;0.49;242.0;-0.197346;-0.001158;4.25;5.0;2.75;4.25;0.25;1.0;0.0;0.75;0.0;0.25;0.0;0.25;0.75;0.5;0.25;0.25;-0.237793;0.038574;0.980469;-0.84;-0.98;0.56;232.0;-0.259297;-0.100657
0.91;6.75;3.5;2.75;2.25;0.25;0.75;0.0;0.25;1.75;0.25;0.5;0.5;0.25;0.75;0.0;0.25;-0.20459;0.027832;0.990723;-0.63;0.77;0.56;238.0;-0.212015;-0.000552;4.0;4.75;2.75;4.0;0.25;1.0;0.0;0.75;0.0;0.0;0.0;0.25;0.75;0.5;0.0;0.25;-0.235352;0.041016;0.981934;-0.84;-0.91;0.7;218.0;-0.270499;-0.103296
0.92;6.75;3.5;3.0;2.25;0.0;0.75;0.0;0.25;1.75;0.5;0.25;0.5;0.25;0.75;0.25;0.25;-0.20459;0.027344;0.991211;-0.63;0.7;0.49;241.0;-0.20627;0.00097;4.0;5.0;2.75;4.0;0.25;1.0;0.0;0.5;0.0;0.25;0.0;0.25;0.5;0.5;0.0;0.25;-0.230957;0.040039;0.980957;-0.77;-0.91;0.7;217.0;-0.275232;-0.092409
0.93;7.0;3.75;3.0;2.25;0.0;0.75;0.0;0.25;2.0;0.5;0.5;0.5;0.25;1.0;0.25;0.5;-0.199219;0.029785;0.992676;-0.63;0.84;0.56;257.0;-0.190392;0.002807;4.0;4.75;2.75;4.0;0.25;1.0;0.0;0.5;0.0;0.25;0.0;0.25;0.75;0.5;0.0;0.25;-0.236816;0.040039;0.978027;-0.7;-0.91;0.77;217.0;-0.268758;-0.095563
0.94;6.75;3.75;2.75;2.25;0.0;1.0;0.0;0.25;2.0;0.5;0.5;0.25;0.25;1.0;0.0;0.5;-0.208984;0.019043;0.995117;-0.56;0.63;0.56;248.0;-0.198126;0.001681;4.0;5.0;2.75;4.25;0.25;1.0;0.0;0.75;0.0;0.25;0.0;0.0;0.75;0.5;0.25;0.25;-0.233398;0.043457;0.974609;-0.7;-0.98;0.77;226.0;-0.263459;-0.100795
0.95;7.0;3.75;3.0;2.25;0.25;0.75;0.0;0.25;2.0;0.75;0.25;0.25;0.25;1.0;0.25;0.5;-0.203125;0.022461;0.995117;-0.7;0.7;0.56;257.0;-0.193977;0.008837;4.25;4.75;2.75;4.25;0.25;1.0;0.0;0.5;0.0;0.25;0.0;0.0;0.75;0.5;0.25;0.25;-0.231445;0.041016;0.974121;-0.63;-0.91;0.7;223.0;-0.2682;-0.091946
0.96;6.75;3.75;3.0;2.25;0.25;0.75;0.0;0.25;2.0;0.25;0.25;0.25;0.25;1.0;0.25;0.5;-0.204102;0.026367;0.991699;-0.56;0.7;0.56;248.0;-0.201532;0.006438;4.25;4.75;2.5;4.25;0.25;1.25;0.0;0.5;0.0;0.25;0.0;0.0;0.75;0.25;0.25;0.25;-0.234375;0.04248;0.978516;-0.7;-0.91;0.7;220.0;-0.273848;-0.099744
0.97;7.0;3.75;3.0;2.25;0.25;0.75;0.0;0.25;2.0;0.0;0.5;0.5;0.25;1.0;0.25;0.5;-0.202637;0.022949;0.996582;-0.63;0.77;0.56;254.0;-0.199257;0.002132;4.0;4.75;2.5;4.0;0.25;1.0;0.0;0.75;0.0;0.25;0.0;0.0;0.75;0.5;0.25;0.25;-0.230469;0.039551;0.983398;-0.7;-0.98;0.7;218.0;-0.261327;-0.100992
0.98;6.75;3.5;3.0;2.25;0.25;0.75;0.0;0.25;2.0;0.25;0.5;0.5;0.25;1.0;0.25;0.5;-0.199219;0.022461;0.999023;-0.7;0.7;0.56;252.0;-0.189822;0.003314;4.0;4.75;2.5;4.25;0.0;1.0;0.0;0.75;0.0;0.25;0.25;0.0;0.75;0.5;0.25;0.25;-0.232422;0.040527;0.973633;-0.63;-0.91;0.7;221.0;-0.257218;-0.105075
0.99;6.75;3.5;3.0;2.25;0.25;0.75;0.0;0.25;2.0;0.25;0.5;0.5;0.25;0.75;0.25;0.5;-0.197266;0.024414;0.995605;-0.63;0.77;0.56;249.0;-0.19543;0.001691;4.0;5.0;2.5;4.0;0.25;1.25;0.0;0.75;0.0;0.25;0.25;0.25;0.75;0.5;0.25;0.25;-0.233398;0.040039;0.97168;-0.77;-1.05;0.7;229.0;-0.249618;-0.106573
1.0;6.5;3.5;2.75;2.5;0.25;0.75;0.0;0.25;2.0;0.25;0.25;0.5;0.0;0.5;0.0;0.5;-0.203125;0.024902;0.991699;-0.56;0.84;0.56;236.0;-0.215245;0.001729;4.0;4.75;2.75;3.75;0.25;1.0;0.0;0.75;0.0;0.25;0.25;0.25;0.75;0.25;0.25;0.0;-0.241699;0.040527;0.975098;-0.84;-0.98;0.7;220.0;-0.259826;-0.100916
1.01;6.75;3.5;2.75;2.5;0.25;0.75;0.0;0.25;2.0;0.0;0.25;0.25;0.0;0.75;0.0;0.5;-0.200195;0.030273;0.993164;-0.56;0.77;0.63;236.0;-0.222006;0.007642;4.0;4.75;2.75;4.0;0.25;1.0;0.0;0.75;0.0;0.0;0.25;0.25;0.75;0.5;0.25;0.0;-0.235352;0.035156;0.979004;-0.77;-0.91;0.63;222.0;-0.259575;-0.101787
1.02;6.75;3.5;2.75;2.5;0.25;0.75;0.0;0.25;2.0;0.25;0.5;0.25;0.0;1.0;0.0;0.5;-0.201172;0.019531;0.990723;-0.63;0.91;0.49;244.0;-0.2053;0.00847;4.0;4.75;2.5;4.25;0.25;1.0;0.0;0.75;0.0;0.0;0.25;0.25;0.75;0.5;0.25;0.0;-0.230957;0.038086;0.980957;-0.91;-1.05;0.7;222.0;-0.259872;-0.106069
1.03;7.0;4.0;2.5;2.5;0.25;1.0;0.0;0.25;1.75;0.25;0.5;0.25;0.25;1.0;0.25;0.5;-0.202148;0.027344;0.990723;-0.56;0.84;0.56;253.0;-0.20647;-0.007328;4.0;5.0;2.5;4.25;0.25;1.25;0.0;0.75;0.25;0.25;0.25;0.25;0.75;0.25;0.25;0.25;-0.231445;0.039551;0.979004;-0.77;-0.98;0.77;233.0;-0.248938;-0.105083
1.04;6.25;3.5;3.0;2.25;0.25;0.75;0.0;0.25;1.75;0.25;0.25;0.5;0.25;0.5;0.25;0.5;-0.20166;0.027832;0.989258;-0.56;0.77;0.49;235.0;-0.208436;-0.005348;3.75;4.75;2.75;4.0;0.25;1.25;0.0;0.5;0.0;0.0;0.25;0.25;0.75;0.5;0.25;0.25;-0.234863;0.038574;0.983398;-0.77;-0.98;0.7;220.0;-0.256775;-0.102745
1.05;6.5;3.25;3.0;2.25;0.25;0.75;0.0;0.25;1.75;0.25;0.5;0.5;0.25;0.5;0.25;0.5;-0.208008;0.022461;0.993164;-0.56;0.7;0.49;238.0;-0.203331;-0.003617;4.0;4.75;2.5;4.0;0.25;1.25;0.0;0.5;0.0;0.25;0.0;0.25;0.5;0.5;0.25;0.25;-0.240234;0.038574;0.975098;-0.84;-0.91;0.7;217.0;-0.263032;-0.096442
1.06;6.25;3.25;3.0;2.25;0.0;1.0;0.0;0.25;2.0;0.5;0.25;0.5;0.0;0.75;0.25;0.5;-0.198242;0.030273;0.993652;-0.56;0.7;0.49;239.0;-0.19197;0.003468;4.25;4.5;2.5;4.0;0.25;1.25;0.0;0.5;0.0;0.0;0.0;0.5;0.75;0.5;0.0;0.25;-0.236328;0.038574;0.977051;-0.63;-0.98;0.77;217.0;-0.267566;-0.101849
1.07;6.25;3.25;3.0;2.25;0.0;0.75;0.0;0.25;1.75;0.25;0.25;0.25;0.25;1.5;0.25;0.5;-0.203125;0.023438;0.999023;-0.56;0.63;0.63;236.0;-0.187918;0.006279;4.25;4.75;2.5;4.25;0.25;1.0;0.0;0.75;0.0;0.0;0.0;0.25;0.75;0.25;0.0;0.25;-0.235352;0.040527;0.977051;-0.7;-1.12;0.77;219.0;-0.279778;-0.10789
1.08;6.5;3.25;3.0;2.25;0.25;0.75;0.0;0.5;2.0;0.25;0.25;0.25;0.25;0.75;0.25;0.5;-0.20459;0.021484;0.993164;-0.7;0.84;0.56;242.0;-0.197336;0.000352;4.0;4.75;2.5;4.0;0.25;1.0;0.0;0.75;0.0;0.0;0.25;0.25;0.75;0.5;0.25;0.25;-0.233398;0.041992;0.981934;-0.56;-0.98;0.7;221.0;-0.255332;-0.105846
1.09;6.75;3.0;3.0;2.5;0.25;0.75;0.0;0.5;2.0;0.5;0.5;0.5;0.25;0.5;0.25;0.5;-0.199707;0.024414;0.98291;-0.63;0.7;0.56;252.0;-0.189762;-0.005068;4.0;4.75;2.75;4.25;0.0;1.0;0.0;0.75;0.0;0.0;0.25;0.25;0.75;0.5;0.25;0.25;-0.237305;0.036621;0.97998;-0.56;-0.98;0.77;224.0;-0.257646;-0.107023
1.1;6.75;3.5;3.0;2.5;0.25;1.0;0.0;0.25;2.0;0.5;0.25;0.5;0.25;1.25;0.25;0.25;-0.204102;0.025391;0.992188;-0.63;0.77;0.56;258.0;-0.188135;0.002857;4.25;4.75;2.75;4.25;0.0;1.25;0.0;0.75;0.0;0.25;0.25;0.25;0.75;0.75;0.5;0.25;-0.235352;0.036621;0.977539;-0.63;-0.98;0.84;238.0;-0.237532;-0.101406
1.11;7.0;3.5;2.5;2.25;0.25;1.0;0.0;0.25;2.25;0.5;0.0;0.5;0.25;0.75;0.0;0.25;-0.206055;0.022949;0.992676;-0.56;0.7;0.49;245.0;-0.204147;0.007738;4.0;4.75;2.5;4.0;0.25;1.0;0.0;0.75;0.0;0.25;0.25;0.25;0.75;0.75;0.5;0.25;-0.234863;0.043945;0.980957;-0.56;-0.98;0.63;229.0;-0.234091;-0.100566
1.12;7.25;3.0;3.0;2.25;0.25;0.75;0.0;0.25;2.0;0.5;0.25;0.25;0.25;0.5;0.25;0.25;-0.199219;0.025879;0.989746;-0.63;0.77;0.49;243.0;-0.209517;0.013536;4.5;4.75;2.5;4.0;0.25;1.0;0.0;0.75;0.0;0.0;0.25;0.25;0.75;0.75;0.25;0.5;-0.23584;0.039551;0.980469;-0.63;-0.98;0.7;230.0;-0.248273;-0.099047
1.13;6.5;3.25;3.0;2.25;0.25;0.75;0.0;0.25;2.0;0.5;0.25;0.5;0.25;0.5;0.25;0.5;-0.20166;0.025879;0.999512;-0.56;0.7;0.56;242.0;-0.19639;0.002618;4.25;4.75;2.5;4.0;0.0;1.0;0.0;0.75;0.0;0.25;0.0;0.25;0.75;0.75;0.25;0.5;-0.23584;0.037109;0.978027;-0.63;-1.05;0.77;224.0;-0.247816;-0.101534
1.14;6.5;3.25;2.75;2.25;0.25;0.75;0.0;0.25;2.0;0.5;0.5;0.25;0.25;0.75;0.0;0.25;-0.197266;0.030273;0.997559;-0.56;0.84;0.49;237.0;-0.200159;0.00843;3.75;4.75;2.5;4.25;0.25;1.5;0.0;0.75;0.0;0.25;0.25;0.25;0.75;0.75;0.25;0.0;-0.234375;0.043945;0.987305;-0.84;-1.05;0.77;231.0;-0.242396;-0.108059
1.15;6.5;3.25;2.75;2.25;0.25;0.75;0.0;0.25;1.75;0.5;0.5;0.25;0.0;0.75;0.25;0.25;-0.203613;0.029785;0.996094;-0.84;0.98;0.42;234.0;-0.203417;0.007985;4.0;4.75;2.5;4.25;0.25;1.25;0.0;0.75;0.0;0.25;0.25;0.25;0.75;0.75;0.25;0.0;-0.236328;0.037598;0.976074;-0.7;-0.91;0.7;230.0;-0.245536;-0.103268
1.16;6.75;3.5;3.0;2.25;0.25;0.75;0.0;0.25;1.75;0.5;0.25;0.25;0.0;0.5;0.25;0.25;-0.205078;0.026855;0.992676;-0.7;0.7;0.49;237.0;-0.220102;0.008217;4.0;4.75;2.5;4.25;0.0;1.0;0.0;0.75;0.0;0.25;0.25;0.25;0.75;0.75;0.25;0.25;-0.237793;0.039062;0.974121;-0.84;-0.91;0.56;226.0;-0.244388;-0.104599
1.17;7.0;3.5;3.0;2.25;0.0;0.75;0.0;0.5;2.0;0.25;0.5;0.25;0.25;0.75;0.25;0.25;-0.203125;0.031738;0.995605;-0.63;0.77;0.56;249.0;-0.203561;0.000931;4.0;4.5;2.75;4.25;0.0;1.0;0.0;0.75;0.0;0.0;0.25;0.25;0.75;0.5;0.25;0.25;-0.23877;0.039062;0.979004;-0.77;-0.91;0.7;221.0;-0.255835;-0.10635
1.18;6.75;3.75;3.0;2.25;0.0;0.75;0.0;0.25;2.0;0.25;0.5;0.25;0.0;0.5;0.25;0.25;-0.203125;0.025879;0.990723;-0.63;0.84;0.49;240.0;-0.216388;0.007548;3.75;4.75;2.5;4.25;0.0;1.0;0.0;0.75;0.0;0.0;0.25;0.0;0.75;0.5;0.25;0.25;-0.239258;0.041016;0.977051;-0.77;-0.91;0.77;215.0;-0.261873;-0.110123
1.19;6.75;3.25;2.75;2.25;0.25;0.75;0.0;0.25;2.0;0.25;0.5;0.5;0.0;0.5;0.25;0.25;-0.200684;0.022949;0.992676;-0.63;0.7;0.56;238.0;-0.205203;0.007182;4.0;4.75;2.5;4.0;0.0;1.25;0.0;0.75;0.0;0.25;0.25;0.25;0.75;0.5;0.25;0.25;-0.237305;0.037598;0.97998;-0.7;-0.91;0.77;224.0;-0.249404;-0.108155
1.2;7.0;3.25;3.0;2.25;0.25;0.75;0.0;0.25;2.0;0.25;0.5;0.25;0.25;0.75;0.0;0.25;-0.202637;0.029297;0.998535;-0.63;0.91;0.42;242.0;-0.210887;0.011141;4.0;4.75;2.5;4.0;0.0;1.25;0.0;0.75;0.0;0.25;0.25;0.25;0.75;0.75;0.25;0.25;-0.236328;0.041016;0.975586;-0.77;-0.91;0.7;226.0;-0.242601;-0.105218
1.21;7.25;3.25;3.0;2.25;0.25;0.75;0.0;0.25;2.0;0.25;0.25;0.25;0.25;0.75;0.0;0.25;-0.202148;0.024902;0.989746;-0.63;0.91;0.56;242.0;-0.218286;0.013781;3.75;4.75;2.5;4.0;0.25;1.0;0.0;0.75;0.0;0.25;0.25;0.25;0.75;0.5;0.25;0.25;-0.237793;0.037109;0.979004;-0.7;-0.84;0.7;221.0;-0.247054;-0.106412
1.22;7.0;3.25;3.0;2.25;0.25;0.75;0.0;0.25;2.0;0.5;0.25;0.25;0.0;1.0;0.25;0.25;-0.202148;0.029297;0.996094;-0.63;0.63;0.56;245.0;-0.201272;0.018259;4.0;4.75;2.75;4.0;0.0;1.0;0.0;0.75;0.25;0.25;0.0;0.25;0.75;0.5;0.25;0.25;-0.233398;0.037109;0.977051;-0.84;-0.98;0.77;224.0;-0.248907;-0.097091
1.23;6.75;3.75;3.0;2.25;0.25;0.75;0.0;0.25;2.0;0.25;0.25;0.25;0.25;0.75;0.25;0.5;-0.199219;0.027344;0.991699;-0.63;0.77;0.56;246.0;-0.207323;0.004823;4.0;4.75;2.5;4.0;0.0;1.0;0.0;0.75;0.25;0.0;0.0;0.25;0.75;0.75;0.25;0.25;-0.234375;0.040039;0.978027;-0.7;-0.98;0.77;221.0;-0.248023;-0.098849
1.24;6.75;3.25;3.0;2.25;0.25;0.75;0.0;0.25;2.0;0.25;0.25;0.25;0.25;0.75;0.25;0.25;-0.197754;0.022949;0.990723;-0.63;0.77;0.56;240.0;-0.20643;0.010387;3.5;4.75;2.5;4.0;0.0;1.0;0.0;0.75;0.0;0.25;0.0;0.25;0.75;0.75;0.25;0.25;-0.23877;0.039551;0.976074;-0.77;-0.98;0.7;214.0;-0.245863;-0.108398
1.25;7.0;3.25;3.0;2.25;0.0;0.75;0.0;0.25;1.75;0.25;0.25;0.25;0.25;0.5;0.25;0.0;-0.20459;0.02832;0.994141;-0.56;0.84;0.56;232.0;-0.226821;0.007256;4.0;4.25;2.5;4.0;0.0;1.0;0.0;0.75;0.0;0.0;0.0;0.25;0.75;0.75;0.25;0.25;-0.236816;0.044922;0.977051;-0.84;-0.91;0.7;212.0;-0.252519;-0.103541
1.26;6.75;3.25;2.75;2.25;0.0;0.75;0.0;0.25;2.0;0.25;0.25;0.25;0.0;0.5;0.25;0.25;-0.199707;0.024414;0.990234;-0.56;0.77;0.56;229.0;-0.21685;0.011825;4.0;4.5;2.5;3.75;0.0;1.25;0.0;0.75;0.0;0.0;0.25;0.0;0.5;0.5;0.25;0.25;-0.235352;0.040039;0.973145;-0.77;-0.98;0.77;210.0;-0.26447;-0.101586
1.27;7.0;3.25;2.75;2.25;0.0;0.5;0.0;0.25;2.0;0.25;0.5;0.5;0.0;1.0;0.25;0.25;-0.198242;0.023438;0.996094;-0.56;0.91;0.63;239.0;-0.197215;0.0145;4.0;4.5;2.5;4.0;0.25;1.25;0.0;0.75;0.0;0.0;0.25;0.25;0.75;0.5;0.25;0.25;-0.231934;0.037598;0.974121;-0.7;-0.98;0.7;221.0;-0.252108;-0.107406
1.28;6.75;3.0;3.0;2.5;0.0;0.75;0.0;0.25;2.0;0.5;0.5;0.25;0.25;0.5;0.25;0.25;-0.202148;0.026855;0.988281;-0.63;0.91;0.56;240.0;-0.201803;0.006183;4.0;4.5;2.5;4.0;0.0;1.0;0.0;0.5;0.0;0.0;0.25;0.25;1.0;0.5;0.25;0.25;-0.233887;0.041504;0.980469;-0.77;-0.98;0.7;213.0;-0.25531;-0.105832
1.29;6.75;3.25;2.75;2.5;0.25;1.0;0.0;0.25;2.0;0.5;0.5;0.25;0.25;0.75;0.25;0.25;-0.203125;0.023926;0.991699;-0.56;0.84;0.49;248.0;-0.195937;0.002341;4.0;4.5;2.5;4.0;0.0;1.0;0.0;0.75;0.0;0.25;0.0;0.0;0.75;0.5;0.25;0.25;-0.237793;0.038574;0.981445;-0.84;-0.98;0.7;212.0;-0.261405;-0.102513
1.3;7.25;3.25;2.75;2.5;0.25;1.0;0.0;0.25;2.0;0.5;0.5;0.25;0.25;0.5;0.0;0.5;-0.200195;0.02832;0.992188;-0.7;0.91;0.56;250.0;-0.209893;0.00222;4.0;4.75;2.5;3.75;0.25;1.0;0.0;0.75;0.0;0.25;0.25;0.0;0.75;0.5;0.25;0.25;-0.233398;0.040039;0.976074;-0.91;-1.05;0.7;218.0;-0.254564;-0.099482
1.31;7.25;3.5;2.75;2.25;0.25;0.75;0.0;0.25;1.75;0.25;0.5;0.25;0.25;0.5;0.25;0.5;-0.208984;0.023926;0.986816;-0.63;0.84;0.56;243.0;-0.216625;0.000924;3.75;4.75;2.5;4.0;0.25;1.0;0.0;0.5;0.0;0.0;0.25;0.25;0.75;0.5;0.25;0.25;-0.231445;0.036133;0.978027;-0.84;-0.98;0.7;214.0;-0.258106;-0.103118
1.32;6.25;3.5;2.75;2.25;0.25;0.75;0.0;0.25;2.25;0.25;0.5;0.5;0.25;0.5;0.25;0.5;-0.199707;0.027832;0.995117;-0.7;0.77;0.56;242.0;-0.188841;0.00042;3.75;4.75;2.5;3.75;0.0;1.0;0.0;0.75;0.0;0.0;0.0;0.25;1.0;0.5;0.25;0.25;-0.236816;0.037598;0.975586;-0.77;-0.98;0.7;211.0;-0.25652;-0.11323
1.33;7.25;3.5;2.75;2.0;0.25;0.75;0.0;0.25;2.25;0.0;0.5;0.5;0.0;0.5;0.25;0.25;-0.200684;0.026367;0.98877;-0.7;0.91;0.56;244.0;-0.209401;0.013869;4.0;4.75;2.5;3.75;0.0;1.0;0.0;0.75;0.0;0.25;0.25;0.25;0.75;0.5;0.25;0.25;-0.235352;0.040039;0.980957;-0.7;-1.12;0.77;218.0;-0.250206;-0.104294
1.34;7.25;3.25;3.0;2.25;0.25;0.75;0.0;0.25;2.25;0.25;0.5;0.25;0.0;0.5;0.25;0.25;-0.199707;0.024902;0.991211;-0.56;0.91;0.56;247.0;-0.208632;0.017928;4.0;4.75;2.5;4.0;0.0;1.5;0.0;0.75;0.25;0.0;0.25;0.25;0.75;0.5;0.25;0.25;-0.233887;0.039551;0.978516;-0.7;-1.05;0.77;227.0;-0.246298;-0.106443
1.35;7.0;3.25;2.75;2.25;0.25;0.75;0.0;0.25;2.0;0.25;0.5;0.25;0.25;0.5;0.25;0.25;-0.203125;0.028809;0.989258;-0.77;0.91;0.63;240.0;-0.208836;0.007422;4.0;4.5;2.5;4.25;0.25;1.25;0.0;0.75;0.25;0.25;0.25;0.25;0.75;0.5;0.25;0.0;-0.235352;0.041992;0.977051;-0.77;-1.05;0.7;229.0;-0.242487;-0.099529
1.36;7.0;3.25;2.75;2.25;0.25;0.75;0.0;0.25;2.0;0.25;0.5;0.5;0.25;0.75;0.25;0.5;-0.20166;0.030762;0.992188;-0.7;0.98;0.49;247.0;-0.194687;0.003552;4.0;4.5;2.5;4.0;0.25;1.25;0.0;0.75;0.25;0.25;0.25;0.25;0.75;0.75;0.25;0.0;-0.237305;0.040039;0.978516;-0.77;-0.98;0.77;228.0;-0.235239;-0.095067
1.37;6.5;3.25;2.75;2.25;0.25;0.75;0.0;0.25;2.0;0.5;0.5;0.5;0.25;1.0;0.0;0.5;-0.202637;0.024902;0.991211;-0.63;0.84;0.63;243.0;-0.186054;0.004479;3.75;4.5;2.5;4.0;0.25;1.0;0.0;0.5;0.25;0.25;0.0;0.25;0.75;0.5;0.5;0.25;-0.238281;0.04248;0.976562;-0.7;-1.05;0.7;218.0;-0.238901;-0.093562
1.38;6.75;3.5;3.0;2.25;0.25;0.75;0.0;0.25;2.0;0.25;0.75;0.5;0.25;1.0;0.0;0.5;-0.203125;0.020508;0.992188;-0.77;0.84;0.49;252.0;-0.191902;0.002933;4.0;4.5;2.5;4.0;0.25;1.0;0.0;0.75;0.25;0.25;0.25;0.25;1.0;0.5;0.5;0.25;-0.237793;0.041504;0.981934;-0.77;-1.05;0.7;230.0;-0.226856;-0.100522
1.39;7.5;3.25;2.75;2.25;0.25;0.5;0.0;0.25;2.0;0.25;0.25;0.5;0.25;1.0;0.0;0.5;-0.20166;0.029297;0.990234;-0.7;0.84;0.56;246.0;-0.20618;0.013352;4.0;4.75;2.5;4.0;0.25;1.0;0.0;0.75;0.25;0.25;0.25;0.25;1.0;0.5;0.25;0.25;-0.239746;0.041992;0.983887;-0.77;-1.12;0.7;230.0;-0.236863;-0.101471
1.4;6.75;3.25;2.75;2.25;0.25;0.75;0.0;0.25;1.75;0.25;0.25;0.25;0.25;0.75;0.0;0.5;-0.199219;0.027832;0.992188;-0.56;0.77;0.56;232.0;-0.216772;0.004346;4.25;4.75;2.75;4.0;0.25;0.75;0.0;0.75;0.0;0.25;0.25;0.25;0.75;0.5;0.25;0.0;-0.23291;0.040039;0.977051;-0.84;-1.05;0.7;225.0;-0.256486;-0.094784
1.41;6.75;3.25;2.75;2.5;0.0;0.75;0.0;0.25;1.75;0.25;0.25;0.25;0.25;0.75;0.0;0.5;-0.203125;0.026367;0.994629;-0.63;0.84;0.63;232.0;-0.218874;0.00064;4.0;4.5;2.75;4.0;0.25;1.0;0.0;0.75;0.0;0.25;0.25;0.25;0.75;0.25;0.25;0.0;-0.236816;0.039551;0.976562;-0.91;-0.98;0.77;220.0;-0.25841;-0.101857
1.42;7.25;3.25;2.75;2.25;0.0;0.75;0.0;0.25;2.0;0.25;0.25;0.25;0.25;0.75;0.25;0.5;-0.199219;0.025879;0.995117;-0.77;0.77;0.49;241.0;-0.207832;0.009074;3.75;4.5;2.5;4.0;0.25;1.0;0.0;0.75;0.0;0.25;0.0;0.25;0.75;0.25;0.5;0.25;-0.233398;0.039062;0.981934;-0.84;-1.05;0.7;216.0;-0.249739;-0.108321
1.43;7.0;3.5;3.0;2.25;0.25;0.75;0.0;0.25;2.0;0.25;0.25;0.25;0.0;0.75;0.25;0.5;-0.199707;0.025391;0.998047;-0.7;0.84;0.56;244.0;-0.211067;0.012292;4.0;4.5;2.5;4.0;0.25;1.0;0.0;0.75;0.0;0.25;0.25;0.25;1.0;0.5;0.25;0.25;-0.23291;0.039062;0.977539;-0.91;-0.98;0.7;223.0;-0.242731;-0.106757
1.44;6.5;3.5;3.0;2.25;0.0;0.75;0.0;0.25;1.75;0.25;0.0;0.25;0.0;0.75;0.25;0.5;-0.200684;0.026367;0.986328;-0.63;0.84;0.56;229.0;-0.220199;0.006771;3.75;4.75;2.5;4.0;0.0;1.0;0.0;0.5;0.25;0.25;0.0;0.25;0.75;0.25;0.0;0.25;-0.236328;0.039062;0.978516;-0.84;-1.05;0.77;209.0;-0.267625;-0.099981
1.45;7.0;3.25;2.75;2.25;0.0;0.5;0.0;0.25;1.5;0.25;0.0;0.25;0.25;0.75;0.0;0.25;-0.200684;0.024902;0.995117;-0.77;0.84;0.56;221.0;-0.23857;0.007968;3.75;4.75;2.5;4.0;0.0;1.0;0.0;0.75;0.0;0.25;0.0;0.25;0.75;0.5;0.25;0.25;-0.239258;0.043945;0.976074;-0.91;-1.12;0.63;215.0;-0.255048;-0.108628
1.46;7.0;3.25;3.0;2.25;0.25;0.75;0.0;0.25;1.75;0.5;0.25;0.25;0.25;0.5;0.25;0.5;-0.204102;0.023926;1.0;-0.63;0.77;0.56;241.0;-0.21282;0.004652;3.75;4.75;2.5;4.25;0.0;1.25;0.0;0.75;0.0;0.0;0.25;0.25;0.75;0.5;0.25;0.25;-0.237793;0.039062;0.981445;-0.91;-1.05;0.77;221.0;-0.254252;-0.114731
1.47;7.25;3.25;3.0;2.25;0.25;0.75;0.0;0.25;1.75;0.5;0.25;0.25;0.25;0.5;0.0;0.5;-0.204102;0.029297;0.989746;-0.63;0.84;0.56;241.0;-0.222442;0.006909;3.75;4.5;2.5;4.25;0.25;1.0;0.0;0.75;0.0;0.0;0.25;0.25;0.75;0.5;0.25;0.25;-0.239258;0.040039;0.977539;-0.84;-1.05;0.7;218.0;-0.251996;-0.109565
1.48;6.75;3.25;3.0;2.25;0.25;0.75;0.0;0.25;2.0;0.5;0.25;0.25;0.0;0.5;0.25;0.5;-0.200684;0.026367;0.989746;-0.63;0.7;0.63;239.0;-0.207317;0.012037;3.75;4.75;2.5;4.0;0.0;1.0;0.0;0.75;0.25;0.0;0.25;0.0;1.0;0.5;0.25;0.0;-0.234863;0.041016;0.981445;-0.77;-1.05;0.7;216.0;-0.252524;-0.104614
1.49;6.5;3.5;3.0;2.25;0.25;0.75;0.0;0.25;1.75;0.25;0.25;0.5;0.0;0.25;0.25;0.5;-0.208984;0.025391;0.991699;-0.63;0.91;0.56;233.0;-0.220801;-0.001177;4.0;4.75;2.75;4.25;0.25;1.25;0.0;0.75;0.0;0.0;0.25;0.0;0.75;0.5;0.0;0.25;-0.233398;0.041504;0.973633;-0.7;-1.05;0.77;224.0;-0.26899;-0.104865
1.5;6.75;3.5;3.0;2.25;0.25;0.75;0.0;0.25;2.0;0.25;0.25;0.25;0.0;0.5;0.25;0.25;-0.199219;0.024414;0.987793;-0.63;0.84;0.49;237.0;-0.218438;0.011557;4.0;5.0;2.75;4.0;0.25;1.0;0.0;0.75;0.0;0.0;0.0;0.25;0.75;0.5;0.0;0.0;-0.238281;0.038086;0.978516;-0.84;-1.12;0.77;219.0;-0.276446;-0.102599
1.51;7.25;3.25;3.0;2.25;0.25;0.75;0.0;0.25;1.75;0.25;0.5;0.25;0.0;0.75;0.0;0.25;-0.202148;0.022949;0.988281;-0.63;0.98;0.56;239.0;-0.223884;0.013014;4.0;4.75;2.5;4.0;0.0;1.0;0.0;0.75;0.0;0.0;0.0;0.25;0.75;0.5;0.25;0.0;-0.233887;0.040527;0.97998;-0.7;-0.98;0.7;213.0;-0.267885;-0.106621
1.52;6.75;3.25;2.75;2.25;0.25;0.75;0.0;0.25;1.75;0.25;0.25;0.25;0.0;0.25;0.25;0.5;-0.200684;0.028809;0.989746;-0.63;0.7;0.56;227.0;-0.225746;0.00454;4.0;4.75;2.75;4.25;0.0;1.25;0.0;0.75;0.0;0.25;0.0;0.25;0.75;0.5;0.25;0.25;-0.234375;0.040039;0.978027;-0.77;-1.05;0.77;227.0;-0.256119;-0.106945
1.53;6.25;3.25;3.0;2.0;0.0;0.75;0.0;0.25;2.0;0.25;0.25;0.5;0.25;0.25;0.25;0.25;-0.204102;0.02832;0.991699;-0.7;0.7;0.56;226.0;-0.20892;0.003028;3.75;4.25;2.5;4.0;0.0;1.0;0.0;0.75;0.0;0.25;0.25;0.25;0.75;0.25;0.25;0.25;-0.23291;0.038086;0.983887;-0.84;-1.12;0.77;210.0;-0.252004;-0.110507
1.54;7.0;3.25;2.75;2.25;0.25;0.75;0.0;0.25;1.75;0.25;0.25;0.5;0.25;0.75;0.25;0.25;-0.197754;0.030273;0.994141;-0.7;0.84;0.56;239.0;-0.209928;0.002895;4.0;4.75;2.5;4.25;0.25;1.0;0.0;0.75;0.0;0.25;0.25;0.25;0.75;0.5;0.0;0.25;-0.232422;0.044434;0.976074;-0.7;-0.98;0.7;224.0;-0.25796;-0.105589
1.55;7.25;4.0;2.75;2.5;0.0;0.75;0.0;0.25;1.75;0.25;0.25;0.25;0.25;0.25;0.0;0.25;-0.200684;0.021484;0.994141;-0.7;0.84;0.49;239.0;-0.245386;-0.00357;4.0;4.75;2.75;4.25;0.25;1.25;0.0;0.75;0.0;0.0;0.25;0.25;0.75;0.5;0.0;0.25;-0.239746;0.046387;0.979004;-0.84;-1.12;0.84;227.0;-0.262917;-0.107285
1.56;7.0;3.5;2.75;2.5;0.25;0.75;0.0;0.25;1.75;0.25;0.5;0.25;0.25;0.25;0.0;0.25;-0.203125;0.01709;0.993652;-0.63;0.77;0.56;237.0;-0.232634;-0.001986;4.0;5.0;2.75;4.0;0.25;1.0;0.0;0.75;0.0;0.25;0.25;0.25;0.75;0.25;0.25;0.25;-0.235352;0.041992;0.976074;-0.84;-1.05;0.63;227.0;-0.257884;-0.104667
1.57;7.25;3.5;2.75;2.25;0.0;0.75;0.0;0.25;1.75;0.5;0.25;0.25;0.25;0.75;0.0;0.25;-0.205566;0.029297;0.997559;-0.7;0.84;0.56;238.0;-0.222606;0.006996;4.0;4.75;2.5;4.0;0.25;1.25;0.0;0.75;0.0;0.25;0.25;0.25;0.75;0.5;0.25;0.25;-0.232422;0.041992;0.979004;-0.77;-1.05;0.7;227.0;-0.24776;-0.105911
1.58;6.75;3.75;3.0;2.25;0.0;0.75;0.0;0.25;1.75;0.25;0.25;0.25;0.25;0.75;0.25;0.25;-0.199707;0.024414;0.99707;-0.56;0.7;0.56;238.0;-0.218855;0.002043;4.25;5.0;2.5;4.25;0.25;1.5;0.0;0.75;0.0;0.25;0.25;0.25;0.75;0.5;0.25;0.25;-0.235352;0.035156;0.978516;-0.91;-1.05;0.77;238.0;-0.250706;-0.107583
1.59;6.75;3.5;3.0;2.25;0.0;0.75;0.0;0.25;1.75;0.0;0.5;0.5;0.0;0.75;0.25;0.25;-0.197266;0.026855;0.986816;-0.56;0.7;0.63;236.0;-0.215535;0.002652;4.0;4.75;2.5;4.0;0.0;1.0;0.0;0.75;0.0;0.25;0.25;0.25;0.75;0.5;0.25;0.25;-0.236328;0.040527;0.979492;-0.7;-1.05;0.77;221.0;-0.250714;-0.105934
1.6;7.0;3.5;2.75;2.25;0.0;0.75;0.0;0.25;1.75;0.0;0.5;0.5;0.0;0.75;0.25;0.25;-0.20166;0.025879;0.992188;-0.56;0.63;0.63;236.0;-0.217141;0.002806;4.0;4.75;2.75;4.25;0.0;1.0;0.0;0.5;0.0;0.25;0.25;0.25;0.75;0.5;0.25;0.25;-0.230957;0.040527;0.979004;-0.7;-0.91;0.7;222.0;-0.255874;-0.099511
1.61;6.5;3.5;2.75;2.25;0.25;0.75;0.0;0.25;2.0;0.25;0.25;0.5;0.0;0.75;0.25;0.25;-0.202637;0.024902;0.993652;-0.63;0.7;0.56;237.0;-0.204237;0.007281;4.25;4.75;2.75;4.0;0.25;1.0;0.0;0.75;0.0;0.25;0.25;0.0;0.75;0.75;0.25;0.25;-0.241211;0.043945;0.980469;-0.77;-0.91;0.7;229.0;-0.250215;-0.093224
1.62;6.25;3.5;3.0;2.25;0.25;0.5;0.0;0.25;2.0;0.25;0.25;0.5;0.25;0.75;0.25;0.25;-0.198242;0.019043;0.98877;-0.63;0.7;0.56;236.0;-0.199579;0.005978;4.25;4.75;2.75;4.0;0.25;1.0;0.0;0.75;0.0;0.25;0.25;0.25;0.75;0.75;0.25;0.25;-0.233887;0.035645;0.977539;-0.77;-0.91;0.7;232.0;-0.244505;-0.095739
1.63;6.25;3.5;3.0;2.25;0.25;0.5;0.0;0.25;1.75;0.25;0.5;0.5;0.25;0.75;0.0;0.5;-0.199707;0.023926;0.990234;-0.63;0.7;0.49;234.0;-0.205232;-0.000548;4.0;4.75;2.75;4.0;0.25;1.25;0.0;0.75;0.25;0.25;0.25;0.25;1.0;0.5;0.25;0.25;-0.235352;0.043457;0.980957;-0.77;-0.91;0.7;236.0;-0.236165;-0.101166
1.64;6.25;3.5;3.0;2.25;0.25;1.0;0.0;0.25;2.0;0.25;0.25;0.5;0.25;1.0;0.0;0.25;-0.202148;0.022461;0.995117;-0.63;0.7;0.56;242.0;-0.199734;0.00181;3.75;5.0;2.5;4.0;0.25;1.0;0.0;0.75;0.25;0.25;0.25;0.25;0.75;0.5;0.25;0.25;-0.238281;0.037598;0.978027;-0.77;-0.98;0.63;227.0;-0.241001;-0.101074
1.65;6.25;3.5;3.25;2.25;0.25;0.75;0.0;0.25;1.75;0.25;0.5;0.25;0.25;1.0;0.0;0.25;-0.204102;0.026367;0.992188;-0.56;0.63;0.7;238.0;-0.207847;0.004457;4.0;5.0;2.75;4.0;0.25;1.0;0.0;0.75;0.25;0.25;0.25;0.25;0.75;0.75;0.25;0.25;-0.241211;0.038574;0.974121;-0.7;-0.91;0.7;235.0;-0.236818;-0.093325
1.66;6.75;3.5;3.0;2.25;0.25;0.75;0.0;0.25;1.75;0.25;0.25;0.25;0.0;0.75;0.25;0.25;-0.204102;0.027344;0.994629;-0.63;0.7;0.56;236.0;-0.219426;0.009212;4.0;4.75;2.5;4.0;0.25;1.25;0.0;0.75;0.0;0.25;0.25;0.0;0.75;0.25;0.5;0.5;-0.232422;0.041992;0.977539;-0.84;-0.84;0.63;226.0;-0.248069;-0.107468
1.67;7.0;3.5;3.0;2.5;0.25;0.75;0.0;0.25;1.75;0.25;0.25;0.0;0.0;0.25;0.0;0.25;-0.205566;0.027344;0.995605;-0.63;0.84;0.56;232.0;-0.248309;0.008949;4.25;5.0;2.75;4.0;0.0;1.0;0.0;0.75;0.0;0.0;0.25;0.25;0.75;0.25;0.25;0.5;-0.236816;0.043945;0.979492;-0.77;-0.98;0.7;225.0;-0.263696;-0.107695
1.68;7.0;3.5;2.75;2.5;0.25;0.75;0.0;0.25;1.75;0.5;0.5;0.25;0.0;0.25;0.25;0.25;-0.203613;0.02002;0.991211;-0.63;0.7;0.63;240.0;-0.223331;0.002345;4.25;4.5;2.5;4.0;0.0;1.0;0.0;0.5;0.25;0.0;0.0;0.25;0.75;0.5;0.25;0.5;-0.230957;0.045898;0.97998;-0.84;-0.98;0.77;216.0;-0.255554;-0.094142
1.69;7.0;3.5;2.75;2.25;0.25;0.75;0.0;0.25;1.75;0.25;0.5;0.25;0.0;0.75;0.0;0.25;-0.204102;0.023926;0.995605;-0.77;0.77;0.56;236.0;-0.223254;0.008966;4.0;4.5;2.5;4.25;0.0;1.0;0.0;0.75;0.0;0.25;0.0;0.25;0.75;0.5;0.25;0.5;-0.23584;0.036133;0.977539;-0.91;-0.98;0.77;220.0;-0.251397;-0.108135
1.7;7.0;3.75;2.5;2.25;0.25;0.75;0.0;0.25;2.0;0.25;0.25;0.25;0.25;0.75;0.0;0.25;-0.200684;0.019531;0.991699;-0.63;0.84;0.42;239.0;-0.219076;0.006921;4.0;4.75;2.75;4.0;0.0;0.75;0.0;0.5;0.0;0.25;0.25;0.25;0.75;0.5;0.25;0.5;-0.234863;0.039062;0.982422;-0.91;-0.98;0.7;218.0;-0.252663;-0.096874
1.71;7.25;3.5;2.75;2.5;0.0;0.75;0.0;0.25;2.25;0.25;0.25;0.25;0.0;0.75;0.25;0.5;-0.199707;0.025391;0.991211;-0.77;0.84;0.63;247.0;-0.207806;0.012767;4.0;4.75;2.75;4.25;0.0;1.0;0.0;0.75;0.0;0.0;0.25;0.25;0.75;0.5;0.0;0.5;-0.236328;0.040527;0.97168;-0.84;-0.98;0.63;222.0;-0.262102;-0.108717
1.72;6.5;3.5;2.75;2.25;0.0;0.75;0.0;0.25;2.0;0.25;0.25;0.25;0.25;0.75;0.25;0.5;-0.200684;0.024414;0.98877;-0.84;0.91;0.56;235.0;-0.203007;0.003584;4.0;4.5;2.5;4.25;0.0;1.0;0.0;0.75;0.0;0.0;0.25;0.5;0.75;0.25;0.0;0.5;-0.236328;0.036133;0.975586;-0.84;-0.98;0.7;217.0;-0.26122;-0.11636
1.73;6.5;3.75;3.0;2.25;0.25;0.75;0.0;0.25;2.0;0.25;0.25;0.5;0.0;0.75;0.25;0.25;-0.199219;0.023438;0.996582;-0.7;0.77;0.63;242.0;-0.207217;0.006509;4.0;4.75;2.5;4.0;0.0;1.25;0.0;0.75;0.0;0.25;0.25;0.25;0.75;0.5;0.0;0.25;-0.239258;0.039551;0.978027;-0.91;-1.05;0.7;221.0;-0.257936;-0.108492
1.74;6.75;3.5;2.75;2.25;0.0;0.75;0.0;0.25;2.0;0.25;0.25;0.25;0.0;0.75;0.25;0.25;-0.203613;0.028809;0.995117;-0.84;0.7;0.49;234.0;-0.212754;0.011555;4.0;5.0;2.5;4.0;0.0;0.75;0.0;0.75;0.0;0.25;0.25;0.25;0.75;0.5;0.25;0.25;-0.231445;0.039062;0.978516;-0.77;-1.05;0.63;220.0;-0.253944;-0.104367
1.75;7.25;3.75;3.0;2.25;0.25;0.75;0.0;0.25;2.0;0.25;0.25;0.0;0.25;0.75;0.0;0.25;-0.199219;0.030273;0.998535;-0.77;0.98;0.56;245.0;-0.227408;0.013723;4.25;5.0;2.75;4.25;0.25;1.0;0.0;0.5;0.0;0.0;0.25;0.25;0.75;0.5;0.25;0.25;-0.236816;0.038574;0.975098;-0.84;-1.05;0.7;228.0;-0.263949;-0.097582
1.76;7.0;3.75;3.0;2.25;0.25;0.75;0.0;0.25;1.75;0.25;0.25;0.25;0.25;0.5;0.0;0.25;-0.205078;0.023926;0.991699;-0.91;0.98;0.49;239.0;-0.233526;0.003358;4.25;5.25;2.75;4.25;0.25;1.25;0.0;0.5;0.0;0.25;0.25;0.25;0.75;0.5;0.25;0.0;-0.236816;0.040527;0.977051;-0.91;-0.98;0.7;235.0;-0.262008;-0.097224
1.77;7.0;3.75;3.0;2.25;0.25;0.75;0.0;0.25;1.75;0.5;0.25;0.25;0.25;0.5;0.25;0.25;-0.203125;0.023926;0.992188;-0.77;0.91;0.56;244.0;-0.220497;0.003059;4.0;4.75;2.5;4.25;0.25;1.5;0.0;0.75;0.25;0.25;0.25;0.25;0.75;0.5;0.25;0.0;-0.234863;0.038574;0.977051;-0.91;-1.05;0.7;235.0;-0.243213;-0.102442
1.78;7.25;3.75;3.0;2.25;0.25;0.75;0.0;0.25;2.0;0.5;0.25;0.25;0.25;0.5;0.0;0.25;-0.205078;0.024414;0.989746;-0.84;1.05;0.49;248.0;-0.222966;0.009164;4.0;4.75;2.75;4.0;0.25;1.0;0.0;0.75;0.25;0.25;0.0;0.25;0.75;0.5;0.25;0.25;-0.23291;0.037109;0.977539;-0.91;-0.98;0.7;227.0;-0.247276;-0.095
1.79;7.5;3.75;3.0;2.5;0.25;1.0;0.0;0.25;2.0;0.25;0.25;0.25;0.0;0.5;0.0;0.5;-0.201172;0.023438;0.999512;-1.12;1.05;0.49;253.0;-0.230356;0.006066;4.0;4.75;2.5;3.75;0.0;0.75;0.0;0.75;0.0;0.25;0.0;0.25;0.5;0.5;0.25;0.25;-0.233887;0.040527;0.97998;-0.98;-1.05;0.63;209.0;-0.262818;-0.097723
1.8;7.5;3.75;3.0;2.25;0.25;0.75;0.0;0.25;1.75;0.25;0.25;0.25;0.0;0.25;0.0;0.25;-0.200195;0.018066;0.986816;-1.05;1.05;0.56;240.0;-0.247748;0.008727;4.0;4.5;2.5;4.0;0.0;1.0;0.0;0.75;0.0;0.25;0.25;0.25;0.75;0.5;0.5;0.25;-0.234863;0.039551;0.980957;-1.05;-1.12;0.77;221.0;-0.24028;-0.104939
1.81;7.25;3.75;3.25;2.5;0.25;0.5;0.0;0.25;1.75;0.5;0.25;0.25;0.0;0.25;0.0;0.25;-0.197754;0.026367;0.989258;-0.98;1.05;0.49;243.0;-0.242105;0.009783;4.25;4.75;2.75;4.25;0.0;1.0;0.0;0.5;0.25;0.0;0.25;0.25;1.0;0.75;0.5;0.25;-0.237305;0.039062;0.972656;-0.98;-0.98;0.7;234.0;-0.236784;-0.093935
1.82;7.5;3.75;3.0;2.5;0.25;0.5;0.0;0.25;1.75;0.5;0.0;0.25;0.0;0.5;0.25;0.25;-0.20166;0.027832;0.995117;-1.05;1.12;0.56;245.0;-0.235333;0.011922;4.25;4.75;2.75;4.0;0.0;1.25;0.0;0.5;0.25;0.25;0.25;0.25;0.75;0.5;0.5;0.25;-0.231934;0.034668;0.977051;-1.05;-0.98;0.7;232.0;-0.239821;-0.091587
1.83;7.5;3.75;3.0;2.5;0.25;0.5;0.0;0.25;2.0;0.5;0.25;0.25;0.0;0.75;0.0;0.25;-0.202637;0.023438;0.990234;-0.98;1.12;0.49;251.0;-0.224412;0.016816;4.25;4.75;2.75;4.0;0.25;0.75;0.0;0.5;0.25;0.0;0.25;0.25;0.75;0.5;0.25;0.25;-0.237793;0.037598;0.973633;-1.05;-1.12;0.63;223.0;-0.255054;-0.086796
1.84;7.25;4.0;3.0;2.5;0.25;0.25;0.0;0.25;1.75;0.25;0.25;0.25;0.0;0.75;0.25;0.25;-0.199219;0.023926;0.991699;-1.19;1.19;0.42;244.0;-0.230242;0.011904;4.25;4.75;2.75;4.0;0.25;0.75;0.0;0.75;0.0;0.0;0.25;0.25;0.75;0.5;0.25;0.25;-0.236816;0.040527;0.979492;-1.19;-1.05;0.7;224.0;-0.258714;-0.098248
1.85;7.25;3.75;3.0;2.5;0.25;0.5;0.0;0.25;1.5;0.25;0.25;0.25;0.0;0.5;0.25;0.25;-0.199219;0.020508;0.993652;-1.12;1.19;0.42;239.0;-0.240852;0.004685;4.25;4.75;2.75;4.25;0.0;0.75;0.0;0.5;0.0;0.25;0.25;0.25;0.75;0.5;0.25;0.25;-0.236816;0.037109;0.985352;-1.12;-0.98;0.77;222.0;-0.259137;-0.09454
1.86;7.5;4.0;3.0;2.25;0.25;0.5;0.0;0.25;1.5;0.25;0.25;0.25;0.0;0.5;0.0;0.0;-0.203125;0.021973;0.98877;-1.05;0.98;0.56;237.0;-0.255701;0.010068;4.25;5.0;2.75;4.25;0.0;1.0;0.0;0.5;0.0;0.0;0.25;0.25;0.75;0.25;0.25;0.25;-0.236816;0.033691;0.976074;-1.12;-1.12;0.7;223.0;-0.27287;-0.102593
1.87;7.5;3.75;2.75;2.25;0.25;0.5;0.0;0.0;1.75;0.0;0.25;0.0;0.0;0.75;0.0;0.0;-0.193359;0.027832;0.995117;-0.98;0.98;0.49;227.0;-0.255457;0.027423;4.0;5.0;2.75;4.25;0.25;1.0;0.0;0.5;0.0;0.0;0.0;0.25;0.75;0.25;0.25;0.25;-0.235352;0.036133;0.977051;-1.12;-1.19;0.84;220.0;-0.275664;-0.102903
1.88;7.5;4.0;3.25;2.25;0.25;0.5;0.0;0.0;1.75;0.0;0.25;0.25;0.0;0.75;0.0;0.0;-0.199219;0.018555;0.989258;-1.05;1.33;0.42;238.0;-0.251803;0.02305;4.5;5.0;2.75;4.25;0.25;1.0;0.0;0.5;0.0;0.0;0.25;0.25;0.75;0.5;0.25;0.25;-0.231445;0.040527;0.973145;-1.12;-1.26;0.7;231.0;-0.265658;-0.095052
1.89;7.5;4.0;3.25;2.25;0.25;0.5;0.0;0.0;1.75;0.25;0.25;0.25;0.0;0.75;0.0;0.25;-0.198242;0.023926;0.991699;-0.91;0.98;0.49;243.0;-0.242305;0.021474;4.5;5.0;3.0;4.25;0.0;1.0;0.0;0.5;0.0;0.25;0.25;0.25;0.5;0.5;0.25;0.25;-0.23291;0.038574;0.978027;-0.98;-1.26;0.7;231.0;-0.265686;-0.088967
1.9;7.5;4.0;3.0;2.25;0.25;0.5;0.0;0.25;1.75;0.25;0.0;0.25;0.25;0.75;0.25;0.25;-0.198242;0.021973;0.98877;-0.84;0.98;0.35;246.0;-0.232066;0.009419;4.5;5.0;2.75;4.0;0.0;1.25;0.0;0.5;0.0;0.25;0.25;0.25;0.5;0.5;0.0;0.25;-0.231445;0.041992;0.972168;-1.12;-1.12;0.77;225.0;-0.272462;-0.092084
1.91;7.5;3.75;3.25;2.25;0.25;0.5;0.0;0.25;1.75;0.25;0.25;0.25;0.25;0.5;0.25;0.25;-0.205078;0.024902;0.98877;-0.7;0.63;0.42;247.0;-0.231352;0.009163;4.5;5.5;2.75;4.25;0.25;1.0;0.0;0.75;0.0;0.25;0.0;0.25;0.5;0.25;0.0;0.25;-0.230469;0.040527;0.979492;-1.05;-1.12;0.7;232.0;-0.283736;-0.098877
1.92;7.25;4.0;3.0;2.25;0.25;0.5;0.0;0.25;1.75;0.25;0.25;0.0;0.0;0.5;0.25;0.25;-0.202637;0.021484;0.992188;-0.63;0.56;0.42;239.0;-0.240103;0.013433;4.25;5.25;2.75;4.25;0.25;1.0;0.0;0.5;0.0;0.25;0.0;0.25;0.5;0.25;0.25;0.25;-0.231934;0.039062;0.981445;-0.98;-1.12;0.7;226.0;-0.276982;-0.095116
1.93;7.5;4.0;3.0;2.25;0.25;0.5;0.0;0.25;1.75;0.25;0.25;0.25;0.0;0.5;0.25;0.25;-0.204102;0.023926;0.992188;-0.56;0.49;0.63;244.0;-0.236697;0.010891;4.75;5.25;2.75;4.5;0.0;1.0;0.0;0.5;0.0;0.25;0.0;0.25;0.5;0.5;0.25;0.25;-0.238281;0.035156;0.975098;-1.12;-1.05;0.7;234.0;-0.275276;-0.091144
1.94;7.25;3.75;3.0;2.25;0.25;0.5;0.0;0.25;1.75;0.25;0.5;0.5;0.0;0.5;0.25;0.0;-0.203125;0.024414;0.991699;-0.56;0.56;0.56;243.0;-0.225817;0.008437;4.5;5.25;2.75;4.25;0.0;1.0;0.0;0.5;0.0;0.25;0.0;0.25;0.75;0.5;0.25;0.25;-0.234863;0.039551;0.977051;-0.98;-0.98;0.63;230.0;-0.268998;-0.095648
1.95;7.5;3.5;3.25;2.0;0.25;0.5;0.0;0.25;2.0;0.25;0.25;0.25;0.0;0.75;0.25;0.0;-0.207031;0.022461;0.991699;-0.56;0.63;0.56;244.0;-0.222928;0.025851;4.75;5.0;2.75;4.25;0.25;1.0;0.0;0.5;0.0;0.25;0.0;0.25;0.75;0.5;0.25;0.25;-0.239746;0.038086;0.974121;-1.05;-0.91;0.63;234.0;-0.267186;-0.090395
1.96;7.25;3.5;3.0;2.25;0.25;0.5;0.0;0.25;2.0;0.25;0.25;0.25;0.0;1.0;0.25;0.25;-0.205078;0.02002;0.995605;-0.63;0.7;0.56;245.0;-0.211548;0.020416;4.5;5.25;3.0;4.5;0.25;1.0;0.0;0.5;0.0;0.0;0.0;0.25;0.75;0.25;0.0;0.25;-0.23291;0.037598;0.97998;-1.12;-0.98;0.7;231.0;-0.288808;-0.097717
1.97;7.25;3.75;3.0;2.25;0.25;0.5;0.0;0.25;2.0;0.25;0.25;0.25;0.0;0.75;0.25;0.25;-0.195801;0.02832;0.992188;-0.84;0.84;0.42;245.0;-0.219572;0.017006;4.75;5.0;2.75;4.5;0.25;0.75;0.0;0.5;0.0;0.0;0.0;0.25;0.75;0.25;0.25;0.25;-0.237793;0.039551;0.978027;-1.05;-0.98;0.7;228.0;-0.28217;-0.094426
1.98;7.0;3.75;3.25;2.25;0.25;0.5;0.0;0.25;2.0;0.25;0.25;0.25;0.0;0.75;0.25;0.25;-0.199707;0.025879;0.999512;-0.7;0.77;0.56;245.0;-0.218023;0.016844;4.75;5.0;2.75;4.25;0.0;0.75;0.0;0.5;0.25;0.25;0.0;0.25;0.5;0.25;0.25;0.25;-0.232422;0.040527;0.970703;-1.12;-0.91;0.77;227.0;-0.273811;-0.083138
1.99;7.5;3.75;3.25;2.25;0.25;0.5;0.0;0.25;1.75;0.25;0.25;0.25;0.25;0.75;0.25;0.25;-0.199707;0.02832;0.998535;-0.84;0.91;0.49;250.0;-0.225365;0.01073;4.5;5.25;2.75;4.0;0.0;1.0;0.0;0.5;0.0;0.25;0.25;0.25;0.5;0.25;0.0;0.25;-0.235352;0.041992;0.97998;-0.98;-0.77;0.7;223.0;-0.282842;-0.093319
2.0;7.25;3.75;3.0;2.25;0.0;0.5;0.0;0.25;2.0;0.25;0.5;0.5;0.25;0.75;0.25;0.25;-0.201172;0.027832;0.998047;-0.77;0.77;0.49;250.0;-0.207009;0.006843;4.5;5.25;2.75;4.25;0.25;1.25;0.0;0.5;0.0;0.25;0.0;0.25;0.5;0.25;0.25;0.25;-0.230469;0.039062;0.974609;-1.05;-0.7;0.7;232.0;-0.276923;-0.094908
2.01;7.25;3.75;3.0;2.25;0.0;0.5;0.0;0.25;2.0;0.5;0.5;0.25;0.25;0.75;0.25;0.25;-0.20459;0.024902;0.989258;-0.91;0.91;0.35;250.0;-0.206716;0.010981;4.75;5.25;2.75;4.25;0.25;1.0;0.0;0.5;0.0;0.25;0.0;0.0;0.5;0.25;0.25;0.25;-0.238281;0.033691;0.978027;-1.12;-0.77;0.7;229.0;-0.28624;-0.087542
2.02;7.5;3.75;3.0;2.25;0.25;0.5;0.0;0.25;2.0;0.25;0.25;0.0;0.25;0.75;0.25;0.25;-0.203613;0.019531;0.994141;-0.91;0.84;0.42;247.0;-0.222964;0.017148;4.75;5.0;2.75;4.25;0.0;1.0;0.0;0.5;0.0;0.25;0.0;0.25;0.5;0.5;0.25;0.25;-0.236816;0.032715;0.977539;-0.98;-0.84;0.77;228.0;-0.273554;-0.08856
2.03;7.25;3.5;3.0;2.25;0.25;0.5;0.0;0.25;2.0;0.25;0.25;0.25;0.0;0.75;0.25;0.25;-0.19873;0.020996;0.990723;-0.91;0.98;0.49;242.0;-0.217523;0.01891;4.5;5.0;2.75;4.25;0.0;1.0;0.0;0.5;0.0;0.25;0.25;0.25;0.5;0.5;0.0;0.25;-0.241699;0.041504;0.976074;-1.05;-0.77;0.77;225.0;-0.274249;-0.091465
2.04;7.25;3.5;3.0;2.25;0.25;0.5;0.0;0.25;2.0;0.25;0.25;0.25;0.0;0.75;0.0;0.25;-0.200684;0.020508;0.988281;-0.84;0.84;0.56;240.0;-0.225002;0.020118;4.5;5.25;2.75;4.25;0.0;1.0;0.0;0.5;0.0;0.0;0.25;0.25;0.5;0.5;0.25;0.25;-0.236816;0.038086;0.979492;-1.05;-0.84;0.7;228.0;-0.273667;-0.09411
2.05;7.5;4.0;3.0;2.25;0.25;0.75;0.0;0.25;2.0;0.25;0.25;0.25;0.0;0.75;0.0;0.25;-0.202148;0.023926;0.988281;-0.91;1.05;0.49;250.0;-0.230009;0.013893;4.5;5.25;2.75;4.25;0.0;1.0;0.0;0.5;0.0;0.25;0.25;0.25;0.5;0.5;0.25;0.25;-0.239258;0.033691;0.979492;-1.05;-0.77;0.63;231.0;-0.267337;-0.092165
2.06;7.5;3.75;3.0;2.25;0.25;0.5;0.0;0.25;2.0;0.25;0.25;0.25;0.0;0.75;0.0;0.25;-0.202637;0.026367;0.982422;-0.91;0.91;0.49;245.0;-0.229033;0.019228;4.5;5.0;2.75;4.25;0.0;0.75;0.0;0.5;0.0;0.25;0.25;0.25;0.5;0.5;0.0;0.25;-0.234375;0.035645;0.975586;-0.98;-0.7;0.63;222.0;-0.275881;-0.089039
2.07;7.5;3.75;3.25;2.25;0.25;0.5;0.0;0.25;1.75;0.25;0.25;0.25;0.0;1.0;0.25;0.25;-0.199219;0.024902;0.990723;-0.63;0.77;0.56;250.0;-0.223156;0.016739;4.5;5.0;2.75;4.25;0.0;1.0;0.0;0.5;0.25;0.25;0.25;0.25;0.5;0.5;0.0;0.25;-0.233398;0.036133;0.977539;-1.05;-0.7;0.63;229.0;-0.265963;-0.085752
2.08;7.5;3.75;3.25;2.25;0.25;0.5;0.0;0.25;2.0;0.25;0.25;0.25;0.25;1.0;0.0;0.25;-0.20459;0.024414;0.995117;-0.77;0.63;0.56;253.0;-0.219866;0.017049;4.75;5.25;2.75;4.25;0.25;1.0;0.0;0.5;0.0;0.25;0.0;0.25;0.5;0.75;0.0;0.25;-0.235352;0.035156;0.978516;-1.05;-0.7;0.7;233.0;-0.274736;-0.084899
2.09;7.25;3.5;3.0;2.25;0.25;0.5;0.0;0.25;2.0;0.5;0.25;0.5;0.0;1.0;0.0;0.25;-0.200195;0.022949;0.991211;-0.7;0.56;0.56;248.0;-0.208635;0.01842;4.75;5.0;2.75;4.0;0.0;1.0;0.0;0.5;0.0;0.25;0.25;0.25;0.5;0.75;0.25;0.25;-0.236328;0.040527;0.974121;-0.98;-0.7;0.63;230.0;-0.260262;-0.084444
2.1;7.25;3.5;3.0;2.0;0.25;0.5;0.0;0.25;2.25;0.5;0.25;0.25;0.0;1.0;0.0;0.25;-0.202637;0.02832;0.994141;-0.56;0.56;0.42;245.0;-0.205796;0.028816;4.5;4.75;2.75;4.25;0.0;1.0;0.0;0.5;0.0;0.25;0.25;0.25;0.75;0.5;0.0;0.25;-0.237793;0.039062;0.975586;-0.91;-0.84;0.63;225.0;-0.268019;-0.094498
2.11;7.25;3.5;3.0;2.0;0.25;0.5;0.0;0.25;2.25;0.25;0.0;0.25;0.0;1.25;0.0;0.25;-0.200684;0.023926;0.987793;-0.63;0.49;0.56;242.0;-0.210208;0.031543;4.5;5.0;2.75;4.0;0.25;1.0;0.0;0.5;0.25;0.25;0.25;0.25;0.5;0.5;0.0;0.25;-0.236816;0.037109;0.977539;-0.7;-0.7;0.63;229.0;-0.263837;-0.082004
2.12;7.25;3.5;3.0;2.0;0.25;0.5;0.0;0.25;2.0;0.25;0.25;0.0;0.0;1.0;0.0;0.25;-0.202637;0.024414;0.993652;-0.7;0.49;0.49;236.0;-0.223235;0.02864;4.25;5.0;2.75;4.0;0.25;0.75;0.0;0.5;0.25;0.25;0.25;0.5;0.5;0.5;0.25;0.25;-0.236328;0.038574;0.978516;-0.56;-0.77;0.7;229.0;-0.249205;-0.084571
2.13;7.25;3.5;3.0;2.0;0.25;0.5;0.0;0.25;2.5;0.25;0.25;0.25;0.0;0.75;0.0;0.25;-0.204102;0.020508;0.992188;-0.56;0.56;0.42;244.0;-0.210107;0.03059;4.25;4.25;3.0;4.0;0.25;0.75;0.0;0.5;0.25;0.25;0.25;0.5;0.5;0.5;0.25;0.25;-0.233887;0.040527;0.973145;-0.63;-0.7;0.77;224.0;-0.243786;-0.079461
2.14;7.25;3.5;3.0;2.25;0.25;0.5;0.0;0.25;2.25;0.5;0.25;0.25;0.25;1.0;0.25;0.25;-0.201172;0.023438;0.990234;-0.56;0.49;0.49;254.0;-0.196345;0.020009;4.25;4.5;2.75;4.0;0.25;1.0;0.0;0.5;0.25;0.25;0.0;0.5;0.5;0.5;0.25;0.25;-0.237305;0.040527;0.976074;-0.7;-0.77;0.7;224.0;-0.250216;-0.084836
2.15;7.25;3.25;3.25;2.0;0.25;0.25;0.0;0.25;2.25;0.5;0.5;0.25;0.25;0.75;0.25;0.25;-0.200684;0.018555;0.988281;-0.42;0.28;0.49;249.0;-0.195216;0.026165;4.25;4.75;2.75;3.75;0.25;1.0;0.0;0.5;0.25;0.5;0.0;0.25;0.25;0.5;0.25;0.25;-0.234375;0.036133;0.980469;-0.56;-0.7;0.7;221.0;-0.255752;-0.075196
2.16;7.25;3.25;3.0;2.25;0.25;0.25;0.0;0.25;2.25;0.5;0.25;0.0;0.25;0.75;0.25;0.25;-0.199707;0.025391;0.991211;-0.14;-0.0;0.49;243.0;-0.205228;0.02777;4.5;4.5;2.75;4.0;0.25;1.0;0.0;0.5;0.25;0.5;0.25;0.25;0.25;0.5;0.25;0.25;-0.23877;0.035645;0.968262;-0.63;-0.63;0.77;227.0;-0.250165;-0.074384
2.17;7.25;3.25;3.0;2.0;0.25;0.5;0.0;0.25;2.25;0.5;0.0;0.25;0.0;0.75;0.25;0.25;-0.203125;0.024414;0.995117;0.28;0.35;0.56;241.0;-0.207379;0.02982;4.5;4.75;2.5;4.0;0.25;1.0;0.0;0.5;0.0;0.5;0.25;0.25;0.25;0.5;0.25;0.5;-0.231445;0.041016;0.979004;-0.91;-0.63;0.63;225.0;-0.255861;-0.084761
2.18;7.0;3.25;3.0;2.0;0.25;0.5;0.0;0.25;2.5;0.5;0.25;0.5;0.0;1.0;0.25;0.25;-0.20166;0.023926;0.993652;0.42;0.56;0.56;249.0;-0.182951;0.028369;4.25;4.5;2.75;4.0;0.25;1.0;0.0;0.5;0.25;0.5;0.25;0.25;0.5;0.75;0.25;0.5;-0.230957;0.037109;0.974121;-0.98;-0.49;0.63;231.0;-0.233413;-0.079583
2.19;7.25;3.25;3.0;2.0;0.25;0.5;0.0;0.25;2.25;0.5;0.25;0.25;0.0;1.0;0.25;0.5;-0.203125;0.018555;0.986328;0.56;0.7;0.56;247.0;-0.19314;0.027464;4.25;4.5;2.75;4.0;0.25;0.75;0.0;0.5;0.25;0.5;0.25;0.25;0.5;0.75;0.25;0.5;-0.238281;0.041016;0.977051;-1.05;-0.7;0.63;228.0;-0.234473;-0.077058
2.2;7.25;3.0;3.0;2.0;0.25;0.5;0.0;0.25;2.25;0.5;0.25;0.25;0.0;1.75;0.25;0.5;-0.20459;0.027344;0.989746;0.77;0.35;0.63;252.0;-0.174136;0.033563;4.0;4.5;2.75;3.75;0.25;1.0;0.0;0.5;0.25;0.25;0.25;0.25;0.5;1.0;0.25;0.5;-0.242676;0.037598;0.971191;-0.98;-0.77;0.7;224.0;-0.229865;-0.079173
2.21;6.75;2.75;3.0;1.75;0.25;0.5;0.0;0.25;2.25;0.5;0.0;0.25;0.0;1.75;0.5;0.75;-0.20166;0.02002;0.986816;0.91;0.35;0.56;242.0;-0.15941;0.035352;4.25;4.25;2.75;3.75;0.0;1.0;0.0;0.5;0.25;0.25;0.25;0.5;0.5;1.0;0.5;0.5;-0.239746;0.043457;0.982422;-1.05;-0.56;0.63;227.0;-0.217735;-0.080504
2.22;6.0;2.5;3.0;1.75;0.25;0.5;0.0;0.25;2.25;0.5;0.25;0.25;0.0;2.0;0.5;0.75;-0.205078;0.025879;0.995117;1.05;0.35;0.42;236.0;-0.137608;0.034426;4.0;4.0;2.5;3.75;0.25;1.0;0.0;0.75;0.25;0.5;0.25;0.25;0.5;1.0;0.5;0.5;-0.23291;0.036621;0.976562;-0.98;-0.49;0.56;226.0;-0.207221;-0.083503
2.23;6.0;2.5;3.0;1.75;0.25;0.5;0.0;0.25;2.0;0.25;0.0;0.25;0.0;2.0;0.5;0.75;-0.199219;0.021973;0.996094;0.56;0.7;0.35;227.0;-0.15314;0.03217;4.0;4.0;2.5;3.5;0.25;0.75;0.0;0.5;0.25;0.5;0.25;0.25;0.5;1.25;0.5;0.5;-0.241699;0.036621;0.975586;-1.12;-0.42;0.49;218.0;-0.203993;-0.070323
2.24;5.75;2.5;2.5;1.5;0.25;0.5;0.0;0.25;2.0;0.0;0.25;0.25;0.25;2.25;0.75;1.0;-0.19873;0.026367;0.993164;0.42;0.84;0.28;224.0;-0.125445;0.023361;3.5;3.75;2.5;3.5;0.25;0.75;0.0;0.5;0.25;0.5;0.25;0.25;0.5;1.75;0.5;0.5;-0.241699;0.040039;0.979492;-1.4;-0.14;0.49;215.0;-0.182916;-0.068558
2.25;5.5;2.25;2.5;1.5;0.25;0.5;0.0;0.25;2.25;0.0;0.0;0.25;0.25;2.75;1.0;1.25;-0.193359;0.025391;0.997559;0.42;1.26;0.21;228.0;-0.096423;0.029696;3.25;3.75;2.25;3.0;0.25;0.75;0.0;0.75;0.25;0.5;0.5;0.25;0.75;1.75;0.5;0.5;-0.241211;0.03418;0.974609;-1.54;0.07;0.35;212.0;-0.163071;-0.080113
2.26;5.25;1.75;2.5;1.25;0.25;0.25;0.0;0.25;2.0;0.25;0.25;0.0;0.25;3.0;1.0;1.25;-0.200684;0.022949;0.992676;0.49;1.12;0.0;216.0;-0.077249;0.041336;3.5;3.5;2.25;3.0;0.25;0.75;0.0;0.5;0.5;0.5;0.5;0.25;0.5;2.0;0.5;0.5;-0.240234;0.041016;0.978027;-1.75;0.28;0.28;212.0;-0.156534;-0.057401
2.27;5.0;1.25;2.5;0.75;0.25;0.25;0.0;0.25;2.0;0.25;0.25;0.25;0.25;3.0;0.75;1.25;-0.207031;0.029297;0.994141;0.42;0.77;-0.14;202.0;-0.060797;0.050398;3.25;3.25;2.25;3.0;0.25;0.75;0.0;0.5;0.5;0.75;0.25;0.25;0.5;2.5;0.5;0.5;-0.234863;0.04248;0.980957;-1.75;0.28;0.35;211.0;-0.137451;-0.050739
2.28;4.0;1.25;2.0;0.75;0.25;0.0;0.0;0.0;2.0;0.0;0.25;0.25;0.25;3.0;0.75;1.25;-0.201172;0.029297;0.990234;0.28;0.77;-0.21;175.0;-0.035985;0.061065;3.0;3.0;2.25;2.75;0.25;0.75;0.0;0.5;0.5;0.75;0.25;0.25;0.5;2.25;0.25;0.25;-0.234375;0.037109;0.976562;-1.75;0.7;0.21;196.0;-0.145969;-0.049156
2.29;3.25;1.25;2.0;0.75;0.25;0.25;0.0;0.0;2.25;0.25;0.0;0.25;0.25;3.25;1.25;1.5;-0.202148;0.024414;0.992188;-0.07;0.63;-0.07;182.0;0.008012;0.054332;2.75;2.5;2.0;2.5;0.25;0.5;0.0;0.5;0.5;0.75;0.5;0.25;0.5;2.25;0.25;0.25;-0.234863;0.039062;0.98584;-1.68;0.84;0.07;182.0;-0.124212;-0.045194
2.3;3.0;1.0;1.75;0.5;0.25;0.25;0.0;0.25;2.0;0.25;0.25;0.0;0.25;3.25;0.75;1.75;-0.206543;0.028809;0.994141;-0.7;0.98;0.0;167.0;0.015531;0.049836;2.25;2.25;1.75;2.25;0.0;0.5;0.0;0.5;0.5;1.25;0.25;0.25;0.5;2.5;0.5;0.5;-0.234863;0.036621;0.977539;-1.75;1.05;-0.07;174.0;-0.0795;-0.044745
2.31;2.75;0.75;1.75;0.5;0.25;0.25;0.0;0.25;2.5;0.25;0.25;0.0;0.25;3.25;0.75;1.75;-0.206055;0.022949;0.989258;-1.19;1.75;0.28;169.0;0.039159;0.06156;2.0;1.5;1.5;1.75;0.0;0.5;0.0;0.5;0.75;1.5;0.5;0.25;0.5;3.0;0.5;0.25;-0.237305;0.040039;0.981445;-1.82;1.26;-0.21;167.0;-0.020387;-0.021859
2.32;2.25;0.75;1.5;0.5;0.25;0.25;0.0;0.25;2.5;0.25;0.25;0.25;0.25;3.5;0.75;1.5;-0.19873;0.025391;0.994141;-0.84;1.75;0.35;164.0;0.06542;0.058162;1.5;1.0;1.5;1.5;0.0;0.5;0.0;0.25;0.75;1.25;0.5;0.25;0.5;3.0;0.5;0.25;-0.245117;0.037598;0.97168;-1.75;1.26;-0.21;147.0;0.008156;-0.008962
2.33;2.25;0.75;1.75;0.5;0.25;0.25;0.0;0.25;2.5;0.25;0.25;0.25;0.25;3.5;1.25;1.5;-0.200195;0.021973;0.993652;-0.07;0.84;0.42;173.0;0.070933;0.05406;1.5;0.75;1.25;0.75;0.0;0.25;0.0;0.25;0.75;1.25;0.5;0.25;0.5;2.75;0.75;0.5;-0.249023;0.039062;0.973145;-1.54;1.54;-0.07;131.0;0.052113;0.004214
2.34;2.25;0.5;1.5;0.5;0.25;0.25;0.0;0.25;2.75;0.25;0.25;0.25;0.25;4.0;1.5;2.0;-0.192871;0.023926;0.980957;0.84;-0.35;0.56;181.0;0.10581;0.055877;1.25;0.5;1.25;0.75;0.0;0.25;0.0;0.25;1.0;1.5;0.5;0.25;0.75;3.25;0.75;0.5;-0.237793;0.036621;0.976562;-1.26;1.54;-0.0;139.0;0.092935;0.011233
2.35;2.5;0.5;1.75;0.5;0.25;0.25;0.0;0.25;2.75;0.25;0.25;0.25;0.25;4.25;1.75;2.25;-0.193848;0.026855;0.987305;1.61;-1.54;0.49;194.0;0.102623;0.053772;1.25;0.5;1.0;0.5;0.0;0.25;0.0;0.25;1.25;1.5;0.5;0.25;0.5;3.25;0.75;0.5;-0.23877;0.029297;0.980957;-1.12;1.54;0.21;134.0;0.112549;0.030003
2.36;2.0;0.5;1.75;0.5;0.25;0.25;0.0;0.25;2.75;0.25;0.25;0.25;0.25;4.75;1.5;2.5;-0.21875;0.029785;0.986328;2.31;-1.96;0.21;192.0;0.1225;0.054339;1.0;0.5;1.0;0.5;0.0;0.0;0.0;0.25;1.25;1.5;0.75;0.25;0.5;3.25;0.75;0.25;-0.241211;0.038574;0.979492;-1.19;1.26;0.49;130.0;0.129504;0.035921
2.37;1.75;0.25;1.5;0.5;0.25;0.25;0.0;0.25;3.0;0.5;0.25;0.25;0.5;4.5;2.25;3.0;-0.204102;0.025391;0.986328;2.8;-2.03;0.28;201.0;0.159466;0.041133;0.75;0.25;1.0;0.5;0.0;0.0;0.0;0.25;1.5;1.75;0.75;0.0;0.5;3.75;0.75;0.25;-0.240234;0.032227;0.978516;-1.47;1.19;0.63;133.0;0.165204;0.057372
2.38;1.75;0.25;1.5;0.25;0.25;0.25;0.0;0.25;3.25;0.5;0.25;0.5;0.5;5.25;2.5;3.25;-0.20752;0.03125;0.998535;2.24;-0.98;0.07;216.0;0.180755;0.044524;0.75;0.25;0.75;0.75;0.0;0.25;0.0;0.25;1.5;2.25;0.75;0.25;0.75;4.0;0.75;0.5;-0.243164;0.026367;0.976562;-1.75;0.84;0.7;151.0;0.1681;0.028144
2.39;1.5;0.25;1.25;0.25;0.25;0.25;0.0;0.25;3.25;0.5;0.5;0.25;0.5;5.5;2.5;4.0;-0.202148;0.039551;0.997559;1.4;0.7;-0.21;217.0;0.201046;0.039549;0.5;0.5;1.0;1.0;0.25;0.25;0.0;0.25;1.5;2.5;0.5;0.25;0.75;3.75;0.75;0.5;-0.245117;0.037109;0.974121;-1.75;0.7;0.98;157.0;0.1429;0.021616
2.4;1.25;0.0;1.0;0.25;0.0;0.25;0.0;0.25;3.5;0.5;0.5;0.25;0.5;6.25;2.5;4.0;-0.197754;0.036621;1.007324;0.35;2.31;-0.49;216.0;0.235039;0.04838;0.5;0.5;0.75;0.5;0.0;0.25;0.0;0.25;1.75;2.5;0.5;0.25;0.5;4.0;0.75;0.5;-0.242188;0.037109;0.96875;-1.47;-0.49;1.4;148.0;0.180631;0.045577
2.41;0.5;0.0;0.75;0.25;0.0;0.0;0.0;0.25;3.75;0.5;0.5;0.25;0.5;6.75;3.0;4.25;-0.200195;0.020996;1.001953;-0.77;3.71;-0.63;217.0;0.281939;0.050415;0.75;0.75;0.75;0.75;0.0;0.25;0.0;0.25;1.75;2.25;0.25;0.5;0.5;4.0;1.0;0.5;-0.245605;0.031738;0.970215;-1.12;-1.68;1.61;157.0;0.154282;0.032147
2.42;0.25;0.25;0.5;0.0;0.0;0.0;0.0;0.0;4.0;0.75;0.0;0.25;0.5;7.0;3.0;4.75;-0.20459;0.031738;1.006836;-2.17;5.25;-0.98;212.0;0.307476;0.063807;1.0;1.0;1.25;0.75;0.0;0.25;0.0;0.25;1.75;2.5;0.5;0.25;0.5;4.25;0.75;0.5;-0.239746;0.041016;0.96582;-0.98;-2.8;1.61;171.0;0.122584;0.040029
2.43;0.25;0.0;0.5;0.0;0.0;0.0;0.0;0.0;4.25;0.75;0.25;0.5;0.25;8.25;3.25;5.25;-0.194336;0.017578;1.004883;-3.15;6.58;-1.05;234.0;0.320745;0.067239;1.5;1.25;1.25;1.5;0.0;0.25;0.0;0.5;1.75;2.5;0.5;0.25;0.75;4.25;0.75;0.5;-0.244141;0.040039;0.974609;-0.77;-2.94;1.26;194.0;0.078965;0.011756
2.44;0.25;0.0;0.25;0.0;0.0;0.0;0.0;0.25;4.25;1.0;0.25;0.5;0.25;8.5;3.5;5.5;-0.203125;0.022949;0.983887;-3.5;7.56;-0.84;245.0;0.323588;0.056116;1.5;1.25;1.5;1.25;0.25;0.5;0.0;0.5;1.75;2.5;0.5;0.25;0.5;4.25;0.75;0.75;-0.233887;0.03418;0.990723;-0.56;-0.98;0.77;199.0;0.073697;0.016171
2.45;0.25;0.0;0.25;0.0;0.0;0.0;0.0;0.0;4.25;1.25;0.5;0.5;0.5;9.0;3.25;5.75;-0.200195;0.023926;0.975586;-2.73;6.02;-0.42;252.0;0.326555;0.058455;1.25;1.0;1.25;1.25;0.0;0.25;0.0;0.25;2.0;2.5;0.5;0.25;0.5;4.5;1.0;0.75;-0.236328;0.039551;0.987305;-0.07;2.59;0.07;190.0;0.114013;0.034174
2.46;0.0;0.0;0.25;0.25;0.0;0.0;0.0;0.0;4.5;1.25;0.5;0.5;0.5;9.5;3.75;6.0;-0.203613;0.023926;1.0;-1.96;4.76;-0.28;268.0;0.329872;0.05463;1.0;1.0;1.25;1.0;0.0;0.25;0.0;0.25;2.0;2.5;0.5;0.5;0.75;5.0;1.25;1.25;-0.232422;0.033203;0.988281;0.63;3.5;-0.14;199.0;0.14421;0.02289
2.47;0.0;0.0;0.25;0.0;0.0;0.0;0.0;0.0;4.75;1.25;0.5;0.5;0.5;10.25;3.75;6.25;-0.223633;0.021973;0.989746;-1.89;6.3;-0.42;277.0;0.337862;0.061627;0.75;0.5;0.75;0.5;0.25;0.25;0.0;0.25;2.0;2.75;0.75;0.25;0.75;5.75;1.25;1.25;-0.239746;0.033203;0.987305;0.77;4.2;-0.28;192.0;0.200647;0.041731
2.48;0.25;0.0;0.25;0.0;0.0;0.0;0.0;0.0;4.75;2.0;0.5;0.5;0.5;11.0;4.0;6.5;-0.219238;0.022949;0.994629;-2.94;10.92;-1.12;299.0;0.330618;0.061608;0.25;0.25;0.25;0.25;0.0;0.25;0.0;0.25;2.5;3.25;0.75;0.25;0.75;6.0;1.5;1.5;-0.254883;0.046387;0.98584;0.21;6.16;-0.49;192.0;0.264362;0.051223
2.49;0.25;0.0;0.0;0.0;0.0;0.0;0.0;0.0;5.0;1.5;0.5;0.5;0.5;11.5;4.0;6.5;-0.207031;0.038574;1.019531;-6.58;16.59;-1.33;299.0;0.338809;0.065634;0.25;0.25;0.25;0.25;0.0;0.0;0.0;0.25;2.75;3.25;0.75;0.25;1.0;6.5;1.75;2.0;-0.245117;0.037598;0.987305;-1.33;8.54;-0.28;205.0;0.275927;0.049655
2.5;0.25;0.0;0.0;0.0;0.0;0.0;0.0;0.0;5.25;1.75;0.5;0.5;0.5;11.75;4.0;6.75;-0.216797;0.014648;1.039551;-10.22;22.049999;-1.68;309.0;0.337605;0.067057;0.25;0.0;0.0;0.25;0.0;0.0;0.0;0.0;2.75;3.5;1.0;0.5;1.0;6.75;2.25;2.5;-0.247559;0.053711;0.976562;-2.94;10.36;-0.35;215.0;0.301415;0.046383
2.51;0.25;0.0;0.0;0.0;0.0;0.0;0.0;0.0;5.25;2.0;0.25;0.5;0.25;12.25;4.25;6.75;-0.220703;0.010254;1.084961;-8.05;45.220001;-0.63;314.0;0.340758;0.072932;0.0;0.0;0.25;0.25;0.0;0.25;0.0;0.25;3.0;3.5;1.0;0.5;1.25;7.25;2.25;2.75;-0.274902;0.03125;0.947754;-6.3;9.8;-0.56;234.0;0.291768;0.033045
2.52;0.25;0.0;0.0;0.0;0.0;0.0;0.0;0.0;5.5;2.0;0.25;0.25;0.25;12.5;4.0;6.75;-0.229004;0.025391;1.035645;-7.07;55.23;-0.28;314.0;0.340949;0.080797;0.0;0.0;0.25;0.25;0.0;0.0;0.0;0.0;3.0;3.75;1.0;0.5;1.25;7.75;2.25;3.0;-0.22168;-0.005859;0.974609;-8.33;7.7;-0.84;236.0;0.304915;0.045433
2.53;0.0;0.0;0.0;0.0;0.0;0.0;0.0;0.0;5.75;2.25;0.25;0.25;0.25;13.0;4.0;6.25;-0.242188;0.018066;0.945801;-10.57;56.0;-1.12;320.0;0.346577;0.087633;0.0;0.25;0.0;0.0;0.0;0.0;0.0;0.0;3.25;3.75;0.75;0.5;1.25;7.75;2.5;3.0;-0.264648;0.024414;0.986328;-10.08;9.03;-0.84;236.0;0.313576;0.049913
2.54;0.0;0.0;0.0;0.0;0.0;0.0;0.0;0.0;6.0;2.75;0.5;0.25;0.25;13.0;4.0;6.25;-0.251953;0.013184;0.962891;-13.3;50.330002;-1.82;332.0;0.342747;0.087485;0.0;0.25;0.25;0.25;0.0;0.0;0.0;0.0;3.25;4.0;1.0;0.5;1.25;8.0;2.75;3.25;-0.260742;0.010742;1.006836;-7.77;16.870001;-0.49;255.0;0.299993;0.043005
2.55;0.0;0.0;0.0;0.0;0.0;0.0;0.0;0.0;5.75;2.75;0.25;0.25;0.25;12.75;4.0;6.25;-0.256836;-0.000977;0.930664;-12.53;47.810001;-0.91;323.0;0.344233;0.086567;0.0;0.25;0.0;0.0;0.0;0.0;0.0;0.0;3.0;3.75;0.75;0.5;1.0;8.25;2.75;3.25;-0.251465;0.043457;0.97998;-6.16;21.91;0.35;239.0;0.319191;0.05024
2.56;0.0;0.0;0.0;0.0;0.0;0.0;0.0;0.0;6.0;2.75;0.25;0.25;0.25;12.5;4.0;6.5;-0.259277;0.008789;0.92041;-8.54;44.029999;0.0;326.0;0.342843;0.086157;0.0;0.0;0.0;0.0;0.0;0.0;0.0;0.0;3.25;4.25;0.75;0.5;1.0;8.5;2.75;3.5;-0.253906;0.033203;0.937988;-5.25;17.43;0.07;250.0;0.325035;0.05497
2.57;0.0;0.0;0.0;0.0;0.0;0.0;0.0;0.0;6.0;2.75;0.5;0.5;0.25;12.25;4.0;6.5;-0.265137;0.003906;0.913086;-3.64;32.619999;2.03;329.0;0.340137;0.080405;0.0;0.0;0.0;0.0;0.0;0.0;0.0;0.0;3.25;4.25;0.75;0.5;0.75;8.75;2.75;3.5;-0.265137;0.036133;0.935059;-2.59;6.37;-0.07;250.0;0.327317;0.060982
2.58;0.0;0.0;0.0;0.0;0.0;0.0;0.0;0.0;6.0;3.0;0.75;0.5;0.25;11.75;4.0;6.75;-0.273926;0.010742;0.92041;0.35;24.710001;2.73;332.0;0.337363;0.075446;0.0;0.25;0.0;0.0;0.0;0.0;0.0;0.0;3.25;4.5;0.75;0.5;1.0;9.0;2.75;3.5;-0.276367;0.025879;0.935059;-1.19;1.4;-0.0;260.0;0.318491;0.055118
2.59;0.0;0.0;0.0;0.0;0.0;0.0;0.0;0.0;6.0;3.5;1.25;0.5;0.25;11.75;4.0;7.0;-0.27832;0.01416;0.916016;3.99;18.129999;3.01;344.0;0.334012;0.070406;0.0;0.0;0.0;0.0;0.0;0.0;0.0;0.0;3.5;4.5;1.0;0.75;1.25;9.25;2.75;3.5;-0.266113;0.041016;0.945801;-1.12;-4.34;-0.07;271.0;0.321855;0.051094
2.6;0.0;0.0;0.0;0.0;0.0;0.0;0.0;0.0;6.0;3.75;1.25;0.75;0.5;11.75;4.0;7.25;-0.275391;0.021973;0.973145;7.35;14.14;3.01;354.0;0.331237;0.062225;0.0;0.0;0.0;0.0;0.0;0.0;0.0;0.0;3.5;4.75;1.0;0.25;1.0;9.25;2.75;3.5;-0.26416;0.041504;0.947754;-0.98;-9.8;-0.35;266.0;0.324833;0.063296
2.61;0.0;0.0;0.0;0.0;0.0;0.0;0.0;0.0;6.25;4.0;1.5;0.5;0.75;11.5;4.0;7.5;-0.28418;0.016602;0.956543;5.88;12.74;2.03;362.0;0.328487;0.060093;0.0;0.0;0.0;0.0;0.0;0.0;0.0;0.0;3.75;5.25;1.0;0.25;1.0;9.75;2.75;3.75;-0.258789;0.035645;0.960449;0.28;-14.91;-0.7;281.0;0.323896;0.065895
2.62;0.0;0.0;0.0;0.0;0.0;0.0;0.0;0.0;6.25;4.5;2.25;0.5;1.0;11.5;4.0;7.75;-0.279785;0.03125;0.97998;4.34;12.74;0.35;380.0;0.323997;0.05149;0.0;0.0;0.0;0.0;0.0;0.0;0.0;0.25;3.75;5.25;1.0;0.25;0.75;10.25;2.75;3.75;-0.263184;0.043457;0.958496;1.26;-20.02;-1.12;288.0;0.321732;0.065395
2.63;0.0;0.0;0.0;0.0;0.0;0.0;0.0;0.0;6.25;4.5;2.5;0.75;1.25;11.75;4.0;8.25;-0.278809;0.036621;0.970703;4.83;11.97;-1.89;393.0;0.322292;0.042652;0.0;0.0;0.0;0.0;0.0;0.0;0.0;0.25;4.25;5.25;1.25;0.25;1.0;10.5;2.75;3.75;-0.297363;-0.029785;0.97998;5.39;-19.389999;-1.12;302.0;0.318798;0.065382
2.64;0.0;0.0;0.0;0.0;0.0;0.0;0.0;0.0;6.75;4.75;2.75;0.75;1.5;12.25;4.0;8.75;-0.273926;0.022949;0.924805;7.21;7.07;-2.73;416.0;0.32035;0.041807;0.0;0.0;0.25;0.0;0.0;0.0;0.0;0.25;4.5;5.5;1.25;0.5;1.0;11.0;2.75;3.75;-0.258789;0.049316;0.984863;5.81;-12.74;0.84;319.0;0.312179;0.066307
2.65;0.0;0.0;0.0;0.0;0.0;0.0;0.0;0.0;7.75;4.75;3.0;1.0;2.0;13.0;4.25;9.5;-0.267578;0.024902;0.875;11.27;-4.41;-3.36;455.0;0.317815;0.038606;0.0;0.0;0.25;0.25;0.0;0.0;0.0;0.25;4.5;5.5;1.5;0.5;1.0;11.25;3.0;3.75;-0.25;0.027832;0.973145;5.53;-10.5;0.56;330.0;0.307533;0.061585
2.66;0.0;0.0;0.0;0.0;0.0;0.0;0.0;0.0;8.75;5.5;3.5;1.25;2.75;13.75;4.75;10.25;-0.270996;0.015625;0.847656;16.940001;-24.219999;-3.22;511.0;0.313772;0.032574;0.0;0.25;0.5;0.25;0.0;0.0;0.0;0.25;4.5;5.5;1.5;0.5;1.25;11.75;2.75;3.5;-0.244141;0.027344;1.000488;3.57;-7.63;0.35;339.0;0.296398;0.060954
2.67;0.0;0.0;0.0;0.0;0.0;0.0;0.0;0.0;9.5;5.5;3.75;1.5;3.0;14.75;4.75;11.0;-0.272461;0.025391;0.883789;19.879999;-50.189999;-2.87;544.0;0.313049;0.032331;0.0;0.25;0.5;0.25;0.0;0.0;0.0;0.5;5.0;5.75;1.5;0.5;1.25;12.0;3.0;3.5;-0.25;0.031738;0.988281;1.54;-4.83;0.28;358.0;0.293214;0.059588
2.68;0.0;0.0;0.0;0.0;0.0;0.0;0.0;0.0;10.5;6.0;4.0;1.5;3.25;15.75;5.0;11.75;-0.269043;0.041016;0.911133;20.93;-74.340004;-3.5;585.0;0.312358;0.03496;0.0;0.0;0.25;0.25;0.0;0.0;0.0;0.5;5.25;6.25;2.0;0.75;1.5;12.5;3.0;3.75;-0.246582;0.028809;0.985352;0.77;-2.31;0.14;379.0;0.300586;0.054337
2.69;0.0;0.0;0.0;0.0;0.0;0.0;0.0;0.25;11.25;6.0;4.75;2.0;4.0;16.5;5.0;12.25;-0.264648;0.051758;1.014648;20.09;-94.849998;-4.62;632.0;0.306863;0.025529;0.25;0.0;0.25;0.25;0.25;0.0;0.0;0.5;5.5;6.75;2.0;0.75;1.75;13.25;3.25;3.75;-0.249023;0.03418;0.974609;0.07;-0.56;0.42;406.0;0.293239;0.055004
2.7;0.0;0.0;0.0;0.0;0.0;0.0;0.0;0.25;12.0;6.0;4.75;2.0;4.5;17.25;5.25;12.75;-0.241211;0.045898;1.087402;7.56;-97.580002;-7.77;660.0;0.306857;0.025714;0.0;0.0;0.25;0.0;0.0;0.0;0.0;0.5;5.75;6.75;2.75;0.75;2.0;13.25;3.0;3.75;-0.239746;0.02832;0.963867;0.42;-1.61;0.7;409.0;0.302135;0.052955
2.71;0.0;0.0;0.0;0.0;0.0;0.0;0.0;0.5;12.25;6.0;4.75;2.0;5.0;17.5;5.25;13.0;-0.227539;0.030762;1.149414;6.23;-73.360001;-7.7;676.0;0.30415;0.020842;0.0;0.0;0.25;0.0;0.0;0.0;0.0;0.5;5.75;7.5;3.0;1.5;2.25;13.75;3.5;4.0;-0.241211;0.034668;0.945801;1.68;-4.34;0.91;443.0;0.300616;0.040867
2.72;0.0;0.0;0.0;0.0;0.0;0.0;0.25;1.0;12.0;6.0;4.75;2.0;5.25;17.5;5.25;13.25;-0.211914;0.001953;1.104492;10.36;-30.940001;-4.48;689.0;0.298897;0.013495;0.0;0.0;0.25;0.25;0.25;0.0;0.0;0.75;6.0;7.25;3.25;1.5;2.75;14.0;3.5;4.5;-0.24707;0.035645;0.945312;2.66;-8.19;1.05;467.0;0.290495;0.029486
2.73;0.0;0.0;0.0;0.0;0.0;0.0;0.25;1.0;12.0;6.0;4.75;2.0;5.0;17.5;5.25;13.75;-0.210449;-0.000488;1.084473;3.15;-5.32;-1.19;689.0;0.299596;0.013712;0.0;0.0;0.25;0.25;0.25;0.0;0.0;1.0;6.0;7.5;3.25;1.5;3.0;14.25;3.5;4.75;-0.259277;0.038574;0.97168;1.89;-12.39;1.26;480.0;0.287788;0.023286
2.74;0.0;0.0;0.0;0.0;0.0;0.0;0.25;0.75;11.75;6.0;4.5;2.0;5.0;17.25;5.25;14.0;-0.208496;0.018555;1.074707;-2.03;17.57;1.82;678.0;0.301791;0.014097;0.25;0.25;0.5;0.25;0.25;0.25;0.0;1.5;6.25;7.5;3.25;1.5;3.25;14.75;3.75;5.0;-0.249023;0.036133;0.997559;-0.0;-12.32;1.33;515.0;0.271112;0.014156
2.75;0.0;0.0;0.0;0.0;0.0;0.0;0.0;0.75;11.0;6.0;4.0;2.0;4.75;16.5;5.0;14.25;-0.20459;0.019043;1.104492;-2.38;43.889999;5.25;647.0;0.303568;0.009119;0.25;0.25;0.5;0.25;0.25;0.25;0.0;2.0;6.25;7.75;3.25;1.5;3.5;14.75;3.5;5.5;-0.251465;0.042969;1.012695;-1.26;-9.73;1.4;528.0;0.265783;0.00459
2.76;0.0;0.0;0.0;0.0;0.0;0.0;0.0;0.5;10.25;6.25;3.75;1.75;4.75;16.0;5.0;14.25;-0.24707;0.041504;1.062012;1.82;78.610001;8.12;624.0;0.306189;0.008211;0.25;0.25;0.5;0.25;0.5;0.25;0.0;2.0;6.25;7.75;3.25;1.5;4.0;14.75;3.75;6.0;-0.234863;0.029785;1.024414;-0.77;-4.97;1.26;542.0;0.264047;-0.001346
2.77;0.0;0.0;0.0;0.0;0.0;0.0;0.0;0.25;9.25;5.5;3.75;1.5;4.0;14.75;5.0;14.0;-0.252441;0.025391;1.071289;1.75;90.510002;8.68;574.0;0.310594;0.008364;0.25;0.25;0.5;0.25;0.25;0.25;0.0;2.25;6.0;7.75;3.0;1.5;4.0;14.5;4.0;6.5;-0.236816;0.035645;1.019531;0.49;0.21;1.26;540.0;0.264977;-0.008835
2.78;0.0;0.0;0.0;0.0;0.0;0.0;0.0;0.25;7.0;5.25;3.5;1.5;3.5;12.5;4.75;13.5;-0.30957;0.015137;1.138672;-3.01;107.520004;9.87;505.0;0.311166;-0.008421;0.25;0.0;0.5;0.25;0.25;0.25;0.0;2.0;6.0;7.5;3.0;1.5;4.25;14.25;4.0;7.0;-0.234375;0.031738;1.013184;1.05;4.69;1.26;534.0;0.269948;-0.009993
2.79;0.0;0.0;0.0;0.0;0.0;0.0;0.0;0.25;5.25;4.5;3.0;1.25;3.25;9.75;4.5;12.75;-0.339844;0.048828;1.268555;-7.28;129.5;10.22;428.0;0.311177;-0.027999;0.25;0.25;0.25;0.25;0.0;0.25;0.0;2.0;5.75;7.5;2.75;1.25;4.5;13.75;4.25;7.5;-0.245605;0.037598;1.014648;0.84;10.5;1.47;524.0;0.272247;-0.017321
2.8;0.0;0.0;0.0;0.0;0.0;0.0;0.0;0.0;3.0;2.75;1.5;1.0;3.0;6.75;4.5;11.5;-0.342285;0.101562;1.487305;-0.0;171.289993;8.05;314.0;0.32208;-0.061027;0.0;0.25;0.25;0.0;0.0;0.25;0.0;1.5;5.75;7.25;2.5;1.25;4.5;13.0;4.25;7.5;-0.245117;-0.003418;1.051758;-2.24;20.23;1.89;497.0;0.282697;-0.013147
2.81;0.0;0.0;0.0;0.0;0.0;0.0;0.0;0.0;2.25;2.0;0.75;0.25;2.0;3.0;3.75;9.75;-0.474121;0.175293;2.415039;10.64;256.899994;3.71;214.0;0.323793;-0.079271;0.0;0.25;0.0;0.25;0.0;0.0;0.0;1.0;5.25;7.5;1.75;0.75;4.25;12.25;4.25;7.5;-0.289062;0.04541;1.012207;-11.69;26.530001;2.1;458.0;0.291568;-0.005772
2.82;0.0;0.0;0.0;0.0;0.0;0.0;0.0;0.0;1.5;1.0;0.75;0.25;0.75;3.0;3.0;6.5;-1.138184;0.14502;4.141602;59.709999;347.970001;10.29;152.0;0.33746;-0.055518;0.0;0.0;0.0;0.0;0.0;0.0;0.0;0.5;4.25;6.5;1.0;0.5;3.5;10.5;4.25;7.75;-0.299805;0.001465;1.254883;-23.66;48.860001;1.54;385.0;0.309544;-0.003076
2.83;0.0;0.0;0.0;0.0;0.0;0.0;0.0;0.0;1.25;0.75;0.25;0.25;0.75;3.0;2.0;3.0;-0.478027;0.239746;3.449707;211.820007;345.450012;52.57;108.0;0.336985;-0.013937;0.0;0.0;0.0;0.0;0.0;0.0;0.0;0.5;3.25;5.5;0.5;0.25;2.25;7.75;4.25;7.5;-0.306641;0.048828;1.205566;-21.629999;103.949997;3.71;312.0;0.313536;-0.009479
2.84;0.0;0.0;0.0;0.0;0.0;0.0;0.0;0.0;0.75;0.5;0.25;0.25;0.5;1.75;1.25;2.75;-2.687012;0.920898;0.978516;158.619995;297.360016;23.870001;74.0;0.333165;-0.046784;0.0;0.0;0.0;0.0;0.0;0.0;0.0;0.25;1.5;3.25;0.5;0.0;1.25;4.75;4.25;7.5;-0.320312;0.070801;1.522949;-9.24;158.899994;1.89;217.0;0.329835;-0.044084
2.85;0.0;0.0;0.0;0.0;0.0;0.0;0.0;0.0;0.5;0.5;0.25;0.0;0.25;1.0;0.75;2.25;-4.081543;1.424316;4.664551;275.170013;177.940002;40.740002;49.0;0.0;0.0;0.0;0.0;0.0;0.0;0.0;0.0;0.0;0.0;1.0;2.0;0.5;0.25;0.5;2.25;3.75;6.75;-0.702148;-0.019531;3.288574;-1.96;237.229996;0.28;154.0;0.339435;-0.069182
2.86;0.0;0.0;0.0;0.0;0.0;0.0;0.0;0.0;0.5;0.25;0.0;0.0;0.0;0.5;0.25;0.75;-2.60498;0.84082;-2.065918;468.649994;114.800003;74.760002;22.0;0.0;0.0;0.0;0.0;0.0;0.0;0.0;0.0;0.0;0.0;0.75;1.25;0.25;0.0;0.75;2.25;3.0;4.25;-1.215332;0.311523;5.223633;79.590004;301.630005;26.040001;115.0;0.344377;-0.058526
2.87;0.0;0.0;0.0;0.0;0.0;0.0;0.0;0.0;0.25;0.25;0.0;0.0;0.0;0.5;0.25;0.75;-2.974121;0.096191;-0.913086;319.269989;-187.039993;90.019997;18.0;0.0;0.0;0.0;0.0;0.0;0.0;0.0;0.0;0.0;0.0;0.5;0.5;0.25;0.25;0.5;1.75;2.25;2.75;-0.880859;0.691406;3.372559;125.440002;350.559998;11.83;82.0;0.347038;-0.065819
2.88;0.0;0.0;0.0;0.0;0.0;0.0;0.0;0.0;0.25;0.0;0.0;0.0;0.0;0.25;0.25;0.5;-1.509277;-2.297852;-5.728027;359.799988;-264.950012;67.410004;12.0;0.0;0.0;0.0;0.0;0.0;0.0;0.0;0.0;0.0;0.0;0.25;0.5;0.0;0.0;0.25;0.75;1.25;2.0;-3.981445;0.970215;3.246094;3.92;320.25;-39.41;45.0;0.0;0.0
2.89;0.0;0.0;0.0;0.0;0.0;0.0;0.0;0.0;0.0;0.25;0.0;0.0;0.0;0.25;0.25;0.5;-3.3125;-2.175293;-2.599609;157.990005;-46.619999;-147.0;11.0;0.0;0.0;0.0;0.0;0.0;0.0;0.0;0.0;0.0;0.0;0.25;0.25;0.0;0.0;0.0;0.5;0.5;0.5;-3.233887;0.510254;3.34375;262.570007;173.460007;27.02;20.0;0.0;0.0
2.9;0.0;0.0;0.0;0.0;0.0;0.0;0.0;0.0;0.0;0.0;0.0;0.0;0.0;0.25;0.5;0.25;-2.95459;-2.888672;-1.198242;119.209999;92.959999;-160.440002;10.0;0.0;0.0;0.0;0.0;0.0;0.0;0.0;0.0;0.0;0.0;0.0;0.25;0.0;0.0;0.0;0.25;1.0;0.5;-2.490234;0.320801;1.577637;250.529999;-38.920002;74.830002;20.0;0.0;0.0
2.91;0.0;0.0;0.0;0.0;0.0;0.0;0.0;0.0;0.0;0.0;0.0;0.0;0.0;0.25;0.25;0.25;-1.190918;-1.677246;-1.80957;-34.580002;100.870003;-113.260002;7.0;0.0;0.0;0.0;0.0;0.0;0.0;0.0;0.0;0.0;0.0;0.0;0.25;0.0;0.0;0.0;0.25;1.5;0.75;-2.134277;-0.977539;-4.73877;342.230011;-220.009995;88.550003;27.0;0.0;0.0
2.92;0.0;0.0;0.0;0.0;0.0;0.0;0.0;0.0;0.0;0.0;0.0;0.0;0.0;0.25;0.25;0.25;-0.719727;-0.908203;-0.20166;-250.669998;110.18;-80.43;7.0;0.0;0.0;0.0;0.0;0.0;0.0;0.0;0.0;0.0;0.0;0.0;0.0;0.0;0.0;0.0;0.25;1.5;0.5;-4.629883;-1.666504;-4.696777;258.369995;-66.360001;-78.68;22.0;0.0;0.0
2.93;0.0;0.0;0.0;0.0;0.0;0.0;0.0;0.0;0.0;0.0;0.0;0.0;0.0;0.25;0.25;0.25;-1.094727;-0.208008;0.235352;-337.820007;116.129997;-32.41;7.0;0.0;0.0;0.0;0.0;0.0;0.0;0.0;0.0;0.0;0.0;0.0;0.25;0.0;0.0;0.0;0.0;1.5;0.5;-3.413086;-2.004395;-3.341797;160.089996;97.860001;-172.130005;23.0;0.0;0.0
2.94;0.0;0.0;0.0;0.0;0.0;0.0;0.0;0.0;0.0;0.0;0.0;0.0;0.0;0.25;0.25;0.25;-0.88623;0.069336;0.471191;-351.820007;115.220001;8.96;7.0;0.0;0.0;0.0;0.0;0.0;0.0;0.0;0.0;0.0;0.0;0.0;0.0;0.0;0.0;0.0;0.0;1.5;0.25;-2.174316;-2.370605;-2.150879;35.0;181.020004;-171.149994;19.0;0.0;0.0
2.95;0.0;0.0;0.0;0.0;0.0;0.0;0.0;0.0;0.0;0.0;0.0;0.0;0.0;0.25;0.25;0.0;-0.449707;0.162598;0.446289;-277.76001;129.220001;30.1;5.0;0.0;0.0;0.0;0.0;0.0;0.0;0.0;0.0;0.0;0.0;0.0;0.0;0.0;0.0;0.0;0.0;1.25;0.25;-1.596191;-1.450195;-1.156738;-152.039993;184.729996;-110.809998;16.0;0.0;0.0
2.96;0.0;0.0;0.0;0.0;0.0;0.0;0.0;0.0;0.0;0.0;0.0;0.0;0.0;0.0;0.0;0.0;-0.3125;0.140137;0.374023;-212.520004;135.869995;20.65;0.0;0.0;0.0;0.0;0.0;0.0;0.0;0.0;0.0;0.0;0.0;0.0;0.0;0.0;0.0;0.0;0.25;0.75;0.25;-1.635254;-0.477051;0.087891;-318.429993;210.0;-63.0;12.0;0.0;0.0
2.97;0.0;0.0;0.0;0.0;0.0;0.0;0.0;0.0;0.0;0.0;0.0;0.0;0.0;0.0;0.25;0.0;-0.194824;0.024414;0.26709;-132.930008;147.070007;0.28;3.0;0.0;0.0;0.0;0.0;0.0;0.0;0.0;0.0;0.0;0.0;0.0;0.0;0.0;0.0;0.0;0.25;0.75;0.25;-1.318848;0.665527;0.776367;-323.890015;231.070007;-13.09;12.0;0.0;0.0
2.98;0.0;0.0;0.0;0.0;0.0;0.0;0.0;0.0;0.0;0.0;0.0;0.0;0.0;0.0;0.25;0.0;-0.19873;-0.105469;0.460449;-66.709999;163.589996;-26.6;3.0;0.0;0.0;0.0;0.0;0.0;0.0;0.0;0.0;0.0;0.0;0.0;0.0;0.0;0.0;0.0;0.0;0.5;0.25;-0.974609;0.963867;0.841309;-252.630005;227.779999;-5.46;7.0;0.0;0.0
2.99;0.0;0.0;0.0;0.0;0.0;0.0;0.0;0.0;0.0;0.0;0.0;0.0;0.0;0.0;0.25;0.0;-0.095703;-0.26709;0.624512;-28.98;181.089996;-52.150002;3.0;0.0;0.0;0.0;0.0;0.0;0.0;0.0;0.0;0.0;0.0;0.0;0.0;0.0;0.0;0.0;0.25;0.25;0.25;-0.773926;0.686035;0.894043;-175.0;211.680008;-14.35;7.0;0.0;0.0
3.0;0.0;0.0;0.0;0.0;0.0;0.0;0.0;0.0;0.0;0.0;0.0;0.0;0.0;0.0;0.25;0.0;0.135742;-0.335938;0.768555;-28.139999;197.75;-72.590004;3.0;0.0;0.0;0.0;0.0;0.0;0.0;0.0;0.0;0.0;0.0;0.0;0.0;0.0;0.0;0.0;0.25;0.25;0.0;-0.70752;0.508789;0.943359;-103.529999;193.550003;-16.450001;5.0;0.0;0.0
3.01;0.0;0.0;0.0;0.0;0.0;0.0;0.0;0.0;0.0;0.0;0.0;0.0;0.0;0.25;0.25;0.0;0.408203;-0.263184;0.864746;-46.619999;206.570007;-82.25;5.0;0.0;0.0;0.0;0.0;0.0;0.0;0.0;0.0;0.0;0.0;0.0;0.0;0.0;0.0;0.0;0.0;0.25;0.25;-0.386719;0.39209;0.977539;-63.139999;181.509995;-14.91;4.0;0.0;0.0
3.02;0.0;0.0;0.0;0.0;0.0;0.0;0.0;0.0;0.0;0.0;0.0;0.0;0.0;0.25;0.25;0.0;0.693359;-0.142578;1.146973;-84.629997;196.210007;-78.959999;5.0;0.0;0.0;0.0;0.0;0.0;0.0;0.0;0.0;0.0;0.0;0.0;0.0;0.0;0.0;0.0;0.0;0.25;0.0;0.382324;0.304199;1.019043;-55.16;190.75;-3.78;3.0;0.0;0.0
3.03;0.0;0.0;0.0;0.0;0.0;0.0;0.0;0.0;0.0;0.0;0.0;0.0;0.0;0.0;0.25;0.0;0.801758;-0.004395;1.310059;-116.270004;163.940002;-74.690002;3.0;0.0;0.0;0.0;0.0;0.0;0.0;0.0;0.0;0.0;0.0;0.0;0.0;0.0;0.0;0.0;0.0;0.0;0.0;1.739258;0.179688;1.391602;-66.849998;231.210007;45.57;0.0;0.0;0.0
3.04;0.0;0.0;0.0;0.0;0.0;0.0;0.0;0.0;0.0;0.0;0.0;0.0;0.0;0.0;0.25;0.0;0.832031;0.163574;1.374023;-122.290001;112.419998;-71.540001;3.0;0.0;0.0;0.0;0.0;0.0;0.0;0.0;0.0;0.0;0.0;0.0;0.0;0.0;0.0;0.0;0.0;0.25;0.0;2.276855;-0.331055;1.847656;-87.220001;220.570007;97.440002;3.0;0.0;0.0
3.05;0.0;0.0;0.0;0.0;0.0;0.0;0.0;0.0;0.0;0.0;0.0;0.0;0.0;0.0;0.25;0.0;0.765137;0.289062;1.323242;-89.949997;49.560001;-69.230003;3.0;0.0;0.0;0.0;0.0;0.0;0.0;0.0;0.0;0.0;0.0;0.0;0.0;0.0;0.0;0.0;0.0;0.0;0.0;2.539062;-0.54834;1.980469;-145.389999;148.539993;139.930008;0.0;0.0;0.0
3.06;0.0;0.0;0.0;0.0;0.0;0.0;0.0;0.0;0.0;0.0;0.0;0.0;0.0;0.0;0.25;0.0;0.598145;0.170898;1.054688;-37.73;-12.74;-69.019997;3.0;0.0;0.0;0.0;0.0;0.0;0.0;0.0;0.0;0.0;0.0;0.0;0.0;0.0;0.0;0.0;0.0;0.25;0.0;2.11084;-0.527832;2.17334;-171.919998;46.130001;154.350006;3.0;0.0;0.0
3.07;0.0;0.0;0.0;0.0;0.0;0.0;0.0;0.0;0.0;0.0;0.0;0.0;0.0;0.0;0.25;0.0;0.376465;-0.080566;0.442871;-9.03;-51.099998;-74.129997;3.0;0.0;0.0;0.0;0.0;0.0;0.0;0.0;0.0;0.0;0.0;0.0;0.0;0.0;0.0;0.0;0.0;0.25;0.0;1.46875;-0.57666;1.712402;-157.360001;-52.5;133.139999;3.0;0.0;0.0
3.08;0.0;0.0;0.0;0.0;0.0;0.0;0.0;0.0;0.0;0.0;0.0;0.0;0.0;0.25;0.0;0.0;0.213379;-0.359863;-0.413086;-34.580002;-31.43;-80.849998;2.0;0.0;0.0;0.0;0.0;0.0;0.0;0.0;0.0;0.0;0.0;0.0;0.0;0.0;0.0;0.0;0.0;0.0;0.0;0.961914;-0.605469;0.848145;-108.849998;-119.209999;90.93;0.0;0.0;0.0
3.09;0.0;0.0;0.0;0.0;0.0;0.0;0.0;0.0;0.0;0.0;0.0;0.0;0.0;0.0;0.25;0.0;0.285156;-0.330078;-0.618652;-79.870003;17.92;-76.860001;3.0;0.0;0.0;0.0;0.0;0.0;0.0;0.0;0.0;0.0;0.0;0.0;0.0;0.0;0.0;0.0;0.0;0.0;0.0;-0.020996;-0.277832;-0.192383;-30.940001;-132.860001;2.45;0.0;0.0;0.0
3.1;0.0;0.0;0.0;0.0;0.0;0.0;0.0;0.0;0.0;0.0;0.0;0.0;0.0;0.0;0.25;0.0;0.427734;0.006836;-0.234375;-114.590004;70.489998;-59.080002;3.0;0.0;0.0;0.0;0.0;0.0;0.0;0.0;0.0;0.0;0.0;0.0;0.0;0.0;0.0;0.0;0.0;0.0;0.0;-0.755371;-0.035645;-0.556641;7.7;-98.980003;-63.209999;0.0;0.0;0.0
3.11;0.0;0.0;0.0;0.0;0.0;0.0;0.0;0.0;0.0;0.0;0.0;0.0;0.0;2.75;2.25;0.25;-0.739746;-0.157715;0.618164;-117.599998;101.080002;-28.49;53.0;0.40913;0.037037;0.0;0.0;0.0;0.0;0.0;0.0;0.0;0.0;0.0;0.0;0.0;0.0;0.0;0.0;0.0;0.0;-1.055176;-0.051758;-0.52832;41.720001;-54.110001;-110.669998;0.0;0.0;0.0
3.12;0.0;0.0;0.0;0.0;0.0;0.0;0.0;0.0;0.0;0.0;0.0;0.0;0.0;6.75;4.75;2.75;5.084961;2.260742;6.918945;-158.970001;2.03;60.760002;133.0;0.404424;0.011661;0.0;0.0;0.0;0.0;0.0;0.0;0.0;0.0;0.0;0.0;0.0;0.0;0.0;0.0;0.0;0.0;-1.066895;-0.161133;-0.361328;57.68;-14.63;-134.190002;0.0;0.0;0.0
3.13;0.0;0.0;0.0;0.0;0.0;0.0;0.0;0.0;0.5;0.25;0.25;0.5;0.0;10.75;5.75;6.5;-2.665527;0.006348;2.097656;62.369999;-122.989998;154.559998;223.0;0.387254;0.001582;0.0;0.0;0.0;0.0;0.0;0.0;0.0;0.0;0.0;0.0;0.0;0.0;0.0;0.0;0.0;0.0;-1.137207;-0.131348;-0.398926;33.18;13.16;-142.309998;0.0;0.0;0.0
3.14;0.0;0.0;0.0;0.0;0.0;0.0;0.25;0.0;2.75;0.5;0.5;0.75;0.25;11.25;5.25;10.0;0.057617;0.905273;0.264648;-93.309998;-281.679993;139.789993;290.0;0.359721;0.009948;0.0;0.0;0.0;0.0;0.0;0.0;0.0;0.0;0.0;0.0;0.0;0.0;0.0;0.0;0.0;0.0;-1.14209;0.004395;-0.49707;17.290001;19.18;-140.770004;0.0;0.0;0.0
3.15;0.0;0.0;0.0;0.0;0.0;0.0;0.25;0.0;4.75;4.0;2.25;2.5;1.5;10.0;4.25;10.75;0.333496;0.121582;3.583008;-98.279999;-485.450012;-3.36;392.0;0.316624;-0.007565;0.0;0.0;0.0;0.0;0.0;0.0;0.0;0.0;0.0;0.0;0.0;0.0;0.0;0.0;0.0;0.0;-1.07373;0.512207;-0.460938;-14.21;58.66;-116.970001;0.0;0.0;0.0
3.16;0.0;0.0;0.0;0.0;0.0;0.0;0.25;0.0;9.25;7.5;4.25;3.0;3.25;11.0;3.5;9.75;-5.527344;0.112305;15.995117;232.190002;-838.950012;59.150002;536.0;0.293895;0.017715;0.0;0.0;0.0;0.0;0.0;0.0;0.0;0.0;0.0;0.0;0.0;0.0;0.0;0.0;0.0;0.0;-0.428711;0.634277;-0.14209;-26.32;94.779999;-85.400002;0.0;0.0;0.0
3.17;0.0;0.0;0.0;0.0;0.0;0.0;0.25;0.0;10.75;8.5;5.0;3.25;5.0;10.75;3.5;8.0;-0.587891;0.006348;2.306152;31.15;-679.77002;14.07;584.0;0.284914;0.016253;0.0;0.0;0.0;0.0;0.0;0.0;0.0;0.0;0.0;0.0;0.0;0.0;0.0;0.25;1.75;0.0;1.644043;-0.05127;-0.561035;-41.580002;117.18;-39.34;22.0;0.0;0.0
3.18;0.0;0.0;0.0;0.0;0.0;0.0;0.25;0.0;10.25;8.0;5.0;3.5;6.75;10.75;3.0;7.25;-0.034668;0.007812;4.735352;174.229996;-726.950012;40.599998;580.0;0.280261;0.000977;0.0;0.0;0.0;0.0;0.0;0.0;0.0;0.0;0.25;0.5;0.25;0.25;0.0;4.25;2.75;0.5;5.405273;0.429688;4.635254;-25.76;-7.63;-20.51;89.0;0.379467;0.041103
3.19;0.0;0.0;0.0;0.0;0.0;0.0;0.25;0.0;10.0;7.0;5.0;4.0;9.0;10.75;3.0;6.75;0.042969;0.037598;2.974121;98.840004;-477.679993;21.07;589.0;0.276086;-0.019857;0.0;0.0;0.0;0.0;0.0;0.0;0.0;0.0;1.5;1.5;0.5;0.75;0.25;6.25;2.75;2.75;1.190918;0.397461;2.740723;13.09;-113.260002;-16.799999;161.0;0.346184;0.03279
3.2;0.0;0.0;0.0;0.0;0.0;0.0;0.5;1.25;9.0;6.0;4.75;3.75;10.5;10.5;3.25;6.0;-0.155762;0.239258;1.517578;34.439999;-362.040009;11.9;593.0;0.26329;-0.047393;0.0;0.0;0.0;0.0;0.0;0.0;0.25;0.0;3.75;5.75;4.25;2.75;1.5;7.75;2.75;4.75;1.697266;0.241211;4.389648;-40.25;-438.410004;-81.269997;349.0;0.29335;-0.000772
3.21;0.0;0.0;0.0;0.0;0.0;0.0;2.0;4.5;8.5;5.5;3.5;3.0;11.25;10.25;3.25;5.5;0.096191;1.485352;0.828613;5.88;-250.180008;6.65;638.0;0.23268;-0.069261;0.0;0.0;0.0;0.0;0.0;0.0;0.0;0.0;5.75;8.5;5.5;3.0;1.5;8.0;3.0;5.0;-1.877441;-1.811035;6.900879;209.089996;-1012.549988;48.720001;429.0;0.28789;0.013477
3.22;3.0;5.5;2.5;5.25;2.5;5.75;3.5;7.5;8.0;5.5;2.25;1.5;8.75;8.75;3.25;5.0;-0.421875;-0.106445;1.355957;-21.210001;-139.229996;-6.16;914.0;0.058085;-0.084645;0.0;0.0;0.0;0.0;0.0;0.0;0.0;0.0;6.25;10.0;5.5;2.75;2.0;8.0;3.0;4.25;-0.045898;0.193848;3.711426;70.07;-610.470032;23.59;450.0;0.284183;0.019769
3.23;7.25;11.0;4.5;7.5;4.25;7.5;4.0;7.0;8.0;5.5;1.5;0.75;6.75;8.75;3.75;5.5;1.183594;0.422363;1.257324;-21.98;1.12;-8.26;1083.0;-0.011245;-0.067871;0.0;0.0;0.0;0.0;0.0;0.0;0.0;0.0;7.25;10.5;5.5;2.75;2.5;9.25;2.75;3.75;-0.39502;0.348145;3.068359;165.619995;-511.559998;28.98;481.0;0.283629;0.029623
3.24;4.5;5.5;2.75;3.0;2.5;3.5;3.75;5.25;8.5;5.5;1.5;1.0;5.0;10.5;4.0;7.0;-0.155762;0.029297;1.117676;-9.66;22.889999;-9.03;841.0;0.077562;-0.031833;0.0;0.0;0.0;0.0;0.0;0.0;0.0;0.0;7.5;10.5;5.0;2.5;2.5;10.25;2.75;3.5;-0.120605;0.373047;2.319824;140.419998;-512.119995;23.309999;484.0;0.28682;0.038989
3.25;1.75;2.25;1.25;1.5;1.0;1.5;3.0;2.75;9.25;6.0;2.25;0.75;4.25;12.25;3.75;8.0;-0.321777;-0.041504;1.110352;5.46;50.400002;-4.83;680.0;0.174765;0.005996;0.0;0.0;0.0;0.0;0.0;0.0;0.0;0.0;7.75;10.5;4.75;2.5;4.25;11.25;3.25;3.5;-0.36084;0.07666;1.969727;100.800003;-380.869995;12.11;516.0;0.286828;0.026639
3.26;0.5;1.0;0.5;0.25;0.25;0.5;2.0;1.75;9.25;6.0;2.5;0.75;3.75;12.75;3.5;8.0;-0.270996;0.038086;1.058594;5.81;81.340004;-3.78;575.0;0.241646;0.026631;0.0;0.0;0.0;0.0;0.0;0.0;0.5;2.0;8.5;9.5;3.75;1.5;4.75;12.75;3.5;3.5;-0.529297;0.125;1.830078;35.07;-208.809998;4.76;555.0;0.271902;0.01749
3.27;0.5;0.5;0.0;0.0;0.0;0.0;1.25;1.0;9.0;5.5;2.25;0.5;3.0;12.75;3.25;7.5;-0.259277;0.110352;0.864258;3.15;66.010002;-3.15;499.0;0.274478;0.047845;1.75;3.75;1.5;2.0;2.5;2.25;1.75;4.25;8.5;8.0;2.5;0.75;4.0;12.0;3.75;3.5;-0.834473;-0.154785;1.607422;-29.540001;-140.0;-5.32;719.0;0.134698;-0.0117
3.28;0.25;0.25;0.0;0.0;0.0;0.0;1.0;0.75;8.75;5.5;2.0;0.5;2.25;12.25;3.0;6.75;-0.287598;-0.076172;0.717285;5.95;9.8;-5.74;460.0;0.285763;0.060949;7.0;10.0;4.5;5.5;4.75;3.5;2.5;4.0;8.5;7.5;1.75;0.25;2.75;11.75;3.75;3.5;0.675293;0.239746;1.245117;-41.860001;-11.9;-10.29;936.0;0.013646;-0.009613
3.29;0.0;0.0;0.0;0.0;0.0;0.0;0.75;1.0;8.25;5.5;1.5;0.5;1.75;10.75;2.75;5.5;-0.243164;0.014648;0.912598;6.65;-40.599998;-2.24;413.0;0.290014;0.064116;6.5;6.5;4.0;2.5;3.5;1.5;2.5;2.25;9.25;7.25;1.5;0.25;1.5;13.25;4.0;3.5;-0.255859;-0.040527;1.118164;-19.040001;23.940001;-8.89;795.0;0.067836;0.039707
3.3;0.25;0.0;0.25;0.0;0.0;0.25;0.5;1.0;6.75;5.0;1.5;0.5;1.75;8.5;2.0;4.0;-0.298828;-0.03418;1.063477;7.42;-49.349998;-1.05;352.0;0.269276;0.053318;2.5;3.0;1.75;1.25;1.5;0.5;2.0;1.0;10.25;8.0;1.5;0.25;1.0;15.0;4.0;4.0;-0.345215;-0.034668;1.056152;-3.29;45.150002;-7.14;644.0;0.179394;0.07753
3.31;0.25;0.25;0.25;0.25;0.25;0.25;0.5;1.5;5.25;4.5;1.25;0.75;1.5;5.75;1.25;3.0;-0.228027;-0.006836;1.07373;5.04;-32.689999;3.01;299.0;0.230199;0.023191;1.0;1.25;0.75;0.5;0.5;0.0;1.25;0.5;10.5;8.0;1.5;0.25;0.75;15.5;3.75;4.25;-0.296387;0.029785;1.073242;1.47;61.950001;-11.41;554.0;0.250603;0.100633
3.32;0.5;0.5;0.25;0.25;0.25;0.5;0.5;1.75;4.0;4.0;0.75;0.75;1.0;3.25;1.25;1.5;-0.186035;0.004883;1.063477;5.04;-10.57;6.16;246.0;0.184734;0.002523;0.5;0.75;0.25;0.25;0.25;0.0;0.75;0.25;9.75;7.75;1.5;0.25;0.75;15.75;3.5;4.0;-0.331055;-0.052246;0.768555;0.56;41.720001;-10.22;503.0;0.280752;0.106391
3.33;0.5;0.5;0.25;0.5;0.0;0.5;0.25;1.75;2.25;3.0;0.75;0.75;0.75;3.0;0.5;1.5;-0.187988;0.004395;1.058594;7.07;9.17;6.72;192.0;0.159235;-0.038803;0.25;0.5;0.25;0.0;0.0;0.0;0.5;0.0;9.0;7.5;1.25;0.25;0.5;15.0;3.25;3.5;-0.375977;-0.134766;0.674316;14.7;-3.22;-5.6;452.0;0.298294;0.117226
3.34;0.25;0.5;0.0;0.5;0.0;0.5;0.25;1.25;1.5;2.25;0.75;0.5;0.5;2.5;0.25;1.25;-0.192383;0.040527;1.024414;11.69;31.5;5.81;144.0;0.160824;-0.044639;0.25;0.5;0.25;0.25;0.0;0.0;0.5;0.25;7.75;7.5;1.25;0.25;0.75;13.25;3.0;3.5;-0.294434;-0.056641;0.875488;25.76;-34.720001;5.04;425.0;0.287045;0.099029
3.35;0.25;0.5;0.0;0.25;0.0;0.25;0.25;1.0;1.25;1.0;0.75;0.25;0.5;2.0;0.25;1.0;-0.217773;0.029297;0.998047;11.06;34.09;3.71;107.0;0.160101;-0.043977;0.5;0.5;0.25;0.25;0.25;0.0;0.5;0.25;6.25;6.75;1.5;0.25;0.75;10.75;3.0;3.0;-0.252441;-0.023926;1.049805;22.610001;-29.75;10.36;377.0;0.272614;0.086395
3.36;0.25;0.25;0.0;0.0;0.0;0.25;0.25;0.5;1.0;0.5;0.5;0.75;0.25;1.5;0.25;0.5;-0.229492;0.023926;0.98291;5.32;27.440001;2.8;77.0;0.182424;-0.024528;0.5;0.5;0.5;0.25;0.25;0.0;0.25;0.75;4.5;6.75;1.5;0.5;0.75;7.75;2.75;2.5;-0.249512;-0.007324;1.055176;19.32;-19.879999;11.55;329.0;0.249622;0.05202
3.37;0.0;0.0;0.0;0.0;0.0;0.0;0.0;0.25;0.5;0.5;0.25;0.75;0.25;1.0;0.25;0.5;-0.210938;0.013672;1.004395;2.38;24.219999;4.06;46.0;0.0;0.0;0.5;0.75;0.25;0.25;0.25;0.25;0.25;1.0;3.25;5.75;1.5;0.5;1.0;4.75;2.75;1.25;-0.316895;-0.020996;1.057129;12.32;9.8;13.3;273.0;0.220486;0.016916
3.38;0.25;0.0;0.0;0.0;0.0;0.0;0.0;0.25;0.5;0.5;0.25;0.75;0.25;0.75;0.25;0.25;-0.240234;0.050293;0.945801;-4.34;18.48;5.53;45.0;0.0;0.0;0.25;0.75;0.25;0.25;0.0;0.25;0.25;1.0;1.5;5.25;1.75;0.75;1.5;3.25;2.0;0.5;-0.246094;-0.041992;1.064453;8.05;25.41;17.08;220.0;0.20513;-0.031045
3.39;0.0;0.0;0.0;0.0;0.0;0.0;0.0;0.25;0.25;0.25;0.25;0.5;0.25;0.75;0.25;0.25;-0.207031;0.084961;0.962891;-5.67;13.16;5.11;33.0;0.0;0.0;0.25;0.25;0.25;0.25;0.0;0.0;0.25;0.75;1.5;4.5;1.5;0.75;1.5;2.75;0.75;0.5;-0.229004;0.025879;1.033691;1.96;34.790001;13.93;178.0;0.210018;-0.019229
3.4;0.25;0.0;0.0;0.0;0.0;0.0;0.0;0.25;0.5;0.25;0.25;0.25;0.5;0.5;0.25;0.25;-0.21875;0.064453;0.922852;-6.58;1.33;3.85;36.0;0.0;0.0;0.25;0.25;0.0;0.0;0.0;0.0;0.0;0.5;1.25;3.5;0.75;0.5;1.25;2.25;0.5;0.5;-0.287598;0.017578;0.999023;-2.1;44.170002;10.92;127.0;0.228473;-0.013738
3.41;0.0;0.0;0.0;0.0;0.0;0.0;0.0;0.25;0.25;0.25;0.25;0.5;0.25;0.5;0.25;0.25;-0.207031;0.054199;0.916016;-3.57;-5.04;1.4;31.0;0.0;0.0;0.0;0.0;0.0;0.0;0.0;0.0;0.0;0.25;1.0;2.75;0.75;0.5;0.75;1.75;0.5;0.25;-0.286133;-0.024414;1.055664;-10.08;37.310001;8.05;95.0;0.264803;0.002998
3.42;0.0;0.0;0.0;0.0;0.0;0.0;0.0;0.25;0.25;0.25;0.25;0.5;0.25;0.25;0.25;0.25;-0.217285;0.024414;0.908691;-3.64;-14.7;-1.96;28.0;0.0;0.0;0.0;0.0;0.0;0.0;0.0;0.0;0.0;0.25;0.5;2.0;0.25;0.25;0.5;1.0;0.25;0.25;-0.291504;-0.005859;0.958984;-10.22;36.610001;6.44;58.0;0.255121;-0.010723
3.43;0.25;0.25;0.0;0.0;0.0;0.0;0.0;0.25;0.5;0.25;0.5;0.25;0.25;0.25;0.25;0.5;-0.21582;0.054199;0.950195;-3.36;-23.379999;-4.9;39.0;0.0;0.0;0.0;0.0;0.0;0.0;0.0;0.0;0.0;0.25;0.5;1.5;0.25;0.25;0.25;1.25;0.25;0.25;-0.230469;0.09082;0.871582;-8.96;26.110001;5.74;52.0;0.267516;0.009782
3.44;0.25;0.25;0.0;0.25;0.0;0.25;0.0;0.25;0.5;0.5;0.5;0.25;0.25;0.5;0.25;0.5;-0.228516;0.039062;0.922363;3.5;-17.57;-3.08;50.0;0.0;0.0;0.0;0.0;0.0;0.0;0.0;0.0;0.0;0.0;0.25;0.5;0.25;0.25;0.25;0.75;0.25;0.25;-0.261719;0.041992;0.905762;-2.8;2.03;-1.33;29.0;0.0;0.0
3.45;0.25;1.0;0.0;0.25;0.0;0.25;0.0;0.5;0.75;0.5;0.5;0.25;0.25;0.75;0.25;0.5;-0.201172;-0.017578;0.994629;1.68;-21.07;-2.38;67.0;0.070666;-0.079224;0.0;0.0;0.0;0.0;0.0;0.0;0.0;0.0;0.25;0.75;0.25;0.25;0.25;0.5;0.5;0.0;-0.282715;0.021973;0.870117;-0.42;-11.41;-2.24;31.0;0.0;0.0
3.46;1.25;2.25;0.25;1.0;0.0;0.5;0.0;0.75;1.25;0.5;0.25;0.5;0.25;0.75;0.5;0.5;-0.243652;0.013672;0.969727;-3.43;-22.82;-1.61;121.0;-0.049747;-0.076228;0.0;0.0;0.0;0.0;0.0;0.0;0.0;0.0;0.25;0.5;0.5;0.25;0.25;0.5;0.25;0.25;-0.281738;0.002441;0.903809;2.24;-21.210001;-2.45;29.0;0.0;0.0
3.47;4.0;5.5;0.5;2.0;0.0;0.5;0.0;1.0;1.5;0.25;0.5;0.5;0.25;0.75;0.25;0.25;-0.195801;0.007324;1.018066;-6.09;-17.710001;0.63;203.0;-0.184017;-0.069661;0.0;0.0;0.0;0.0;0.0;0.0;0.0;0.0;0.25;0.5;0.5;0.5;0.25;0.5;0.25;0.25;-0.265625;0.050781;0.931641;4.76;-26.6;-2.38;32.0;0.0;0.0
3.48;6.75;8.0;1.25;3.0;0.0;1.0;0.25;0.75;2.25;1.0;0.5;0.5;0.25;0.75;0.25;0.25;-0.188965;0.006348;1.030273;-3.15;-9.94;1.54;305.0;-0.202898;-0.040311;0.0;0.0;0.0;0.0;0.0;0.0;0.0;0.25;0.25;0.5;0.5;0.5;0.5;0.25;0.25;0.25;-0.275391;0.012207;0.895508;8.19;-31.08;-3.5;36.0;0.0;0.0
3.49;8.25;10.0;1.75;4.0;0.0;1.25;0.25;1.0;2.25;1.75;0.75;0.75;0.5;1.0;0.25;0.5;-0.199219;0.012695;1.014648;0.28;-4.62;2.38;388.0;-0.199886;-0.051999;0.0;0.0;0.0;0.0;0.0;0.0;0.0;0.25;0.25;0.75;0.5;0.5;0.5;0.25;0.5;0.25;-0.282715;0.009766;0.925781;9.94;-48.790001;-4.76;42.0;0.0;0.0
3.5;8.5;10.75;1.75;4.0;0.0;1.25;0.25;0.75;2.25;1.75;0.75;0.75;0.5;1.0;0.25;0.5;-0.200195;0.005371;1.003418;2.66;-1.12;3.08;394.0;-0.207481;-0.049447;0.0;0.0;0.0;0.0;0.0;0.0;0.0;0.25;0.25;1.0;0.75;0.5;0.5;0.75;0.75;0.5;-0.157715;-0.024414;0.615723;20.23;-29.26;-1.33;57.0;0.264269;-0.09162
3.51;8.25;10.75;1.75;4.0;0.25;1.25;0.25;1.0;2.25;1.75;0.75;0.75;0.75;1.0;0.5;0.5;-0.203613;0.019531;0.999512;2.8;1.61;3.22;404.0;-0.196926;-0.055896;0.0;0.0;0.0;0.0;0.0;0.0;0.0;0.25;0.25;1.5;0.5;0.5;0.75;1.0;0.75;0.25;-0.241699;0.012207;1.072266;17.360001;-30.030001;-0.21;63.0;0.263592;-0.075105
3.52;7.5;10.0;1.5;3.75;0.25;1.5;0.25;1.0;2.0;1.75;0.75;0.75;1.0;1.0;0.5;0.75;-0.203613;0.027832;0.995605;2.73;2.17;3.01;385.0;-0.186296;-0.065411;0.25;0.25;0.0;0.0;0.0;0.0;0.0;0.25;0.5;1.5;0.5;0.25;0.25;1.0;0.75;0.25;-0.264648;-0.003418;0.975586;14.84;-29.540001;0.21;64.0;0.216414;-0.012693
3.53;6.75;8.75;1.25;3.75;0.25;1.5;0.0;1.25;1.75;1.75;0.75;0.75;1.0;1.0;0.5;0.5;-0.209961;0.029297;0.998047;1.47;2.94;1.68;356.0;-0.180062;-0.077087;0.5;0.5;0.25;0.25;0.0;0.0;0.0;0.75;0.5;2.0;0.5;0.25;0.75;1.0;0.75;0.5;-0.262695;0.01709;1.002441;5.25;-28.91;1.47;96.0;0.131681;-0.071767
3.54;6.0;7.75;1.0;3.25;0.0;1.25;0.25;1.0;1.75;1.5;0.5;0.75;1.0;1.0;0.5;0.5;-0.207031;0.030273;0.995605;0.35;3.5;0.77;317.0;-0.170729;-0.07013;3.0;2.0;1.25;0.5;0.0;0.0;0.0;1.0;0.5;2.0;0.75;0.25;0.75;1.5;0.75;0.5;-0.280273;0.026367;1.004883;-4.69;-21.42;1.89;166.0;-0.040412;-0.042301
3.55;5.0;6.75;1.0;2.75;0.0;1.0;0.0;1.0;1.5;1.5;0.5;0.5;1.0;0.75;0.5;0.5;-0.200195;0.027832;0.989746;-0.91;3.85;-0.14;273.0;-0.167997;-0.077341;5.25;3.5;1.75;1.25;0.0;0.25;0.0;1.0;1.0;2.25;0.75;0.25;0.75;1.75;0.75;0.5;-0.195801;0.040039;1.02832;-6.3;-6.72;2.8;237.0;-0.103248;-0.027402
3.56;4.5;5.75;0.75;2.25;0.0;1.0;0.0;1.0;1.5;1.5;0.75;0.5;1.0;0.75;0.25;0.5;-0.209473;0.024902;0.992676;-1.75;3.5;-0.63;249.0;-0.150585;-0.076851;6.75;4.25;2.5;1.75;0.25;0.5;0.0;1.0;1.5;2.5;0.75;0.25;0.75;1.75;0.75;0.75;-0.204102;0.030762;1.01123;-2.59;-2.38;1.68;294.0;-0.123754;-0.018293
3.57;4.0;5.5;1.0;2.0;0.0;0.75;0.0;0.75;1.75;1.5;0.5;0.75;1.0;0.75;0.0;0.5;-0.205078;0.016602;0.990234;-2.52;3.08;-1.12;234.0;-0.144591;-0.065008;6.75;4.25;2.5;1.75;0.25;0.5;0.0;1.0;1.5;2.5;0.75;0.5;0.75;2.0;0.75;0.75;-0.236328;0.019043;0.991211;0.07;0.77;0.91;299.0;-0.11639;-0.019445
3.58;3.25;5.25;1.0;2.0;0.0;0.75;0.0;0.5;1.5;1.25;0.5;0.75;0.75;0.75;0.25;0.5;-0.203613;0.020508;0.98877;-2.59;2.59;-1.05;213.0;-0.141562;-0.067616;5.0;3.5;1.75;1.25;0.25;0.25;0.0;1.0;1.5;2.75;0.75;0.5;0.75;2.5;0.75;0.75;-0.248047;0.013184;0.97998;0.98;3.43;1.05;261.0;-0.063096;-0.016723
3.59;3.5;4.5;0.75;1.75;0.0;0.75;0.0;0.5;1.5;1.25;0.5;0.5;0.5;1.0;0.5;0.75;-0.210449;0.012207;0.992676;-2.24;2.1;-0.7;204.0;-0.121834;-0.052957;3.75;2.5;1.0;0.75;0.0;0.0;0.0;0.75;1.25;2.75;0.5;0.25;0.75;2.25;1.0;0.75;-0.244629;0.024902;0.987793;1.26;4.62;1.26;203.0;-0.017223;-0.009304
3.6;3.5;4.75;0.75;1.75;0.0;0.5;0.0;0.5;1.5;1.25;0.5;0.5;0.5;1.0;0.25;0.5;-0.208496;0.015137;0.993164;-1.82;2.03;-0.42;199.0;-0.136339;-0.048739;2.0;1.25;0.5;0.5;0.0;0.0;0.0;0.25;0.75;2.5;0.75;0.25;0.5;2.25;0.75;0.75;-0.244629;0.03125;0.987793;0.84;5.18;1.05;141.0;0.063136;0.002049
3.61;4.0;4.75;0.75;1.75;0.0;0.75;0.0;0.5;1.75;1.25;0.5;0.5;0.5;1.0;0.25;0.5;-0.210938;0.015625;0.990723;-1.47;1.68;0.0;211.0;-0.137064;-0.042199;1.25;0.75;0.25;0.25;0.0;0.0;0.0;0.5;0.75;2.5;0.75;0.5;0.5;1.75;0.75;0.75;-0.249023;0.023438;0.976074;0.35;4.83;0.42;124.0;0.119041;-0.021897
3.62;4.0;5.0;0.75;1.75;0.0;0.5;0.0;0.5;1.75;1.25;0.5;0.5;0.5;1.25;0.25;0.5;-0.211426;0.020508;0.993652;-0.91;1.54;0.35;213.0;-0.134167;-0.038046;1.25;1.0;0.5;0.5;0.0;0.25;0.0;0.5;0.75;2.25;0.75;0.25;0.75;2.25;0.5;0.75;-0.246582;0.033203;0.970215;-0.28;4.06;0.35;133.0;0.085385;-0.027665
3.63;4.0;5.5;0.75;1.75;0.0;0.5;0.0;0.5;1.5;1.25;0.5;0.5;0.5;1.0;0.5;0.5;-0.205566;0.019043;0.98584;-0.7;1.47;0.7;215.0;-0.14597;-0.049166;0.75;0.75;0.25;0.5;0.0;0.0;0.0;0.5;0.75;2.25;0.75;0.25;0.75;1.5;0.5;0.5;-0.246582;0.024902;0.96582;-1.05;3.22;0.28;111.0;0.113523;-0.037204
3.64;4.5;5.5;1.0;2.0;0.0;0.5;0.0;0.5;1.5;1.25;0.5;0.5;0.5;1.0;0.5;0.25;-0.211914;0.015137;0.98877;-0.49;1.4;0.77;225.0;-0.159271;-0.04392;0.75;0.75;0.25;0.5;0.0;0.0;0.0;0.5;0.5;2.25;1.0;0.25;0.75;1.5;0.75;0.5;-0.248047;0.025391;0.966797;-1.61;1.68;0.49;113.0;0.119316;-0.050196
3.65;4.75;5.75;1.0;2.25;0.0;0.5;0.0;0.5;1.5;1.25;0.5;0.5;0.5;1.0;0.5;0.25;-0.205566;0.017578;0.997559;-0.49;1.33;0.91;233.0;-0.166652;-0.045712;1.0;0.5;0.25;0.25;0.0;0.25;0.0;0.5;0.5;2.0;0.75;0.25;0.5;1.5;0.75;0.5;-0.240723;0.022461;0.963867;-1.68;-0.42;0.56;105.0;0.114719;-0.036551
3.66;4.75;6.25;0.75;2.25;0.0;0.5;0.0;0.5;1.25;1.0;0.25;0.5;0.5;1.0;0.25;0.5;-0.208008;0.016113;0.994629;-0.56;1.33;1.05;225.0;-0.191636;-0.057127;1.0;0.5;0.5;0.5;0.0;0.0;0.0;0.5;0.5;2.0;0.5;0.25;0.5;1.5;0.5;0.5;-0.248535;0.026367;0.973633;-1.4;-2.24;0.84;103.0;0.088103;-0.027975
3.67;4.75;6.25;1.25;2.25;0.0;0.5;0.0;0.5;1.5;0.75;0.25;0.5;0.5;0.5;0.25;0.5;-0.20752;0.022949;0.993652;-0.84;1.26;0.98;227.0;-0.20433;-0.054288;1.0;0.75;0.5;0.5;0.0;0.0;0.0;0.5;0.5;1.75;0.5;0.25;0.5;1.5;0.5;0.5;-0.24707;0.028809;0.977051;-1.12;-3.5;1.12;102.0;0.071429;-0.033933
3.68;5.0;7.0;1.25;2.5;0.0;0.5;0.0;0.5;1.0;0.75;0.25;0.25;0.25;0.5;0.25;0.25;-0.205566;0.022949;0.995117;-1.4;1.26;0.84;227.0;-0.242386;-0.059619;1.25;1.25;0.5;0.5;0.0;0.25;0.0;0.25;0.5;1.75;0.5;0.5;0.5;0.75;0.25;0.5;-0.244141;0.024902;0.981445;-0.84;-3.64;1.33;102.0;0.00214;-0.049356
3.69;5.25;7.25;1.25;2.625;0.0;0.5;0.0;0.5;1.0;0.875;0.375;0.25;0.25;0.375;0.25;0.125;-0.205566;0.0214845;0.9921875;-1.855;1.155;0.7;234.5;-0.245745;-0.059751;2.25;1.5;0.5;0.5;0.0;0.25;0.0;0.5;0.5;1.5;0.5;0.25;0.5;0.75;0.25;0.25;-0.246582;0.02832;0.978027;-0.7;-3.29;1.33;113.0;-0.064378;-0.041822
3.7;5.5;7.5;1.25;2.75;0.0;0.5;0.0;0.5;1.0;1.0;0.5;0.25;0.25;0.25;0.25;0.0;-0.205566;0.02002;0.989258;-2.31;1.05;0.56;242.0;-0.249104;-0.059883;2.25;1.75;0.75;0.75;0.0;0.25;0.0;0.5;0.5;1.75;0.5;0.25;0.5;0.25;0.5;0.25;-0.246094;0.023926;0.978516;-0.84;-3.15;1.26;122.0;-0.082069;-0.052414
3.71;6.0;7.5;1.25;2.75;0.0;0.5;0.0;0.25;1.0;1.0;0.5;0.5;0.5;0.25;0.25;0.25;-0.20459;0.015137;0.995117;-2.8;0.98;0.42;250.0;-0.243709;-0.058542;2.75;2.0;0.5;0.75;0.0;0.25;0.0;0.5;0.25;1.5;0.25;0.25;0.25;0.25;0.25;0.25;-0.246094;0.022949;0.976562;-0.7;-3.01;1.4;113.0;-0.144919;-0.053077
3.72;6.5;7.75;1.5;2.75;0.0;0.25;0.0;0.25;1.0;1.25;0.5;0.5;0.25;0.5;0.25;0.0;-0.208984;0.010254;0.991699;-3.57;1.12;0.07;260.0;-0.246194;-0.0432;3.5;2.75;1.0;0.75;0.0;0.25;0.0;0.5;0.25;1.5;0.25;0.25;0.5;0.25;0.25;0.25;-0.228516;0.015137;0.979004;-0.35;-2.52;1.54;138.0;-0.175763;-0.049981
3.73;6.75;7.75;1.25;2.5;0.0;0.25;0.0;0.25;1.25;0.75;0.5;0.5;0.0;0.25;0.25;0.25;-0.20752;0.01709;0.993652;-3.64;1.33;0.0;251.0;-0.257489;-0.038546;4.25;3.25;1.5;1.25;0.0;0.25;0.0;0.25;0.25;1.25;0.25;0.25;0.25;0.25;0.25;0.25;-0.234375;0.022949;0.982422;-0.07;-1.82;1.61;154.0;-0.221531;-0.032868
3.74;7.0;7.75;1.25;2.5;0.0;0.5;0.0;0.25;1.25;1.0;0.25;0.25;0.25;0.25;0.25;0.25;-0.202148;0.015137;0.994141;-3.36;1.4;-0.07;257.0;-0.259073;-0.038635;5.0;4.25;1.5;1.25;0.0;0.25;0.0;0.25;0.0;1.25;0.25;0.25;0.25;0.25;0.25;0.0;-0.241699;0.020508;0.979004;-0.14;-1.75;1.61;167.0;-0.25788;-0.037789
3.75;7.0;7.75;1.25;2.25;0.0;0.5;0.0;0.25;1.25;1.25;0.25;0.25;0.0;0.5;0.25;0.25;-0.206543;0.014648;0.994629;-3.01;1.68;0.07;256.0;-0.251058;-0.029479;5.75;4.75;1.5;1.5;0.0;0.5;0.0;0.5;0.25;1.0;0.25;0.25;0.25;0.25;0.25;0.25;-0.23877;0.02832;0.974609;-0.35;-1.68;1.4;193.0;-0.255024;-0.04668
3.76;6.0;7.25;1.25;2.5;0.0;0.5;0.0;0.25;1.25;1.25;0.25;0.5;0.0;0.5;0.25;0.25;-0.209473;0.01123;0.986328;-2.38;1.47;0.21;246.0;-0.235713;-0.038545;5.75;5.0;1.5;1.75;0.0;0.5;0.0;0.5;0.25;1.25;0.25;0.25;0.25;0.25;0.25;0.25;-0.234375;0.023926;0.977051;-0.56;-1.61;1.33;202.0;-0.250542;-0.049266
3.77;6.0;7.0;1.25;2.5;0.0;0.5;0.0;0.25;1.25;1.25;0.25;0.5;0.0;0.5;0.0;0.25;-0.211914;0.01709;0.996582;-1.89;1.33;0.35;241.0;-0.241482;-0.036689;6.25;5.0;1.5;1.75;0.25;0.25;0.0;0.5;0.25;1.25;0.25;0.25;0.5;0.25;0.25;0.25;-0.234375;0.028809;0.983887;-0.77;-1.12;1.19;210.0;-0.249552;-0.044872
3.78;6.0;7.0;1.25;2.5;0.0;0.25;0.0;0.25;1.25;1.0;0.25;0.25;0.25;0.5;0.25;0.25;-0.209961;0.010742;0.991211;-1.75;0.84;0.42;237.0;-0.241927;-0.036552;5.75;5.0;1.5;1.75;0.0;0.25;0.0;0.5;0.0;1.25;0.25;0.25;0.25;0.25;0.25;0.25;-0.241699;0.026855;0.984375;-0.98;-0.98;0.98;195.0;-0.26134;-0.05179
3.79;6.0;7.25;1.25;2.25;0.0;0.25;0.0;0.25;1.25;0.75;0.25;0.25;0.0;0.5;0.25;0.25;-0.208984;0.01709;0.98877;-1.47;0.42;0.49;231.0;-0.253347;-0.032433;5.5;5.0;1.5;1.75;0.0;0.25;0.0;0.5;0.0;1.0;0.25;0.0;0.25;0.25;0.25;0.0;-0.23584;0.029297;0.977539;-1.26;-0.91;0.77;185.0;-0.279193;-0.050129
3.8;6.25;7.25;1.25;2.25;0.0;0.25;0.0;0.25;1.0;1.25;0.25;0.25;0.25;0.25;0.0;0.25;-0.208008;0.018555;0.991211;-1.26;0.28;0.49;234.0;-0.261421;-0.038879;5.25;5.0;1.5;1.75;0.0;0.25;0.0;0.25;0.25;1.0;0.25;0.0;0.25;0.5;0.25;0.0;-0.23584;0.023926;0.979492;-1.4;-0.84;0.63;184.0;-0.264171;-0.035649
3.81;6.25;7.25;1.25;2.375;0.0;0.25;0.0;0.125;1.0;1.25;0.25;0.25;0.25;0.25;0.125;0.25;-0.206543;0.017578499999999997;0.989746;-1.155;0.245;0.45499999999999996;234.5;-0.259716;-0.037205;5.5;4.5;1.5;1.5;0.0;0.0;0.0;0.25;0.25;1.25;0.25;0.25;0.25;0.5;0.25;0.25;-0.240723;0.027344;0.977539;-1.54;-0.91;0.42;183.0;-0.243197;-0.027658
3.82;6.25;7.25;1.25;2.5;0.0;0.25;0.0;0.0;1.0;1.25;0.25;0.25;0.25;0.25;0.25;0.25;-0.205078;0.016602;0.988281;-1.05;0.21;0.42;235.0;-0.258011;-0.035531;5.25;4.5;1.5;1.5;0.0;0.0;0.0;0.25;0.0;0.75;0.5;0.25;0.25;0.25;0.25;0.0;-0.246094;0.028809;0.967773;-1.75;-0.91;0.35;170.0;-0.273564;-0.041154
3.83;6.25;7.25;1.25;2.5;0.0;0.25;0.0;0.25;1.0;1.25;0.25;0.25;0.25;0.25;0.25;0.25;-0.209473;0.012207;0.993164;-0.91;0.28;0.49;239.0;-0.253738;-0.041727;5.25;4.5;1.5;1.5;0.0;0.0;0.0;0.25;0.25;0.75;0.5;0.25;0.25;0.25;0.25;0.0;-0.245605;0.023926;0.978516;-2.03;-0.7;0.28;173.0;-0.262635;-0.034648
3.84;6.75;7.5;1.75;2.5;0.0;0.25;0.0;0.25;1.0;0.75;0.25;0.25;0.25;0.5;0.25;0.25;-0.206055;0.01709;0.991699;-0.56;0.56;0.49;250.0;-0.264089;-0.036747;5.5;4.5;1.5;1.5;0.0;0.0;0.0;0.25;0.25;1.0;0.5;0.25;0.25;0.25;0.0;0.0;-0.245117;0.026367;0.983398;-2.24;-0.63;0.35;176.0;-0.267682;-0.029982
3.85;6.75;7.5;1.5;2.5;0.0;0.5;0.0;0.25;1.0;1.0;0.25;0.25;0.25;0.5;0.25;0.0;-0.20459;0.013184;0.98877;-0.49;0.49;0.49;252.0;-0.260728;-0.0383;5.75;4.5;1.5;1.5;0.0;0.25;0.0;0.25;0.5;1.0;0.25;0.25;0.25;0.25;0.25;0.0;-0.249512;0.022461;0.980957;-2.03;-0.98;0.42;186.0;-0.254979;-0.025377
3.86;6.75;7.5;1.25;2.5;0.0;0.25;0.0;0.25;1.5;1.25;0.25;0.25;0.25;0.5;0.25;0.25;-0.20459;0.008301;0.994629;-0.56;0.7;0.56;257.0;-0.238416;-0.028855;5.75;5.0;1.5;1.5;0.0;0.25;0.0;0.25;0.5;1.0;0.25;0.25;0.0;0.25;0.25;0.0;-0.25;0.028809;0.971191;-1.82;-0.91;0.63;188.0;-0.264613;-0.02369
3.87;6.75;7.5;1.75;2.5;0.0;0.25;0.0;0.25;1.25;0.75;0.25;0.25;0.25;0.5;0.0;0.25;-0.209473;0.016602;0.991699;-0.42;0.56;0.56;251.0;-0.264344;-0.031796;5.75;5.0;1.5;1.75;0.0;0.25;0.0;0.25;0.25;1.25;0.25;0.25;0.0;0.25;0.0;0.0;-0.241211;0.020996;0.979492;-1.47;-0.91;0.91;188.0;-0.277526;-0.030363
3.88;6.75;7.5;1.75;2.5;0.0;0.25;0.0;0.25;1.0;0.75;0.25;0.25;0.0;0.75;0.25;0.25;-0.208008;0.012207;0.989746;-0.35;0.63;0.56;250.0;-0.261891;-0.030761;6.0;5.25;1.75;1.75;0.0;0.25;0.0;0.25;0.25;1.0;0.25;0.25;0.0;0.0;0.25;0.0;-0.244629;0.018066;0.973633;-0.98;-0.91;1.12;194.0;-0.286711;-0.032854
3.89;6.75;7.5;1.75;2.75;0.0;0.5;0.0;0.0;1.25;1.0;0.5;0.25;0.0;0.5;0.25;0.25;-0.207031;0.018555;0.986816;-0.56;0.7;0.49;259.0;-0.252932;-0.027543;6.5;5.25;1.5;1.75;0.0;0.25;0.0;0.25;0.25;0.75;0.25;0.25;0.25;0.25;0.25;0.0;-0.224609;0.036621;0.984863;-0.28;-1.12;1.33;198.0;-0.28432;-0.034702
3.9;6.25;7.5;1.5;2.5;0.0;0.5;0.0;0.0;1.5;1.0;0.25;0.0;0.25;0.5;0.25;0.0;-0.205078;0.016113;0.990234;-0.7;0.91;0.42;246.0;-0.252122;-0.023598;6.5;5.5;1.5;1.75;0.0;0.25;0.0;0.25;0.25;0.75;0.25;0.25;0.25;0.25;0.0;0.0;-0.23584;0.020996;0.976562;-0.07;-0.98;1.33;198.0;-0.296028;-0.035688
3.91;6.0;7.5;1.5;2.5;0.0;0.5;0.0;0.25;1.5;1.0;0.25;0.25;0.0;0.75;0.25;0.25;-0.20752;0.012695;0.995117;-0.91;0.98;0.21;252.0;-0.235383;-0.030046;6.25;5.5;1.75;1.75;0.0;0.25;0.0;0.25;0.25;0.75;0.25;0.25;0.25;0.0;0.25;0.0;-0.239258;0.028809;0.976074;0.07;-0.91;1.26;199.0;-0.292157;-0.038993
3.92;6.25;7.5;1.25;2.5;0.0;0.5;0.0;0.25;1.75;1.0;0.25;0.0;0.0;0.75;0.25;0.25;-0.210938;0.016113;0.993652;-1.12;0.98;0.14;252.0;-0.235008;-0.022578;6.5;5.75;1.5;2.25;0.0;0.25;0.0;0.25;0.25;0.75;0.25;0.0;0.25;0.0;0.0;0.0;-0.237793;0.018066;0.977539;-0.0;-0.98;1.05;201.0;-0.312702;-0.041699
3.93;6.25;7.375;1.375;2.375;0.0;0.5;0.0;0.25;1.75;1.0;0.25;0.125;0.125;0.75;0.25;0.25;-0.209473;0.014404;0.994873;-1.085;1.085;0.175;253.5;-0.2296065;-0.023581;6.25;5.5;1.75;2.25;0.0;0.25;0.0;0.25;0.25;0.75;0.25;0.0;0.25;0.0;0.0;0.0;-0.242676;0.023926;0.975098;-0.14;-1.19;1.05;199.0;-0.309369;-0.040255
3.94;6.25;7.25;1.5;2.25;0.0;0.5;0.0;0.25;1.75;1.0;0.25;0.25;0.25;0.75;0.25;0.25;-0.208008;0.012695;0.996094;-1.05;1.19;0.21;255.0;-0.224205;-0.024584;5.75;5.25;1.5;2.0;0.0;0.25;0.0;0.25;0.25;0.75;0.25;0.25;0.25;0.0;0.25;0.25;-0.242188;0.022949;0.976562;-0.21;-1.4;0.98;192.0;-0.282557;-0.048744
3.95;6.25;7.25;1.75;2.25;0.0;0.25;0.0;0.25;1.5;1.25;0.25;0.25;0.25;0.75;0.25;0.25;-0.210938;0.01416;0.991699;-1.12;1.33;0.14;254.0;-0.227108;-0.023529;5.75;5.25;1.5;2.0;0.0;0.25;0.0;0.25;0.0;0.5;0.25;0.25;0.25;0.0;0.25;0.25;-0.23877;0.026855;0.98584;-0.28;-1.75;0.84;185.0;-0.300962;-0.056699
3.96;6.25;7.25;1.75;2.25;0.0;0.25;0.0;0.25;1.0;1.0;0.25;0.25;0.25;1.0;0.25;0.25;-0.208008;0.009766;0.990234;-0.91;1.33;0.14;247.0;-0.240498;-0.031281;5.75;5.25;1.5;1.75;0.0;0.25;0.0;0.25;0.0;0.5;0.5;0.25;0.25;0.0;0.25;0.25;-0.245117;0.026367;0.982422;-0.35;-1.75;0.7;185.0;-0.293049;-0.054892
3.97;6.75;7.0;1.25;2.25;0.0;0.25;0.0;0.25;1.25;1.0;0.25;0.25;0.25;0.75;0.5;0.25;-0.208008;0.011719;0.991211;-0.7;1.26;0.35;248.0;-0.233258;-0.027812;5.75;5.0;1.5;1.75;0.0;0.25;0.0;0.25;0.25;0.75;0.25;0.25;0.25;0.25;0.25;0.25;-0.23584;0.023438;0.973145;-0.35;-1.54;0.77;189.0;-0.272136;-0.041593
3.98;6.625;7.0;1.25;2.375;0.0;0.25;0.0;0.25;1.25;0.875;0.125;0.25;0.25;0.75;0.375;0.25;-0.210205;0.0129395;0.9909669999999999;-0.63;1.225;0.385;243.5;-0.241985;-0.029546999999999997;5.75;5.0;1.75;1.75;0.0;0.25;0.0;0.25;0.25;1.0;0.25;0.25;0.25;0.25;0.0;0.25;-0.244629;0.021973;0.980469;-0.42;-1.54;0.7;192.0;-0.274594;-0.037341
3.99;6.5;7.0;1.25;2.5;0.0;0.25;0.0;0.25;1.25;0.75;0.0;0.25;0.25;0.75;0.25;0.25;-0.212402;0.01416;0.990723;-0.56;1.19;0.42;239.0;-0.250712;-0.031282;5.5;4.75;1.75;1.75;0.0;0.25;0.0;0.25;0.25;1.25;0.25;0.5;0.5;0.25;0.25;0.25;-0.242188;0.020508;0.977539;-0.35;-1.47;0.77;197.0;-0.241246;-0.04582
4.0;6.0;6.75;1.25;2.25;0.0;0.25;0.0;0.0;1.5;1.25;0.25;0.25;0.25;0.75;0.25;0.25;-0.211914;0.018066;0.987305;-0.28;1.05;0.56;236.0;-0.223746;-0.018493;5.25;5.0;1.75;2.0;0.0;0.25;0.0;0.25;0.25;0.75;0.25;0.25;0.5;0.25;0.25;0.25;-0.244629;0.02002;0.977539;-0.28;-1.4;0.84;191.0;-0.262964;-0.05199
4.01;6.0;6.5;1.25;2.25;0.0;0.25;0.0;0.25;1.5;1.25;0.25;0.25;0.25;0.75;0.25;0.25;-0.203613;0.018066;0.990234;-0.14;0.7;0.63;238.0;-0.218001;-0.023464;5.5;5.0;1.75;2.0;0.0;0.25;0.0;0.25;0.25;0.75;0.25;0.25;0.5;0.25;0.25;0.25;-0.238281;0.021973;0.977051;-0.21;-1.33;0.84;194.0;-0.265008;-0.049648
4.02;6.0;6.25;1.25;2.25;0.0;0.25;0.0;0.25;1.5;1.25;0.25;0.25;0.25;0.75;0.5;0.25;-0.206543;0.019043;0.994141;-0.0;0.56;0.56;238.0;-0.208368;-0.02266;5.75;4.75;1.75;2.0;0.0;0.25;0.0;0.25;0.25;0.75;0.0;0.25;0.25;0.0;0.25;0.25;-0.245117;0.020508;0.975586;-0.28;-1.33;0.91;187.0;-0.286439;-0.042304
4.03;6.0;6.5;1.25;2.25;0.0;0.25;0.0;0.25;1.5;1.25;0.25;0.25;0.25;0.5;0.25;0.25;-0.209961;0.013184;0.990234;-0.14;0.91;0.56;235.0;-0.224217;-0.025447;5.5;4.75;1.75;2.0;0.0;0.25;0.0;0.25;0.25;0.75;0.0;0.25;0.25;0.0;0.25;0.25;-0.237305;0.03125;0.97168;-0.28;-1.33;0.98;184.0;-0.284643;-0.044625
4.04;5.25;7.0;1.25;2.25;0.0;0.5;0.0;0.25;1.5;1.25;0.25;0.25;0.25;0.5;0.25;0.25;-0.208984;0.015137;0.996094;-0.14;0.84;0.56;235.0;-0.220965;-0.036447;5.5;5.0;1.75;2.25;0.0;0.5;0.0;0.25;0.25;0.5;0.0;0.25;0.5;0.25;0.25;0.25;-0.237793;0.019531;0.976562;-0.35;-1.47;1.05;195.0;-0.278232;-0.056446
4.05;5.375;6.625;1.25;2.25;0.0;0.375;0.0;0.25;1.5;1.375;0.25;0.25;0.25;0.5;0.125;0.25;-0.206787;0.0141605;0.994629;-0.28;0.98;0.525;231.0;-0.2203735;-0.0309225;5.5;4.75;1.75;2.25;0.25;0.5;0.0;0.5;0.25;0.5;0.25;0.25;0.25;0.25;0.25;0.25;-0.237305;0.022949;0.977539;0.07;-1.54;1.05;200.0;-0.266701;-0.056358
4.06;5.5;6.25;1.25;2.25;0.0;0.25;0.0;0.25;1.5;1.5;0.25;0.25;0.25;0.5;0.0;0.25;-0.20459;0.013184;0.993164;-0.42;1.12;0.49;227.0;-0.219782;-0.025398;5.75;5.0;1.75;2.25;0.0;0.5;0.0;0.5;0.0;0.5;0.25;0.5;0.25;0.25;0.25;0.25;-0.238281;0.024414;0.980469;0.14;-1.54;0.98;201.0;-0.275085;-0.066462
4.07;5.5;6.25;1.25;2.25;0.0;0.25;0.0;0.25;1.5;1.25;0.25;0.25;0.25;0.5;0.25;0.25;-0.208496;0.01416;0.984863;-0.42;1.19;0.42;227.0;-0.217625;-0.027231;5.0;5.25;1.5;2.0;0.0;0.25;0.0;0.5;0.25;0.75;0.5;0.25;0.5;0.25;0.25;0.25;-0.23584;0.021484;0.977539;0.07;-1.47;1.05;195.0;-0.250361;-0.066192
4.08;5.5;6.25;1.25;2.0;0.0;0.25;0.0;0.0;1.0;1.25;0.25;0.25;0.25;0.75;0.25;0.25;-0.212402;0.018555;0.990234;-0.56;1.26;0.35;215.0;-0.229573;-0.025238;5.5;4.75;1.5;2.0;0.0;0.25;0.0;0.5;0.25;0.75;0.5;0.25;0.5;0.25;0.5;0.25;-0.23877;0.021484;0.978516;0.07;-1.4;0.98;199.0;-0.241003;-0.058899
4.09;5.0;5.75;1.25;2.25;0.0;0.25;0.0;0.25;1.5;1.25;0.25;0.25;0.25;0.75;0.25;0.25;-0.20752;0.019531;0.996582;-0.84;1.4;0.42;219.0;-0.201562;-0.025377;5.25;4.5;1.75;2.25;0.0;0.5;0.0;0.5;0.25;0.75;0.25;0.25;0.5;0.25;0.5;0.25;-0.240234;0.024414;0.981934;-0.28;-1.4;0.91;199.0;-0.242926;-0.062528
4.1;5.0;5.75;1.25;2.25;0.0;0.25;0.0;0.25;1.5;1.125;0.25;0.25;0.25;0.75;0.25;0.375;-0.20581100000000002;0.015869;0.9958495;-0.84;1.33;0.385;218.5;-0.202536;-0.0269415;4.75;4.75;1.75;2.25;0.0;0.5;0.0;0.5;0.25;0.75;0.25;0.25;0.5;0.25;0.5;0.25;-0.241211;0.022949;0.973633;-0.35;-1.26;0.91;196.0;-0.240533;-0.068798
4.11;5.0;5.75;1.25;2.25;0.0;0.25;0.0;0.25;1.5;1.0;0.25;0.25;0.25;0.75;0.25;0.5;-0.204102;0.012207;0.995117;-0.84;1.26;0.35;218.0;-0.20351;-0.028506;5.25;5.0;1.5;2.25;0.0;0.5;0.0;0.5;0.0;0.5;0.25;0.0;0.5;0.25;0.25;0.25;-0.245605;0.024414;0.976562;-0.56;-1.19;0.77;189.0;-0.280625;-0.072152
