Time;left pressure 1[N/cm²];left pressure 2[N/cm²];left pressure 3[N/cm²];left pressure 4[N/cm²];left pressure 5[N/cm²];left pressure 6[N/cm²];left pressure 7[N/cm²];left pressure 8[N/cm²];left pressure 9[N/cm²];left pressure 10[N/cm²];left pressure 11[N/cm²];left pressure 12[N/cm²];left pressure 13[N/cm²];left pressure 14[N/cm²];left pressure 15[N/cm²];left pressure 16[N/cm²];left acceleration X[g];left acceleration Y[g];left acceleration Z[g];left angular X[dps];left angular Y[dps];left angular Z[dps];left total force[N];left center of pressure X[-0.5...+0.5];left center of pressure Y[-0.5...+0.5];right pressure 1[N/cm²];right pressure 2[N/cm²];right pressure 3[N/cm²];right pressure 4[N/cm²];right pressure 5[N/cm²];right pressure 6[N/cm²];right pressure 7[N/cm²];right pressure 8[N/cm²];right pressure 9[N/cm²];right pressure 10[N/cm²];right pressure 11[N/cm²];right pressure 12[N/cm²];right pressure 13[N/cm²];right pressure 14[N/cm²];right pressure 15[N/cm²];right pressure 16[N/cm²];right acceleration X[g];right acceleration Y[g];right acceleration Z[g];right angular X[dps];right angular Y[dps];right angular Z[dps];right total force[N];right center of pressure X[-0.5...+0.5];right center of pressure Y[-0.5...+0.5]
0.0;0.25;0.25;0.25;0.5;0.5;1.25;0.25;1.25;3.0;2.0;1.25;1.25;1.5;9.5;1.25;1.25;-0.19873;0.03418;1.009277;1.82;15.190001;-0.14;279.0;0.223795;0.003331;0.25;0.5;0.25;1.0;0.5;1.25;0.0;1.25;0.25;0.0;0.25;0.5;1.0;9.25;1.75;0.75;-0.215332;0.023438;0.991699;2.94;-0.91;0.7;197.0;0.197543;-0.040601
0.01;0.25;0.25;0.25;0.5;0.5;1.25;0.25;1.25;3.0;2.0;1.25;1.25;1.5;9.5;1.25;1.25;-0.19873;0.03418;1.009277;1.82;15.190001;-0.14;279.0;0.223795;0.003331;0.25;0.75;0.25;0.25;0.25;1.0;0.0;1.25;0.5;0.0;0.25;0.25;0.75;10.25;1.5;0.75;-0.218262;0.03418;0.987305;2.8;-0.49;1.26;189.0;0.231798;-0.004988
0.02;0.25;0.25;0.25;0.5;0.5;1.25;0.25;1.25;3.0;2.0;1.25;1.25;1.5;9.5;1.25;1.25;-0.19873;0.03418;1.009277;1.82;15.190001;-0.14;279.0;0.223795;0.003331;0.25;0.75;0.25;0.0;0.25;1.0;0.0;1.25;0.5;0.0;0.25;0.25;0.75;11.25;1.5;0.75;-0.21875;0.04541;0.987793;2.38;-0.14;1.33;195.0;0.248401;0.007086
0.03;0.25;0.25;0.25;0.5;0.5;1.25;0.25;1.25;3.0;2.0;1.25;1.25;1.5;9.5;1.25;1.25;-0.19873;0.03418;1.009277;1.82;15.190001;-0.14;279.0;0.223795;0.003331;0.25;0.5;0.25;0.25;0.25;1.25;0.0;1.5;0.5;0.25;0.25;0.5;1.25;12.5;1.75;1.0;-0.208008;0.037109;0.98877;1.96;-0.07;1.12;229.0;0.247584;-0.012211
0.04;0.25;0.25;0.25;0.5;0.5;1.25;0.25;1.25;3.0;2.0;1.25;1.25;1.5;9.5;1.25;1.25;-0.19873;0.03418;1.009277;1.82;15.190001;-0.14;279.0;0.223795;0.003331;0.25;0.5;0.0;0.25;0.25;1.25;0.0;1.75;0.5;0.0;0.25;0.25;1.25;12.75;2.0;1.0;-0.213867;0.035645;0.983887;1.4;-0.14;0.77;230.0;0.253961;-0.016775
0.05;0.25;0.25;0.25;0.5;0.5;1.25;0.25;1.25;3.0;2.0;1.25;1.25;1.5;9.5;1.25;1.25;-0.19873;0.03418;1.009277;1.82;15.190001;-0.14;279.0;0.223795;0.003331;0.25;0.25;0.25;0.25;0.25;1.5;0.0;1.75;0.75;0.0;0.25;0.0;1.5;13.5;2.25;1.0;-0.215332;0.038086;0.987793;0.77;-0.28;0.7;246.0;0.255554;-0.009041
0.06;0.25;0.25;0.25;0.5;0.5;1.25;0.25;1.25;3.0;2.0;1.25;1.25;1.5;9.5;1.25;1.25;-0.19873;0.03418;1.009277;1.82;15.190001;-0.14;279.0;0.223795;0.003331;0.25;0.25;0.25;0.25;0.25;1.5;0.0;1.75;0.75;0.0;0.25;0.25;1.5;14.25;2.25;1.0;-0.212891;0.036133;0.984375;0.07;-0.56;0.42;256.0;0.25929;-0.007189
0.07;0.25;0.25;0.25;0.5;0.5;1.25;0.25;1.25;3.0;2.0;1.25;1.25;1.5;9.5;1.25;1.25;-0.19873;0.03418;1.009277;1.82;15.190001;-0.14;279.0;0.223795;0.003331;0.25;0.25;0.25;0.25;0.25;1.5;0.0;2.0;0.75;0.0;0.25;0.25;1.5;14.75;2.25;1.0;-0.214844;0.034668;0.98584;-0.63;-1.33;0.14;265.0;0.257717;-0.009995
0.08;0.25;0.25;0.25;0.5;0.5;1.25;0.25;1.25;3.0;2.0;1.25;1.25;1.5;9.5;1.25;1.25;-0.19873;0.03418;1.009277;1.82;15.190001;-0.14;279.0;0.223795;0.003331;0.0;0.25;0.25;0.25;0.25;1.5;0.0;2.0;0.75;0.0;0.0;0.5;1.5;14.75;2.5;1.25;-0.213867;0.035645;0.983887;-1.12;-2.1;0.14;266.0;0.266707;-0.01568
0.09;0.25;0.25;0.25;0.5;0.5;1.25;0.25;1.25;3.0;2.0;1.25;1.25;1.5;9.5;1.25;1.25;-0.19873;0.03418;1.009277;1.82;15.190001;-0.14;279.0;0.223795;0.003331;0.0;0.25;0.25;0.25;0.5;1.5;0.0;2.0;0.75;0.0;0.0;0.25;1.5;14.75;2.5;1.25;-0.214355;0.032715;0.981445;-1.54;-2.24;0.49;266.0;0.262942;-0.011781
0.1;0.25;0.25;0.25;0.5;0.5;1.25;0.25;1.25;3.0;2.0;1.25;1.25;1.5;9.5;1.25;1.25;-0.19873;0.03418;1.009277;1.82;15.190001;-0.14;279.0;0.223795;0.003331;0.25;0.5;0.25;0.25;0.25;1.5;0.0;2.0;0.75;0.0;0.25;0.25;1.5;15.0;2.5;1.0;-0.208984;0.032715;0.990234;-1.61;-2.59;0.49;272.0;0.254383;-0.010599
0.11;0.25;0.25;0.25;0.5;0.5;1.25;0.25;1.25;3.0;2.0;1.25;1.25;1.5;9.5;1.25;1.25;-0.19873;0.03418;1.009277;1.82;15.190001;-0.14;279.0;0.223795;0.003331;0.25;0.25;0.25;0.5;0.25;1.75;0.0;2.0;1.0;0.0;0.25;0.25;1.5;15.25;2.5;1.0;-0.213379;0.036621;0.990234;-1.54;-2.38;0.49;282.0;0.251656;-0.009089
0.12;0.25;0.25;0.25;0.5;0.5;1.25;0.25;1.25;3.0;2.0;1.25;1.25;1.5;9.5;1.25;1.25;-0.19873;0.03418;1.009277;1.82;15.190001;-0.14;279.0;0.223795;0.003331;0.0;0.25;0.25;0.25;0.25;1.75;0.0;2.0;0.75;0.25;0.25;0.5;1.5;15.0;2.5;1.0;-0.208008;0.03418;0.984863;-1.54;-2.38;0.42;276.0;0.262233;-0.015446
0.13;0.25;0.25;0.5;0.5;0.5;0.75;0.0;1.0;2.75;2.0;1.25;1.25;1.0;10.25;1.0;1.25;-0.192871;0.029297;1.001465;1.96;17.780001;-0.14;263.0;0.236121;0.023254;0.25;0.0;0.25;0.25;0.25;1.75;0.0;2.5;1.0;0.25;0.0;0.5;1.5;15.5;2.5;1.0;-0.211426;0.038574;0.986328;-1.61;-2.52;0.63;290.0;0.256455;-0.016073
0.14;0.0;0.0;0.25;0.25;0.25;0.5;0.0;0.75;2.75;2.0;1.25;1.0;1.0;10.25;1.0;1.25;-0.200195;0.029785;1.003418;1.12;20.370001;0.14;239.0;0.277618;0.040808;0.25;0.0;0.25;0.5;0.5;2.0;0.0;2.5;1.25;0.25;0.25;0.25;2.0;15.75;2.5;1.25;-0.206055;0.030762;0.982422;-1.54;-2.8;0.63;311.0;0.244138;-0.021502
0.15;0.0;0.0;0.0;0.0;0.25;0.25;0.0;0.25;2.75;2.0;1.25;0.75;1.0;10.5;1.0;1.25;-0.204102;0.03125;0.991699;0.21;23.379999;0.28;221.0;0.311852;0.07011;0.25;0.25;0.25;0.5;0.75;2.0;0.0;2.25;1.25;0.25;0.25;0.25;2.0;15.75;2.5;1.5;-0.210449;0.030273;0.987305;-1.54;-2.73;0.7;314.0;0.239243;-0.018336
0.16;0.0;0.0;0.0;0.0;0.25;0.25;0.0;0.0;3.0;2.25;1.25;0.75;0.75;11.0;1.0;1.25;-0.199219;0.03418;1.03418;-0.56;26.67;0.63;225.0;0.319623;0.089571;0.25;0.25;0.0;0.5;0.75;2.25;0.0;2.75;1.0;0.25;0.25;0.5;2.0;15.5;2.75;1.5;-0.208496;0.035645;0.987793;-1.61;-2.45;0.77;322.0;0.233672;-0.039097
0.17;0.0;0.0;0.0;0.0;0.25;0.0;0.0;0.0;3.0;2.25;1.25;0.75;0.75;11.25;1.5;1.25;-0.214355;0.028809;1.015625;2.24;35.91;0.63;231.0;0.32885;0.090869;0.25;0.0;0.0;0.5;0.75;2.25;0.0;2.75;1.5;0.25;0.25;0.5;2.0;16.0;2.75;1.5;-0.20752;0.035645;0.986328;-1.61;-2.24;0.63;331.0;0.241626;-0.028316
0.18;0.0;0.0;0.0;0.0;0.0;0.0;0.0;0.0;3.0;2.0;1.25;0.75;0.75;11.75;1.0;1.25;-0.231934;0.041016;1.018066;3.36;43.540001;0.42;224.0;0.335784;0.097846;0.25;0.0;0.25;0.5;0.75;2.25;0.0;2.75;1.75;0.25;0.5;0.5;1.75;16.25;2.75;1.5;-0.208984;0.033691;0.992676;-1.68;-1.96;0.63;340.0;0.238769;-0.020417
0.19;0.0;0.0;0.0;0.0;0.0;0.0;0.0;0.0;3.25;1.75;1.25;0.75;0.25;12.25;1.0;1.25;-0.232422;0.027832;1.017578;3.5;50.259998;-0.07;224.0;0.340804;0.114491;0.0;0.25;0.25;0.5;1.0;2.25;0.0;2.75;1.75;0.25;0.25;0.75;2.0;16.25;2.75;1.75;-0.211914;0.035645;0.990234;-1.68;-1.54;0.63;347.0;0.235982;-0.027568
0.2;0.0;0.0;0.0;0.0;0.25;0.0;0.0;0.0;3.0;1.75;1.25;0.75;0.25;12.5;1.25;1.5;-0.242188;0.035645;1.041992;2.59;58.099998;0.07;230.0;0.33773;0.106756;0.25;0.25;0.25;0.75;1.0;2.5;0.0;2.75;1.75;0.25;0.5;0.75;2.0;16.5;2.75;1.75;-0.214355;0.029785;0.992676;-1.54;-1.26;0.63;361.0;0.224488;-0.029538
0.21;0.0;0.0;0.25;0.0;0.0;0.0;0.0;0.0;2.5;1.75;0.75;0.25;0.25;13.0;1.25;1.25;-0.244629;0.035645;1.036133;-0.42;61.950001;-0.28;215.0;0.346317;0.122738;0.25;0.25;0.25;0.5;1.0;2.5;0.0;3.0;1.75;0.25;0.5;0.75;2.0;16.5;3.0;1.75;-0.214355;0.036133;0.993164;-1.4;-1.12;0.77;365.0;0.227433;-0.032479
0.22;0.0;0.0;0.0;0.0;0.0;0.0;0.0;0.0;2.25;1.5;0.75;0.25;0.25;13.25;1.5;1.25;-0.254883;0.046387;1.059082;-3.01;64.400002;-0.63;211.0;0.359712;0.119263;0.25;0.25;0.25;0.5;1.0;2.5;0.0;3.0;1.75;0.25;0.5;0.75;2.0;16.5;2.75;1.75;-0.205078;0.032715;0.984863;-1.4;-1.26;0.84;362.0;0.226005;-0.032086
0.23;0.0;0.0;0.0;0.0;0.0;0.0;0.0;0.0;2.25;1.0;0.25;0.5;0.25;13.25;1.5;1.0;-0.269043;0.026367;1.029785;-6.58;65.940002;-1.19;201.0;0.364699;0.124762;0.25;0.5;0.25;0.5;1.0;2.5;0.0;3.0;1.75;0.25;0.5;1.0;2.0;16.75;2.75;1.75;-0.215332;0.043457;0.984863;-1.33;-1.61;0.84;370.0;0.222652;-0.033737
0.24;0.0;0.0;0.0;0.0;0.0;0.0;0.0;0.0;2.0;1.0;0.5;0.25;0.0;13.25;1.5;0.75;-0.280273;0.034668;1.036621;-7.7;66.709999;-1.33;193.0;0.369436;0.135226;0.25;0.5;0.25;0.5;1.25;2.5;0.0;3.0;2.0;0.25;0.75;0.75;2.0;16.5;2.75;1.75;-0.212402;0.032227;0.98877;-1.26;-1.82;0.84;374.0;0.21915;-0.029951
0.25;0.0;0.0;0.0;0.0;0.0;0.0;0.0;0.0;1.5;1.0;0.75;0.25;0.0;13.0;1.5;0.75;-0.289551;0.029785;1.024414;-9.03;66.989998;-1.54;187.0;0.371036;0.125514;0.25;0.5;0.5;0.5;1.5;3.0;0.0;3.0;2.0;0.25;0.75;0.75;2.25;16.75;3.5;2.0;-0.208008;0.034668;0.98291;-1.19;-2.45;0.77;401.0;0.212773;-0.035467
0.26;0.0;0.0;0.0;0.0;0.0;0.0;0.0;0.0;1.25;0.75;0.25;0.25;0.25;13.25;1.25;0.75;-0.31543;0.034668;1.035645;-10.08;68.599998;-1.4;176.0;0.377442;0.127545;0.5;0.75;0.5;0.5;1.75;2.75;0.0;3.25;2.0;0.25;0.75;1.25;2.0;16.75;3.25;2.0;-0.211426;0.039062;0.98584;-1.12;-2.24;0.7;411.0;0.201375;-0.037342
0.27;0.0;0.0;0.0;0.0;0.0;0.0;0.0;0.0;1.0;0.75;0.25;0.0;0.25;13.0;1.5;0.75;-0.331055;0.013672;1.043945;-10.85;70.489998;-1.61;170.0;0.382912;0.127425;0.5;0.5;0.5;0.5;1.5;2.75;0.0;3.25;2.25;0.5;0.5;1.0;2.25;17.0;3.25;2.0;-0.205078;0.034668;0.995605;-1.19;-1.82;0.49;411.0;0.209103;-0.032716
0.28;0.0;0.0;0.0;0.0;0.0;0.0;0.0;0.0;0.75;0.25;0.25;0.25;0.0;12.75;1.25;0.5;-0.341797;-0.047363;1.041992;-12.11;71.540001;-1.12;155.0;0.39032;0.13477;0.25;0.5;0.25;0.5;1.5;3.0;0.0;3.25;2.25;0.5;0.5;1.0;2.5;17.0;3.25;2.0;-0.205566;0.03418;0.993164;-1.33;-1.47;0.35;410.0;0.214009;-0.038802
0.29;0.0;0.0;0.0;0.0;0.0;0.0;0.0;0.0;0.75;0.25;0.0;0.25;0.0;12.5;1.25;0.5;-0.348633;0.006348;1.067383;-13.16;72.309998;-0.07;150.0;0.393103;0.138889;0.25;0.25;0.25;0.5;1.75;3.0;0.0;3.5;2.25;0.75;0.75;1.0;2.5;17.0;3.5;1.75;-0.20752;0.03418;0.98877;-1.33;-1.4;0.35;422.0;0.214199;-0.039973
0.3;0.0;0.0;0.0;0.0;0.0;0.0;0.0;0.0;0.25;0.5;0.25;0.25;0.0;12.0;1.25;0.5;-0.367188;0.017578;1.050293;-13.51;72.800003;0.49;144.0;0.392929;0.124332;0.5;0.5;0.25;0.5;1.75;3.0;0.0;3.25;2.25;0.75;0.5;1.0;2.25;17.25;3.25;2.0;-0.205566;0.027344;0.989258;-1.26;-1.47;0.49;419.0;0.208944;-0.032814
0.31;0.0;0.0;0.0;0.0;0.0;0.0;0.0;0.0;0.25;0.25;0.0;0.25;0.0;11.75;1.25;0.5;-0.371582;0.010742;1.01123;-11.97;73.010002;1.12;136.0;0.399293;0.129747;0.25;0.5;0.25;0.75;2.0;3.25;0.0;3.5;2.0;0.75;0.5;1.25;2.5;17.0;3.25;2.25;-0.209961;0.030762;0.990234;-0.91;-1.82;0.49;430.0;0.201334;-0.048333
0.32;0.0;0.0;0.0;0.0;0.0;0.0;0.0;0.0;0.25;0.25;0.0;0.0;0.0;11.25;1.25;0.25;-0.376465;0.011719;0.996582;-9.8;71.82;2.1;127.0;0.403655;0.142878;0.25;0.75;0.25;0.75;2.0;3.5;0.0;3.75;2.25;0.75;0.5;1.25;2.5;17.25;3.5;2.25;-0.208984;0.033203;0.993652;-0.77;-2.17;0.56;448.0;0.196387;-0.050146
0.33;0.0;0.0;0.0;0.0;0.0;0.0;0.0;0.0;0.25;0.25;0.25;0.0;0.0;10.75;1.0;0.0;-0.382324;-0.008301;0.969238;-9.31;68.879997;3.08;120.0;0.39952;0.146358;0.25;0.75;0.5;1.0;2.0;3.5;0.0;3.75;2.25;1.0;0.75;1.25;2.5;17.25;3.5;2.25;-0.203613;0.033691;0.989258;-0.49;-2.24;0.56;460.0;0.19063;-0.050065
0.34;0.0;0.0;0.0;0.0;0.0;0.0;0.0;0.0;0.0;0.25;0.25;0.0;0.0;10.0;1.0;0.25;-0.381836;-0.021973;0.928223;-7.42;67.059998;4.41;111.0;0.402726;0.13416;0.25;0.5;0.5;0.5;2.0;3.5;0.0;3.75;2.25;1.0;0.75;1.25;2.5;17.0;3.25;2.25;-0.215332;0.037598;0.987793;-0.56;-2.24;0.56;446.0;0.197927;-0.04804
0.35;0.0;0.0;0.0;0.0;0.0;0.0;0.0;0.0;0.0;0.25;0.0;0.0;0.0;9.25;1.0;0.25;-0.384277;-0.044922;0.957031;-5.74;62.860001;6.65;102.0;0.406982;0.138203;0.25;0.75;0.5;0.5;2.0;3.5;0.0;4.0;2.25;1.0;0.25;1.25;2.5;17.0;3.25;2.25;-0.209473;0.030273;0.991211;-0.49;-2.45;0.56;447.0;0.192152;-0.051036
0.36;0.0;0.0;0.0;0.0;0.0;0.0;0.0;0.0;0.25;0.25;0.0;0.0;0.0;8.5;1.0;0.25;-0.39209;-0.054199;0.986816;-4.2;56.279999;9.73;98.0;0.401052;0.140346;0.25;1.0;0.5;1.0;2.25;3.5;0.0;4.0;2.25;1.0;0.25;1.25;2.5;16.75;3.25;2.25;-0.204102;0.035156;0.992676;-0.56;-3.01;0.49;457.0;0.179287;-0.054378
0.37;0.0;0.0;0.0;0.0;0.0;0.0;0.0;0.0;0.25;0.25;0.0;0.0;0.0;7.75;0.75;0.25;-0.39209;-0.052246;1.001465;-2.31;48.299999;13.51;88.0;0.399872;0.144602;0.5;1.25;0.5;1.0;2.5;3.75;0.0;4.25;2.25;1.0;1.0;1.25;2.5;16.75;3.0;2.25;-0.207031;0.036621;0.986816;-0.56;-3.08;0.56;478.0;0.166521;-0.058513
0.38;0.0;0.0;0.0;0.0;0.0;0.0;0.0;0.0;0.25;0.25;0.0;0.0;0.0;6.25;0.75;0.0;-0.324707;-0.116211;1.020508;-5.46;36.330002;18.27;73.0;0.398168;0.147563;0.25;1.0;0.75;1.0;2.75;4.25;0.0;4.25;2.25;0.5;1.0;1.25;2.75;16.75;3.5;2.25;-0.206055;0.032715;0.992188;-0.42;-3.08;0.49;487.0;0.166442;-0.06354
0.39;0.0;0.0;0.0;0.0;0.0;0.0;0.0;0.0;0.0;0.25;0.0;0.0;0.0;4.0;0.75;0.0;-0.265137;-0.17627;0.905273;-25.620001;17.08;29.540001;49.0;0.0;0.0;0.25;1.0;0.75;0.75;2.75;4.25;0.0;4.25;2.25;0.5;1.0;1.5;2.75;17.0;3.5;2.0;-0.206543;0.029785;0.990723;-0.21;-3.08;0.77;488.0;0.170061;-0.062012
0.4;0.0;0.0;0.0;0.0;0.0;0.0;0.0;0.0;0.0;0.0;0.0;0.0;0.0;1.5;0.5;0.25;-0.094238;-0.07959;0.950195;-41.860001;0.35;38.290001;21.0;0.0;0.0;0.25;1.0;1.0;1.0;2.75;4.5;0.0;4.25;2.25;1.0;1.0;1.5;3.0;17.0;3.5;2.5;-0.209473;0.029785;0.990723;0.07;-2.87;0.91;508.0;0.164746;-0.065212
0.41;0.0;0.0;0.0;0.0;0.0;0.0;0.0;0.0;0.0;0.0;0.0;0.0;0.0;1.75;0.25;0.0;0.128906;0.063965;0.856934;-46.759998;-17.360001;45.990002;19.0;0.0;0.0;0.5;1.0;1.25;1.25;2.75;4.75;0.0;4.25;2.25;1.25;1.0;1.5;3.0;16.75;3.5;2.25;-0.210449;0.032715;0.996582;0.49;-2.66;1.05;519.0;0.153432;-0.065139
0.42;0.0;0.0;0.0;0.0;0.0;0.0;0.0;0.0;0.0;0.0;0.0;0.0;0.0;1.5;0.25;0.0;0.216309;0.109375;0.782227;-38.920002;-36.610001;51.59;17.0;0.0;0.0;0.25;1.25;1.25;1.25;3.0;5.0;0.25;4.5;2.25;1.0;1.0;1.5;3.0;16.5;3.5;2.5;-0.203613;0.029297;0.992676;0.63;-2.73;0.98;529.0;0.14749;-0.069633
0.43;0.0;0.0;0.0;0.0;0.0;0.0;0.0;0.0;0.0;0.0;0.0;0.0;0.0;1.0;0.25;0.0;0.279785;0.067871;0.73584;-25.41;-52.360001;55.09;12.0;0.0;0.0;0.25;1.5;1.25;1.25;3.25;5.0;0.25;4.75;2.25;0.75;1.0;1.25;3.5;16.25;3.25;2.5;-0.205078;0.035645;0.991699;0.63;-2.8;0.91;532.0;0.138849;-0.07584
0.44;0.0;0.0;0.0;0.0;0.0;0.0;0.0;0.0;0.0;0.0;0.0;0.0;0.0;1.0;0.25;0.0;0.304688;-0.012695;0.775391;-15.12;-63.0;54.740002;12.0;0.0;0.0;0.25;1.5;1.25;1.5;3.25;5.25;0.25;4.75;2.0;1.0;1.0;1.5;3.75;16.25;3.25;2.25;-0.205566;0.038574;0.986816;0.49;-3.08;0.84;541.0;0.134542;-0.081527
0.45;0.0;0.0;0.0;0.0;0.0;0.0;0.0;0.0;0.0;0.0;0.0;0.0;0.0;0.25;0.25;0.0;0.309082;-0.18457;0.913574;-14.49;-84.419998;44.66;5.0;0.0;0.0;0.25;1.25;1.25;1.5;3.75;5.25;0.25;5.0;2.25;1.0;1.0;2.25;3.75;16.25;3.25;2.0;-0.203613;0.03418;0.990234;0.56;-3.08;1.05;560.0;0.134454;-0.08234
0.46;0.0;0.0;0.0;0.0;0.0;0.0;0.0;0.0;0.0;0.0;0.0;0.0;0.0;0.25;0.25;0.0;0.182617;-0.218262;0.882812;-23.379999;-96.809998;32.549999;5.0;0.0;0.0;0.25;1.5;1.25;1.5;3.75;5.75;0.25;5.25;2.25;1.25;0.75;2.0;3.75;15.75;3.25;2.25;-0.20752;0.037109;0.992188;0.42;-3.08;0.91;566.0;0.125916;-0.087738
0.47;0.0;0.0;0.0;0.0;0.0;0.0;0.0;0.0;0.0;0.0;0.0;0.0;0.0;0.25;0.25;0.0;0.161621;-0.087402;0.99707;-20.51;-106.540001;24.15;5.0;0.0;0.0;0.25;1.5;1.25;1.5;3.75;5.75;0.0;5.25;2.0;0.75;0.75;2.0;3.75;15.75;3.25;2.25;-0.202148;0.041504;0.993164;0.28;-3.01;0.91;553.0;0.124233;-0.094099
0.48;0.0;0.0;0.0;0.0;0.0;0.0;0.0;0.0;0.0;0.0;0.0;0.0;0.0;0.25;0.25;0.0;0.036133;-0.012695;0.84668;-19.460001;-110.949997;15.75;5.0;0.0;0.0;0.25;1.25;1.25;1.75;3.75;6.25;0.0;5.25;1.75;0.5;1.0;2.0;3.75;15.75;3.25;2.25;-0.206543;0.03418;0.994629;0.35;-2.94;0.77;556.0;0.120583;-0.099683
0.49;0.0;0.0;0.0;0.0;0.0;0.0;0.0;0.0;0.0;0.0;0.0;0.0;0.0;0.25;0.25;0.0;-0.10498;0.106934;0.925293;-15.54;-109.690002;13.86;5.0;0.0;0.0;0.5;1.25;1.25;1.75;4.0;6.5;0.0;5.5;1.75;1.0;1.0;2.0;4.0;15.5;3.0;2.25;-0.203125;0.037109;0.986328;0.14;-3.01;0.91;572.0;0.113082;-0.101914
0.5;0.0;0.0;0.0;0.0;0.0;0.0;0.0;0.0;0.0;0.0;0.0;0.0;0.0;0.25;0.0;0.0;-0.221191;0.177246;0.972168;-11.62;-106.050003;17.710001;2.0;0.0;0.0;0.25;1.25;1.25;2.0;4.25;6.75;0.25;5.5;2.0;1.0;0.5;2.0;4.0;15.5;3.0;2.25;-0.201172;0.038086;0.992188;0.14;-2.87;0.84;580.0;0.110472;-0.098704
0.51;0.0;0.0;0.0;0.0;0.0;0.0;0.0;0.0;0.0;0.0;0.0;0.0;0.0;0.25;0.0;0.0;-0.325684;0.208008;1.056641;-9.03;-102.550003;24.5;2.0;0.0;0.0;0.0;1.75;1.5;2.25;4.0;6.5;0.25;5.5;2.0;1.0;0.75;2.0;3.75;15.5;3.25;2.25;-0.20459;0.035156;0.996094;-0.0;-2.94;0.84;585.0;0.108743;-0.098433
0.52;0.0;0.0;0.0;0.0;0.0;0.0;0.0;0.0;0.0;0.0;0.0;0.0;0.0;0.0;0.0;0.0;-0.459473;0.226074;1.085449;-7.28;-97.510002;35.0;0.0;0.0;0.0;0.0;1.75;1.5;2.0;4.5;7.0;0.25;5.5;2.0;1.0;1.0;2.0;3.75;15.5;3.25;2.0;-0.208008;0.039062;0.996582;-0.0;-2.52;0.91;596.0;0.105714;-0.097479
0.53;0.0;0.0;0.0;0.0;0.0;0.0;0.0;0.0;0.0;0.0;0.0;0.0;0.0;0.0;0.0;0.0;-0.501465;0.225098;1.106934;-7.28;-93.449997;43.189999;0.0;0.0;0.0;0.25;1.75;1.5;2.25;4.5;7.0;0.25;5.5;2.0;1.0;0.25;2.0;3.75;15.25;2.75;2.25;-0.200195;0.040527;0.991699;-0.0;-2.17;0.91;586.0;0.09596;-0.098649
0.54;0.0;0.0;0.0;0.0;0.0;0.0;0.0;0.0;0.0;0.0;0.0;0.0;0.0;0.0;0.0;0.0;-0.496582;0.213379;1.10791;-9.03;-90.720001;52.639999;0.0;0.0;0.0;0.25;1.75;1.5;2.0;4.5;7.25;0.25;5.5;2.0;1.0;0.5;2.0;3.75;15.25;2.75;1.75;-0.202148;0.037109;0.993652;-0.0;-2.03;0.91;586.0;0.095963;-0.097887
0.55;0.0;0.0;0.0;0.0;0.0;0.0;0.0;0.0;0.0;0.0;0.0;0.0;0.0;0.25;0.0;0.0;-0.493164;0.190918;1.078613;-9.38;-87.919998;60.830002;2.0;0.0;0.0;0.25;1.75;1.5;2.25;4.5;7.25;0.0;5.5;2.0;1.0;0.5;2.0;3.75;15.25;2.75;2.0;-0.202148;0.038086;0.993164;-0.14;-1.82;0.84;587.0;0.094778;-0.10147
0.56;0.0;0.0;0.0;0.0;0.0;0.0;0.0;0.0;0.0;0.0;0.0;0.0;0.0;0.0;0.0;0.0;-0.489258;0.133789;1.032227;-7.56;-83.860001;66.360001;0.0;0.0;0.0;0.25;1.75;1.5;2.25;4.0;7.0;0.0;5.5;2.0;0.5;0.25;2.0;3.75;15.0;2.75;1.75;-0.203125;0.038086;0.996582;-0.14;-1.75;0.77;565.0;0.094283;-0.104477
0.57;0.0;0.0;0.0;0.0;0.0;0.0;0.0;0.0;0.0;0.0;0.0;0.0;0.0;0.0;0.0;0.0;-0.46582;0.055176;0.952637;-5.95;-74.690002;69.580002;0.0;0.0;0.0;0.25;1.75;1.75;2.25;4.25;7.0;0.0;5.5;2.0;0.75;0.25;1.75;4.0;15.0;2.75;1.75;-0.203613;0.034668;0.997559;-0.07;-1.61;0.84;574.0;0.091687;-0.102252
0.58;0.0;0.0;0.0;0.0;0.0;0.0;0.0;0.0;0.0;0.0;0.0;0.0;0.0;0.0;0.0;0.0;-0.463867;0.024414;0.824219;-6.86;-70.139999;69.93;0.0;0.0;0.0;0.25;2.0;1.75;2.25;4.5;7.0;0.25;5.75;2.0;0.75;0.75;2.25;4.0;14.75;2.75;1.75;-0.202637;0.037109;0.98877;-0.07;-1.54;0.84;597.0;0.088803;-0.104426
0.59;0.0;0.0;0.0;0.0;0.0;0.0;0.0;0.0;0.0;0.0;0.0;0.0;0.0;0.0;0.0;0.0;-0.515137;0.007324;0.58252;-10.71;-45.920002;68.739998;0.0;0.0;0.0;0.25;1.75;1.5;2.25;4.25;7.0;0.0;5.5;2.0;0.75;0.75;1.75;4.0;14.75;2.75;1.75;-0.196777;0.039551;0.994629;-0.21;-1.33;0.84;574.0;0.093625;-0.104538
0.6;0.0;0.0;0.0;0.0;0.0;0.0;0.0;0.0;0.0;0.0;0.0;0.0;0.0;0.0;0.0;0.0;-0.737305;0.103516;0.799316;4.2;21.84;61.599998;0.0;0.0;0.0;0.25;1.75;1.5;2.25;4.5;7.0;0.0;5.5;1.75;1.0;1.0;2.0;4.0;14.5;2.5;1.75;-0.204102;0.040039;1.003418;-0.21;-1.33;0.84;577.0;0.090581;-0.107452
0.61;0.0;0.0;0.0;0.0;0.0;0.0;0.0;0.0;0.0;0.0;0.0;0.0;0.0;0.0;0.0;0.0;-1.586914;0.061035;3.076172;38.709999;91.629997;61.529999;0.0;0.0;0.0;0.5;1.75;1.5;2.25;4.0;7.5;0.25;5.75;1.5;0.75;0.75;2.25;4.25;14.75;2.5;1.75;-0.200684;0.035645;0.987793;-0.35;-1.19;0.7;586.0;0.086911;-0.113713
0.62;0.0;0.0;0.0;0.0;0.0;0.0;0.0;0.0;0.0;0.0;0.0;0.0;0.0;0.25;0.0;0.0;-0.587891;-0.103516;0.883789;2.66;11.97;54.25;2.0;0.0;0.0;0.25;1.75;1.5;2.25;4.25;7.25;0.0;5.75;1.5;0.75;0.75;2.25;4.0;14.25;2.5;1.75;-0.200684;0.037109;0.993164;-0.56;-0.98;0.7;572.0;0.086526;-0.116564
0.63;0.0;0.0;0.0;0.0;0.0;0.0;0.0;0.0;0.0;0.0;0.0;0.0;0.0;0.25;0.0;0.0;-0.926758;0.07959;0.895996;-5.67;8.96;40.110001;2.0;0.0;0.0;0.25;1.75;1.5;2.5;4.0;7.0;0.0;5.5;1.75;0.5;0.75;1.75;3.75;14.25;2.5;1.75;-0.19873;0.041992;0.990234;-0.7;-0.63;0.63;558.0;0.086367;-0.110322
0.64;0.0;0.0;0.0;0.0;0.0;0.0;0.0;0.0;0.0;0.0;0.0;0.0;0.0;0.5;0.0;0.0;-0.996094;0.314453;0.777344;-0.07;11.55;13.09;5.0;0.0;0.0;0.25;1.75;1.5;2.5;4.0;7.0;0.0;5.5;1.5;0.5;0.75;1.75;4.0;14.25;2.75;1.75;-0.200684;0.034668;0.996582;-0.84;-0.21;0.49;559.0;0.087278;-0.114117
0.65;0.0;0.0;0.0;0.0;0.0;0.0;0.0;0.0;0.0;0.25;0.0;0.0;0.0;0.75;0.0;0.0;-0.191406;0.033691;1.008789;1.96;13.86;0.42;10.0;0.0;0.0;0.5;1.75;1.5;2.25;3.75;6.75;0.0;5.5;2.0;0.5;0.75;2.0;4.0;14.25;2.75;1.75;-0.202637;0.031738;0.991699;-0.84;0.42;0.42;563.0;0.091969;-0.108497
0.66;0.0;0.0;0.0;0.0;0.0;0.0;0.0;0.0;0.25;0.0;0.0;0.0;0.0;1.0;0.0;0.0;-0.163086;0.026855;1.070312;0.77;8.12;-0.77;13.0;0.0;0.0;0.5;1.75;1.5;2.25;3.75;6.75;0.0;5.5;2.0;0.5;0.75;2.0;3.75;14.0;2.75;1.75;-0.202148;0.038086;0.987793;-0.98;0.63;0.42;559.0;0.090308;-0.108197
0.67;0.0;0.0;0.0;0.0;0.0;0.0;0.0;0.0;0.25;0.0;0.0;0.0;0.0;2.0;0.0;0.0;-0.185059;0.027832;1.013184;-0.21;-4.41;-2.17;22.0;0.0;0.0;0.5;1.75;1.25;2.25;3.25;6.5;0.0;5.5;1.75;0.5;0.75;1.75;3.75;14.0;2.5;1.75;-0.206055;0.037109;0.986328;-1.05;0.84;0.35;537.0;0.09265;-0.111982
0.68;0.0;0.0;0.0;0.0;0.0;0.0;0.0;0.0;0.25;0.0;0.0;0.0;0.0;3.0;0.25;0.0;-0.196289;0.022461;1.008301;-0.0;-5.53;-2.52;34.0;0.0;0.0;0.5;1.5;1.5;2.0;3.25;6.5;0.0;5.25;1.5;0.75;0.5;1.75;3.75;13.75;2.5;1.75;-0.200684;0.037109;0.996582;-1.19;0.84;0.21;525.0;0.09356;-0.110626
0.69;0.0;0.0;0.0;0.0;0.0;0.0;0.0;0.0;0.25;0.25;0.0;0.0;0.0;3.25;0.25;0.0;-0.208496;0.017578;1.007324;0.63;-5.11;-2.24;39.0;0.0;0.0;0.25;1.5;1.25;1.75;3.25;6.25;0.0;5.25;1.5;0.25;0.5;2.0;3.75;13.75;2.5;1.5;-0.203613;0.043945;0.991211;-1.4;0.7;0.07;509.0;0.100389;-0.11383
0.7;0.0;0.0;0.0;0.0;0.0;0.0;0.0;0.0;0.5;0.0;0.25;0.0;0.0;3.75;0.25;0.0;-0.210938;0.013184;0.99707;0.7;-4.2;-1.4;48.0;0.0;0.0;0.25;1.75;1.0;1.5;3.0;6.25;0.0;5.25;1.5;0.25;0.5;1.5;3.5;13.75;2.5;1.5;-0.205566;0.035645;0.998535;-1.47;0.77;0.07;494.0;0.102156;-0.111965
0.71;0.0;0.0;0.0;0.0;0.0;0.0;0.0;0.0;0.75;0.0;0.25;0.0;0.0;4.25;0.0;0.0;-0.195801;0.01416;0.990234;0.98;-3.78;0.35;53.0;0.371324;0.181556;0.5;1.75;1.25;1.75;3.0;6.25;0.0;5.0;1.25;0.25;0.5;1.25;3.5;13.5;2.5;1.5;-0.198242;0.035156;0.992188;-1.54;0.42;0.07;490.0;0.092317;-0.110863
0.72;0.0;0.0;0.0;0.0;0.0;0.0;0.0;0.25;0.25;0.25;0.0;0.0;0.0;4.75;0.25;0.0;-0.192383;0.013184;0.994141;1.61;-4.27;0.91;58.0;0.363847;0.124068;0.5;1.5;1.25;1.75;3.0;6.0;0.0;5.0;1.25;0.5;0.5;1.25;3.5;13.5;2.5;1.5;-0.20752;0.036133;0.992676;-1.61;0.28;-0.07;487.0;0.097308;-0.108568
0.73;0.0;0.0;0.0;0.0;0.25;0.0;0.0;0.25;0.25;0.25;0.0;0.0;0.0;5.0;0.25;0.0;-0.192383;0.023438;0.993164;1.75;-4.83;0.98;63.0;0.342321;0.123063;0.5;1.25;1.25;1.75;2.75;5.75;0.0;4.75;1.5;0.25;0.25;1.75;3.0;13.5;2.5;1.5;-0.208984;0.037109;0.993164;-1.61;0.07;0.07;473.0;0.104169;-0.102675
0.74;0.0;0.0;0.0;0.0;0.25;0.0;0.0;0.25;0.25;0.25;0.0;0.0;0.0;5.0;0.0;0.0;-0.19873;0.023438;0.99707;1.61;-4.97;0.84;60.0;0.339183;0.132869;0.25;1.5;1.25;1.75;2.75;5.75;0.0;4.75;1.5;0.25;0.5;1.75;3.5;13.25;2.5;1.5;-0.198242;0.039062;0.991211;-1.61;0.0;-0.0;478.0;0.104301;-0.109233
0.75;0.0;0.0;0.0;0.0;0.0;0.25;0.0;0.0;0.5;0.0;0.25;0.0;0.0;5.25;0.25;0.0;-0.195801;0.024414;0.997559;1.12;-5.25;0.7;65.0;0.361219;0.14325;0.25;1.25;1.25;1.75;2.75;6.0;0.0;4.5;1.0;0.5;0.75;1.5;3.0;12.75;2.5;1.5;-0.206055;0.037598;0.989746;-1.68;0.0;-0.0;461.0;0.101362;-0.110477
0.76;0.0;0.0;0.25;0.0;0.0;0.25;0.0;0.0;0.5;0.0;0.0;0.0;0.0;5.75;0.25;0.0;-0.192871;0.020996;0.996094;0.84;-5.74;0.49;69.0;0.342705;0.15387;0.25;1.5;1.25;1.5;2.75;5.75;0.0;4.5;1.25;0.5;0.5;1.5;2.75;12.75;2.5;1.5;-0.200195;0.036621;0.991211;-1.75;-0.07;-0.07;456.0;0.102791;-0.104106
0.77;0.0;0.0;0.25;0.25;0.0;0.25;0.0;0.25;0.5;0.25;0.0;0.0;0.0;5.75;0.25;0.25;-0.191895;0.021973;0.997559;0.21;-6.09;0.35;81.0;0.297785;0.100011;0.5;1.25;1.25;1.75;3.0;5.75;0.0;4.25;2.0;0.75;0.25;1.5;3.0;13.0;2.25;1.5;-0.202637;0.037598;0.986328;-1.82;0.0;-0.0;471.0;0.103199;-0.090479
0.78;0.0;0.0;0.25;0.25;0.25;0.25;0.0;0.25;0.5;0.0;0.25;0.0;0.0;5.5;0.25;0.25;-0.191406;0.024414;0.995605;0.14;-6.37;0.56;82.0;0.278426;0.090064;0.25;1.25;1.25;1.25;2.75;5.5;0.0;4.25;1.5;0.5;0.25;1.25;3.0;13.0;2.25;1.5;-0.207031;0.040527;0.989258;-1.75;0.21;-0.0;443.0;0.110953;-0.095285
0.79;0.0;0.0;0.25;0.25;0.25;0.25;0.0;0.25;0.75;0.0;0.0;0.0;0.25;5.25;0.25;0.25;-0.188965;0.019531;0.994141;-0.28;-6.44;0.7;82.0;0.272381;0.086972;0.25;1.25;1.0;1.5;2.75;5.25;0.0;4.25;1.25;0.5;0.25;1.25;2.75;12.75;2.25;1.5;-0.205078;0.039551;0.994141;-1.68;0.14;0.07;432.0;0.109511;-0.098798
0.8;0.0;0.0;0.25;0.25;0.25;0.25;0.0;0.25;0.75;0.25;0.0;0.0;0.25;5.0;0.25;0.25;-0.186523;0.018066;0.983887;-0.35;-6.51;0.77;83.0;0.26735;0.083637;0.25;1.5;1.25;1.75;2.75;5.25;0.0;4.25;1.0;0.5;0.25;1.25;2.5;12.75;2.5;1.25;-0.20459;0.032227;0.987305;-1.68;0.21;-0.07;436.0;0.10069;-0.099001
0.81;0.25;0.0;0.5;0.25;0.25;0.5;0.0;0.5;0.5;0.25;0.0;0.0;0.25;5.0;0.0;0.25;-0.177734;0.02832;0.991211;-0.35;-6.16;0.91;89.0;0.196924;0.048319;0.25;1.5;1.0;1.75;2.75;4.75;0.0;4.0;0.75;0.75;0.25;1.25;2.25;12.5;2.5;1.25;-0.205078;0.035645;0.989746;-1.68;0.14;0.07;417.0;0.105596;-0.096559
0.82;0.25;0.0;0.5;0.5;0.5;0.5;0.0;0.75;0.25;0.25;0.25;0.0;0.25;5.0;0.0;0.25;-0.187988;0.01709;0.993652;-0.35;-5.32;0.84;99.0;0.162346;0.00897;0.5;1.25;1.25;1.5;2.75;4.75;0.0;4.0;1.0;0.75;0.5;1.25;2.5;12.5;2.0;1.25;-0.200684;0.038086;0.989746;-1.68;0.35;0.14;420.0;0.103753;-0.091713
0.83;0.25;0.0;0.75;0.5;0.75;0.75;0.0;0.75;0.25;0.0;0.25;0.25;0.25;5.0;0.25;0.0;-0.186035;0.027344;1.004395;-0.0;-4.69;0.91;109.0;0.13687;-0.002505;0.25;1.5;1.25;1.5;2.75;4.75;0.0;3.75;1.0;0.5;0.5;1.25;2.5;12.5;2.0;1.25;-0.206055;0.037109;0.993164;-1.75;0.63;0.21;413.0;0.104277;-0.091587
0.84;0.25;0.0;0.75;0.5;1.0;0.75;0.0;0.75;0.5;0.0;0.0;0.25;0.25;4.5;0.25;0.0;-0.183594;0.019043;0.998535;0.21;-3.85;0.98;108.0;0.119382;0.003669;0.25;1.25;1.25;1.25;2.5;4.75;0.0;3.75;1.0;0.5;0.5;1.25;2.5;12.0;2.0;1.0;-0.204102;0.029785;0.98877;-1.82;0.84;0.07;398.0;0.107701;-0.093576
0.85;0.25;0.25;0.75;1.0;1.0;1.0;0.0;0.75;0.5;0.0;0.0;0.25;0.25;4.25;0.25;0.25;-0.178223;0.026367;0.993164;0.28;-3.15;0.91;119.0;0.078021;-0.02569;0.5;1.5;1.25;1.25;2.5;4.25;0.0;3.5;0.75;0.75;0.5;1.0;2.25;12.25;2.0;1.0;-0.202637;0.032715;0.988281;-1.82;1.05;-0.0;390.0;0.106165;-0.083557
0.86;0.25;0.25;0.75;1.0;1.25;1.25;0.25;1.0;0.25;0.25;0.0;0.25;0.25;4.0;0.25;0.25;-0.184082;0.025391;1.0;0.42;-2.73;0.98;130.0;0.057957;-0.042458;0.25;1.25;1.0;1.25;2.25;4.0;0.0;3.5;0.75;0.25;0.5;1.0;2.25;12.0;2.0;1.0;-0.209473;0.029785;0.991211;-1.82;1.05;0.07;368.0;0.116713;-0.089484
0.87;0.5;0.25;0.75;1.0;1.25;1.5;0.25;1.0;0.5;0.25;0.25;0.25;0.25;4.0;0.25;0.25;-0.177246;0.022461;1.001953;0.49;-2.17;1.05;142.0;0.052766;-0.037787;0.25;0.75;1.0;1.0;2.25;3.75;0.0;3.0;0.75;0.25;0.75;1.0;1.75;11.75;2.0;1.0;-0.20752;0.032227;0.990234;-1.75;1.26;-0.0;344.0;0.131672;-0.075212
0.88;0.75;0.25;1.0;1.25;1.5;1.5;0.25;1.25;0.25;0.25;0.25;0.25;0.25;4.0;0.25;0.0;-0.176758;0.026367;0.990723;0.28;-2.03;0.91;153.0;0.018437;-0.048491;0.25;0.75;1.0;1.0;2.0;3.5;0.0;3.0;0.75;0.5;0.5;1.0;1.5;11.75;2.0;1.0;-0.20459;0.029785;0.990234;-1.82;1.33;0.07;336.0;0.136332;-0.070448
0.89;0.75;0.25;1.5;1.25;1.5;1.75;0.25;1.25;0.0;0.5;0.0;0.25;0.25;4.0;0.25;0.0;-0.183105;0.026367;0.989746;0.14;-2.03;0.98;159.0;-0.000773;-0.051445;0.25;0.5;0.75;1.0;2.0;3.5;0.0;2.75;0.75;0.25;0.5;1.0;1.5;11.5;1.75;1.0;-0.212891;0.033691;0.985352;-1.61;1.4;0.14;318.0;0.141115;-0.069921
0.9;0.75;0.25;1.5;1.5;1.5;1.75;0.25;1.25;0.25;0.5;0.0;0.25;0.25;3.75;0.25;0.25;-0.175781;0.022461;0.995117;0.14;-2.1;0.84;165.0;-0.002996;-0.053114;0.0;0.5;0.75;1.0;1.75;3.5;0.0;2.75;0.75;0.25;0.5;1.0;1.5;11.25;1.75;1.0;-0.208984;0.035156;0.988281;-1.75;1.47;0.14;310.0;0.146623;-0.074678
0.91;0.75;0.25;1.5;1.5;1.75;2.0;0.25;1.5;0.5;0.25;0.0;0.25;0.25;3.75;0.25;0.25;-0.177734;0.024414;0.994141;-0.0;-1.96;0.91;176.0;-0.006493;-0.058138;0.25;0.75;0.75;1.0;1.5;2.75;0.0;2.25;0.75;0.25;0.25;1.0;1.5;11.25;1.5;1.0;-0.209961;0.032715;0.986328;-1.68;1.54;0.14;289.0;0.149578;-0.059368
0.92;0.75;0.5;1.5;1.5;1.75;2.5;0.25;1.5;0.25;0.25;0.0;0.25;0.5;3.75;0.25;0.25;-0.180664;0.029297;0.995605;-0.07;-1.89;0.91;183.0;-0.019763;-0.078318;0.25;0.75;0.75;1.0;1.5;2.75;0.0;2.0;0.25;0.25;0.25;0.75;1.0;11.0;1.5;1.0;-0.211426;0.03418;0.992676;-1.68;1.54;0.14;268.0;0.145989;-0.055556
0.93;0.75;0.5;1.75;1.5;1.75;2.5;0.25;1.5;0.25;0.25;0.0;0.25;0.5;3.75;0.0;0.25;-0.182129;0.023438;0.990234;-0.21;-1.82;0.84;183.0;-0.030557;-0.075464;0.25;0.5;0.5;1.0;1.25;3.0;0.0;2.0;0.25;0.25;0.5;1.0;1.0;10.5;1.5;1.0;-0.205078;0.031738;0.989746;-1.54;1.54;0.07;264.0;0.152688;-0.067344
0.94;0.75;0.75;1.75;1.75;2.0;2.5;0.0;1.5;0.25;0.25;0.25;0.25;0.5;3.75;0.25;0.25;-0.179199;0.02832;0.999512;-0.07;-1.82;0.91;193.0;-0.033116;-0.084323;0.25;0.5;0.5;1.0;1.25;2.5;0.0;2.0;0.25;0.25;0.5;0.25;1.25;10.5;1.5;1.0;-0.208984;0.035156;0.992676;-1.61;1.54;-0.07;251.0;0.158188;-0.058321
0.95;1.0;0.75;2.25;1.75;2.25;3.25;0.25;1.75;0.25;0.5;0.25;0.25;0.5;3.75;0.25;0.25;-0.178223;0.028809;0.995605;-0.07;-1.89;0.98;225.0;-0.0441;-0.080559;0.25;0.5;0.75;1.0;1.0;2.0;0.0;1.75;0.25;0.25;0.5;0.25;1.0;10.25;1.5;1.0;-0.208496;0.029785;0.984863;-1.54;1.61;-0.14;237.0;0.164507;-0.044974
0.96;1.0;1.0;2.25;2.25;2.25;3.25;0.25;1.75;0.0;0.5;0.0;0.25;0.5;3.75;0.25;0.25;-0.174316;0.029785;0.992676;-0.21;-1.82;0.91;227.0;-0.062788;-0.090462;0.25;0.75;0.25;0.75;1.0;2.0;0.0;1.5;0.25;0.25;0.5;0.25;1.0;9.75;1.5;1.0;-0.208984;0.033691;0.983887;-1.54;1.75;-0.07;221.0;0.173986;-0.045764
0.97;1.5;1.5;2.25;2.5;2.25;3.25;0.25;2.25;0.25;0.25;0.0;0.0;0.5;3.75;0.25;0.25;-0.175293;0.025391;0.992188;-0.14;-2.1;0.84;247.0;-0.080862;-0.093333;0.5;0.25;0.25;0.5;1.0;2.0;0.0;1.25;0.5;0.5;0.25;0.5;0.5;9.5;1.5;0.75;-0.208496;0.033691;0.987305;-1.68;1.82;-0.0;210.0;0.188877;-0.01814
0.98;1.5;1.25;2.25;2.75;2.75;3.5;0.25;2.25;0.25;0.25;0.0;0.25;0.75;3.75;0.25;0.25;-0.174316;0.027344;0.996094;-0.0;-1.96;0.77;262.0;-0.076387;-0.098173;0.25;0.25;0.25;0.75;1.0;2.0;0.0;1.25;0.5;0.25;0.25;0.25;0.5;9.0;1.75;0.75;-0.212402;0.03418;0.989746;-1.68;1.89;0.07;202.0;0.187069;-0.025574
0.99;1.5;1.0;2.5;2.75;2.75;3.75;0.25;2.25;0.5;0.25;0.25;0.25;0.75;4.0;0.25;0.25;-0.17334;0.024414;0.997559;-0.0;-1.75;0.7;274.0;-0.064543;-0.090343;0.25;0.25;0.25;0.5;0.75;1.75;0.0;1.0;0.25;0.25;0.25;0.5;0.5;9.25;1.5;0.75;-0.216797;0.03125;0.986816;-1.68;2.03;-0.0;188.0;0.207805;-0.018238
1.0;2.0;1.5;2.75;3.0;2.75;3.75;0.25;2.25;0.25;0.5;0.0;0.25;0.75;3.75;0.25;0.25;-0.178223;0.026855;0.989746;-0.07;-1.61;0.7;285.0;-0.089795;-0.092189;0.25;0.5;0.25;0.5;0.75;1.5;0.0;1.0;0.25;0.25;0.25;0.25;0.75;9.5;1.5;0.5;-0.208984;0.026855;0.988281;-1.68;2.66;0.07;188.0;0.206008;-0.01274
1.01;2.25;1.5;2.75;3.0;3.5;4.0;0.25;2.5;0.25;0.5;0.0;0.25;0.75;3.75;0.25;0.25;-0.179199;0.027832;0.995605;-0.07;-1.89;0.84;304.0;-0.093313;-0.091643;0.5;0.25;0.25;0.5;0.5;1.25;0.0;0.75;0.25;0.25;0.25;0.5;0.75;8.75;1.0;0.25;-0.216309;0.032715;0.984375;-1.68;3.08;-0.0;167.0;0.205953;-0.003378
1.02;2.25;1.5;2.75;3.25;3.5;4.25;0.25;2.5;0.25;0.25;0.0;0.25;0.75;4.0;0.25;0.25;-0.177734;0.021484;1.0;-0.14;-2.03;0.84;309.0;-0.095032;-0.094087;0.25;0.25;0.25;0.25;0.5;1.0;0.0;0.5;0.25;0.25;0.25;0.25;0.5;8.25;1.0;0.5;-0.212402;0.027832;0.985352;-1.89;3.5;-0.07;145.0;0.237054;0.019905
1.03;2.25;1.75;3.0;3.5;3.75;4.75;0.25;2.5;0.5;0.25;0.25;0.25;0.75;3.75;0.25;0.25;-0.175293;0.027344;0.994629;0.07;-2.24;1.12;331.0;-0.09909;-0.094049;0.25;0.25;0.25;0.25;0.25;0.75;0.0;0.5;0.25;0.25;0.25;0.5;0.25;7.5;1.0;0.25;-0.192383;0.038574;0.98877;-1.96;3.78;-0.07;132.0;0.243966;0.022677
1.04;2.25;2.0;3.25;4.5;4.0;4.75;0.25;2.75;0.25;0.25;0.25;0.25;0.5;3.75;0.25;0.25;-0.172363;0.02832;0.996582;0.21;-2.24;1.19;350.0;-0.113929;-0.100962;0.25;0.25;0.0;0.25;0.25;0.5;0.0;0.25;0.25;0.25;0.5;0.25;0.25;6.75;1.0;0.25;-0.211426;0.038574;0.990723;-2.17;4.2;-0.21;114.0;0.267374;0.038795
1.05;2.75;2.5;3.25;4.5;4.5;5.25;0.25;3.0;0.25;0.25;0.25;0.5;0.75;3.5;0.25;0.5;-0.170898;0.023438;1.0;0.14;-1.82;1.19;381.0;-0.119073;-0.108242;0.0;0.25;0.0;0.25;0.0;0.5;0.0;0.0;0.25;0.25;0.25;0.0;0.25;5.75;1.0;0.5;-0.217285;0.032715;0.991211;-2.17;4.97;-0.07;91.0;0.303846;0.051133
1.06;3.0;2.5;3.25;5.0;4.5;5.5;0.25;3.0;0.5;0.25;0.25;0.25;0.75;3.5;0.25;0.25;-0.174805;0.024902;0.994141;0.07;-1.61;1.05;392.0;-0.124748;-0.104066;0.0;0.25;0.0;0.25;0.0;0.25;0.0;0.0;0.25;0.25;0.25;0.25;0.25;5.0;1.0;0.25;-0.212402;0.025879;0.988281;-1.96;5.67;0.14;82.0;0.306686;0.046539
1.07;3.25;2.75;3.5;5.5;4.75;5.5;0.25;3.0;0.75;0.25;0.0;0.25;0.75;3.25;0.25;0.25;-0.174805;0.02832;0.996094;-0.07;-1.68;1.05;408.0;-0.134114;-0.100287;0.0;0.25;0.0;0.25;0.0;0.25;0.0;0.0;0.25;0.25;0.0;0.25;0.0;4.0;1.0;0.25;-0.219727;0.027344;0.984375;-1.68;6.09;0.42;68.0;0.300271;0.053056
1.08;3.5;2.75;3.5;5.5;4.75;5.75;0.5;3.0;0.5;0.25;0.0;0.25;0.75;3.25;0.25;0.25;-0.178223;0.028809;1.000977;-0.07;-1.75;0.98;414.0;-0.137323;-0.099924;0.0;0.25;0.0;0.0;0.0;0.25;0.0;0.0;0.25;0.25;0.0;0.25;0.25;3.5;0.5;0.25;-0.217773;0.028809;0.983398;-1.61;6.16;0.49;57.0;0.305797;0.049844
1.09;4.25;3.25;3.75;6.0;5.0;5.75;0.5;3.25;0.25;0.25;0.25;0.25;0.75;3.25;0.25;0.25;-0.175293;0.027344;0.996094;-0.14;-1.68;0.98;443.0;-0.148088;-0.101843;0.25;0.25;0.25;0.0;0.0;0.25;0.0;0.0;0.0;0.5;0.0;0.25;0.0;2.75;0.5;0.25;-0.222656;0.022461;0.98877;-1.82;5.95;0.63;53.0;0.226381;0.046764
1.1;4.0;3.75;4.5;6.5;5.0;6.0;0.5;3.25;0.5;0.25;0.0;0.25;0.75;3.25;0.25;0.5;-0.174316;0.024414;0.998535;-0.21;-1.33;0.98;466.0;-0.151149;-0.100437;0.0;0.25;0.0;0.0;0.25;0.0;0.0;0.0;0.0;0.25;0.25;0.0;0.0;1.75;0.5;0.0;-0.224609;0.027832;0.983887;-2.1;5.11;0.49;33.0;0.0;0.0
1.11;4.0;3.75;4.75;6.5;5.0;6.25;0.5;3.25;0.5;0.25;0.0;0.25;1.0;3.25;0.25;0.25;-0.171875;0.03125;0.99707;-0.14;-1.12;1.05;472.0;-0.1519;-0.101431;0.0;0.0;0.25;0.0;0.25;0.0;0.0;0.0;0.0;0.25;0.25;0.25;0.0;1.0;0.5;0.0;-0.217285;0.033691;0.981934;-3.01;3.43;0.35;30.0;0.0;0.0
1.12;3.75;4.0;4.75;6.5;5.0;6.25;0.5;3.5;0.75;0.25;0.0;0.25;1.0;3.0;0.0;0.25;-0.172363;0.030273;0.992676;-0.21;-0.77;1.05;475.0;-0.153647;-0.104224;0.0;0.0;0.25;0.0;0.0;0.25;0.0;0.0;0.0;0.25;0.25;0.0;0.25;0.5;0.25;0.0;-0.218262;0.027832;0.973145;-3.57;2.17;0.35;22.0;0.0;0.0
1.13;4.25;4.0;5.0;6.5;5.0;6.5;0.25;3.5;0.5;0.25;0.25;0.25;0.75;2.75;0.25;0.25;-0.171387;0.024414;0.999512;-0.21;-0.49;0.91;480.0;-0.161068;-0.106874;0.0;0.25;0.0;0.0;0.0;0.25;0.0;0.0;0.0;0.25;0.0;0.0;0.25;0.5;0.25;0.0;-0.224609;0.030762;0.984375;-3.92;0.7;0.42;18.0;0.0;0.0
1.14;4.25;4.5;5.0;6.75;5.25;7.0;0.25;3.5;0.5;0.25;0.25;0.25;0.75;3.0;0.25;0.25;-0.16748;0.022949;0.998535;-0.07;-0.42;0.91;499.0;-0.16142;-0.107826;0.0;0.25;0.0;0.25;0.0;0.25;0.0;0.0;0.0;0.25;0.0;0.25;0.25;0.5;0.25;0.0;-0.226074;0.022461;0.977051;-4.06;-0.91;0.77;24.0;0.0;0.0
1.15;4.5;4.75;5.0;6.75;5.25;7.0;0.25;3.5;0.5;0.25;0.0;0.25;0.75;3.0;0.25;0.25;-0.169922;0.022949;0.994629;-0.0;-0.42;0.91;502.0;-0.166276;-0.106851;0.0;0.25;0.0;0.25;0.25;0.0;0.0;0.0;0.25;0.0;0.0;0.25;0.25;0.25;0.25;0.0;-0.226562;0.022461;0.975586;-3.71;-2.17;1.19;23.0;0.0;0.0
1.16;5.0;5.0;5.25;7.25;5.25;7.25;0.25;3.5;0.5;0.0;0.0;0.25;0.75;2.75;0.25;0.25;-0.168457;0.021484;0.998047;0.35;-0.56;1.12;517.0;-0.176846;-0.108164;0.0;0.25;0.0;0.0;0.25;0.0;0.0;0.0;0.0;0.0;0.0;0.25;0.0;0.25;0.25;0.0;-0.227539;0.026855;0.980469;-3.71;-3.22;1.54;14.0;0.0;0.0
1.17;5.25;5.0;5.25;7.25;5.25;7.25;0.25;3.5;0.25;0.25;0.25;0.25;1.0;2.75;0.25;0.25;-0.173828;0.027832;0.994629;0.42;-0.56;1.19;524.0;-0.175007;-0.110302;0.25;0.25;0.0;0.0;0.0;0.0;0.0;0.0;0.0;0.0;0.0;0.0;0.0;0.25;0.25;0.0;-0.222656;0.024902;0.977539;-3.64;-4.27;1.75;11.0;0.0;0.0
1.18;5.25;5.0;5.25;7.0;5.5;7.5;0.5;3.5;0.25;0.25;0.25;0.25;1.0;2.75;0.25;0.25;-0.166016;0.033203;0.993164;0.56;-0.56;1.19;531.0;-0.171982;-0.106859;0.0;0.25;0.0;0.0;0.0;0.25;0.0;0.0;0.0;0.0;0.0;0.0;0.0;0.0;0.25;0.0;-0.219727;0.018066;0.975098;-3.36;-4.76;1.68;8.0;0.0;0.0
1.19;5.0;5.0;5.25;7.0;5.5;7.5;0.5;3.5;0.25;0.25;0.25;0.25;1.0;2.75;0.25;0.25;-0.163574;0.030762;0.996582;0.56;-0.7;1.12;528.0;-0.170743;-0.108014;0.0;0.25;0.0;0.0;0.0;0.25;0.0;0.0;0.0;0.0;0.0;0.0;0.0;0.25;0.0;0.0;-0.222168;0.029297;0.981934;-3.22;-5.04;1.68;8.0;0.0;0.0
1.2;5.0;5.0;5.25;7.25;5.5;7.75;0.5;3.75;0.25;0.25;0.0;0.25;1.0;2.75;0.0;0.25;-0.165527;0.029297;0.993164;0.49;-0.56;1.05;533.0;-0.175302;-0.111909;0.0;0.25;0.25;0.0;0.25;0.25;0.0;0.0;0.0;0.0;0.0;0.0;0.0;0.25;0.0;0.0;-0.224121;0.032227;0.984375;-2.8;-5.25;1.54;14.0;0.0;0.0
1.21;5.5;5.75;5.25;7.75;5.5;8.0;0.5;4.0;0.25;0.25;0.0;0.25;0.75;2.25;0.0;0.25;-0.169922;0.029297;0.999512;0.21;-0.21;0.91;552.0;-0.187229;-0.115539;0.25;0.25;0.0;0.0;0.25;0.25;0.0;0.0;0.0;0.0;0.0;0.0;0.0;0.25;0.0;0.0;-0.229492;0.027344;0.994141;-2.17;-5.74;1.19;14.0;0.0;0.0
1.22;5.0;5.25;5.25;7.25;5.5;7.75;0.5;4.0;0.25;0.25;0.0;0.25;1.0;2.5;0.0;0.25;-0.167969;0.030273;1.001953;-0.0;-0.21;0.77;537.0;-0.177713;-0.115586;0.25;0.25;0.0;0.25;0.0;0.0;0.0;0.0;0.0;0.0;0.0;0.0;0.0;0.0;0.25;0.0;-0.221191;0.018066;0.990723;-1.89;-5.6;1.12;11.0;0.0;0.0
1.23;5.0;5.25;5.5;7.75;5.5;8.0;0.25;4.0;0.25;0.25;0.25;0.25;1.0;2.75;0.0;0.25;-0.175293;0.030273;0.998047;-0.28;-0.35;0.77;550.0;-0.176601;-0.117938;0.25;0.25;0.0;0.25;0.0;0.0;0.0;0.0;0.0;0.0;0.0;0.0;0.0;0.25;0.0;0.0;-0.240234;0.008789;1.009766;-1.12;-6.16;0.21;11.0;0.0;0.0
1.24;5.0;5.25;5.25;7.75;6.0;8.0;0.25;4.0;0.5;0.25;0.25;0.25;1.0;2.75;0.25;0.25;-0.167969;0.023926;1.00293;-0.42;-0.28;0.77;559.0;-0.169803;-0.114454;0.25;0.25;0.0;0.0;0.0;0.25;0.0;0.0;0.0;0.0;0.0;0.0;0.0;0.0;0.0;0.0;-0.237305;-0.000977;1.029785;-1.19;-8.33;-0.56;8.0;0.0;0.0
1.25;5.5;5.25;5.25;7.25;5.75;8.0;0.5;4.0;0.25;0.25;0.25;0.25;1.0;2.75;0.25;0.25;-0.161133;0.027344;1.000488;-0.49;-0.14;0.84;557.0;-0.172036;-0.111798;0.25;0.25;0.0;0.0;0.0;0.25;0.0;0.0;0.0;0.0;0.0;0.0;0.0;0.0;0.0;0.0;-0.25;-0.01709;1.005859;-2.31;-12.46;-2.45;8.0;0.0;0.0
1.26;5.25;5.5;5.5;7.25;5.75;8.0;0.5;4.0;0.25;0.25;0.25;0.25;1.0;2.75;0.25;0.5;-0.166016;0.026367;0.996582;-0.35;-0.0;0.91;561.0;-0.171071;-0.112594;0.25;0.25;0.0;0.0;0.0;0.0;0.0;0.0;0.0;0.0;0.0;0.0;0.0;0.0;0.0;0.0;-0.297852;-0.068359;1.000977;-2.24;-16.309999;-4.76;5.0;0.0;0.0
1.27;5.0;5.5;5.5;7.75;6.0;8.0;0.5;4.0;0.25;0.25;0.25;0.25;1.0;2.75;0.25;0.5;-0.171387;0.028809;0.994629;-0.35;-0.07;0.98;567.0;-0.170902;-0.113966;0.25;0.25;0.0;0.0;0.0;0.25;0.0;0.0;0.0;0.0;0.0;0.0;0.0;0.0;0.0;0.0;-0.272461;-0.21875;0.990723;1.33;-17.780001;-11.13;8.0;0.0;0.0
1.28;5.5;5.75;5.25;8.25;6.0;8.0;0.5;4.0;0.25;0.25;0.0;0.25;1.0;2.75;0.25;0.25;-0.171387;0.028809;0.997559;-0.7;0.14;0.98;574.0;-0.178339;-0.113714;0.25;0.25;0.0;0.0;0.0;0.0;0.0;0.0;0.0;0.0;0.0;0.0;0.0;0.0;0.0;0.0;-0.295898;-0.27832;1.047363;8.68;-18.059999;-22.33;5.0;0.0;0.0
1.29;5.5;5.75;5.75;8.25;6.0;8.25;0.5;4.0;0.75;0.25;0.0;0.5;1.0;2.25;0.25;0.25;-0.169922;0.026367;1.004883;-0.77;-0.0;0.7;588.0;-0.176593;-0.110884;0.25;0.25;0.0;0.0;0.0;0.0;0.0;0.0;0.0;0.0;0.0;0.0;0.0;0.0;0.0;0.0;-0.29541;-0.315918;0.980469;14.84;-21.42;-43.889999;5.0;0.0;0.0
1.3;5.5;5.75;5.75;8.0;6.0;8.25;0.25;4.0;0.75;0.25;0.0;0.5;1.0;2.25;0.25;0.25;-0.170898;0.037598;1.003418;-1.12;0.14;0.7;581.0;-0.177841;-0.112801;0.0;0.0;0.0;0.0;0.0;0.0;0.0;0.0;0.0;0.0;0.0;0.0;0.0;0.0;0.0;0.0;-0.291016;-0.208496;0.937012;15.82;-19.6;-57.049999;0.0;0.0;0.0
1.31;5.75;5.75;5.75;8.0;6.25;8.25;0.25;4.0;0.5;0.25;0.0;0.5;1.0;2.5;0.25;0.25;-0.16748;0.031738;1.003418;-1.19;0.14;0.7;586.0;-0.178972;-0.112051;0.0;0.0;0.0;0.0;0.0;0.0;0.0;0.0;0.0;0.0;0.0;0.0;0.0;0.0;0.0;0.0;-0.322266;-0.095215;0.932617;14.35;-17.57;-66.150002;0.0;0.0;0.0
1.32;6.25;6.0;5.75;8.0;6.0;8.25;0.5;4.0;0.25;0.25;0.0;0.5;1.0;2.75;0.0;0.25;-0.165039;0.033691;1.004883;-1.33;0.14;0.7;591.0;-0.183756;-0.109921;0.0;0.0;0.0;0.0;0.0;0.0;0.0;0.0;0.0;0.0;0.0;0.0;0.0;0.0;0.0;0.0;-0.373535;-0.093262;0.931641;11.34;-15.12;-69.650002;0.0;0.0;0.0
1.33;6.25;6.5;5.75;8.25;6.25;8.5;0.5;3.75;0.0;0.0;0.0;0.5;1.0;2.5;0.25;0.25;-0.166016;0.01416;1.004883;-1.19;0.63;1.05;595.0;-0.191151;-0.113085;0.0;0.0;0.0;0.0;0.0;0.0;0.0;0.0;0.0;0.0;0.0;0.0;0.0;0.0;0.0;0.0;-0.406738;-0.053711;0.882812;2.8;-8.4;-66.080002;0.0;0.0;0.0
1.34;6.25;6.5;5.75;8.25;6.0;8.25;0.5;3.75;0.25;0.0;0.25;0.25;0.75;2.0;0.25;0.25;-0.167969;0.027344;1.000488;-0.98;0.49;0.98;585.0;-0.195122;-0.11082;0.0;0.0;0.0;0.0;0.0;0.0;0.0;0.0;0.0;0.0;0.0;0.0;0.0;0.0;0.0;0.0;-0.380859;-0.047363;0.893066;-4.76;-1.89;-59.920002;0.0;0.0;0.0
1.35;6.5;6.5;6.0;8.25;6.0;8.25;0.5;3.75;0.25;0.25;0.25;0.25;0.75;2.0;0.25;0.25;-0.177246;0.041504;1.006836;-0.77;0.98;1.19;594.0;-0.194391;-0.107911;0.0;0.0;0.0;0.0;0.0;0.0;0.0;0.0;0.0;0.0;0.0;0.0;0.0;0.0;0.0;0.0;-0.453125;-0.084961;1.008789;-17.08;10.5;-54.110001;0.0;0.0;0.0
1.36;6.25;6.5;6.0;8.5;6.0;8.25;0.5;3.5;0.25;0.25;0.25;0.25;0.75;1.75;0.0;0.25;-0.166992;0.026367;0.996094;-0.7;0.98;1.05;585.0;-0.200513;-0.108797;0.0;0.0;0.0;0.0;0.0;0.0;0.0;0.0;0.0;0.0;0.0;0.0;0.0;0.0;0.0;0.0;-0.352051;-0.056152;0.890625;-13.37;17.219999;-49.209999;0.0;0.0;0.0
1.37;6.75;7.0;6.0;8.75;6.0;8.25;0.5;3.5;0.25;0.25;0.25;0.25;0.75;1.25;0.0;0.25;-0.166016;0.032715;1.00293;-0.63;0.91;0.98;594.0;-0.209511;-0.110036;0.0;0.25;0.0;0.0;0.0;0.0;0.0;0.0;0.0;0.0;0.0;0.0;0.0;0.0;0.0;0.0;-0.249023;-0.046875;0.877441;-9.38;20.65;-46.200001;3.0;0.0;0.0
1.38;7.0;7.0;5.75;8.75;6.0;8.25;0.25;3.5;0.5;0.25;0.25;0.25;0.75;1.25;0.0;0.25;-0.164062;0.028809;0.997559;-0.63;1.12;0.77;593.0;-0.20935;-0.110147;0.25;0.25;0.0;0.0;0.0;0.0;0.0;0.0;0.0;0.0;0.0;0.0;0.0;0.0;0.25;0.0;-0.19873;-0.030273;0.890137;-5.67;23.59;-42.77;8.0;0.0;0.0
1.39;6.75;7.25;5.75;8.5;6.0;8.0;0.25;3.5;0.25;0.25;0.25;0.0;0.5;1.25;0.0;0.25;-0.170898;0.033691;1.004883;-0.7;1.05;0.84;578.0;-0.215702;-0.110054;0.0;0.25;0.0;0.0;0.0;0.0;0.0;0.0;0.0;0.0;0.0;0.0;0.0;0.0;0.25;0.0;-0.076172;0.002441;0.877441;-6.79;25.41;-36.259998;5.0;0.0;0.0
1.4;7.0;7.5;5.75;8.5;5.75;8.25;0.25;3.5;0.25;0.25;0.25;0.0;0.5;1.5;0.0;0.25;-0.166992;0.02832;0.995605;-0.63;1.26;0.84;586.0;-0.215124;-0.109803;0.0;0.0;0.0;0.0;0.0;0.0;0.0;0.0;0.0;0.0;0.0;0.0;0.0;0.0;0.25;0.0;0.038574;0.120605;0.869141;-15.05;25.549999;-22.68;3.0;0.0;0.0
1.41;7.5;7.25;5.75;8.25;5.5;8.0;0.25;3.5;0.25;0.25;0.0;0.0;0.75;1.0;0.0;0.0;-0.168457;0.035156;0.992676;-0.56;1.33;0.56;573.0;-0.223704;-0.110061;0.0;0.0;0.0;0.0;0.0;0.0;0.0;0.0;0.0;0.0;0.0;0.0;0.0;0.0;0.25;0.0;0.28125;0.510742;1.006836;19.879999;12.04;-5.6;3.0;0.0;0.0
1.42;6.75;7.25;5.75;8.5;5.5;8.0;0.25;3.25;0.25;0.25;0.0;0.25;0.75;1.0;0.25;0.0;-0.168457;0.027832;1.0;-0.63;1.54;0.56;569.0;-0.217541;-0.112666;0.25;0.0;0.0;0.0;0.0;0.0;0.0;0.0;0.0;0.0;0.0;0.0;0.0;0.0;0.25;0.0;0.169434;0.369629;1.020508;28.77;-3.43;3.22;6.0;0.0;0.0
1.43;6.5;7.25;5.75;9.0;5.5;8.0;0.25;3.25;0.25;0.0;0.0;0.25;0.25;1.25;0.0;0.0;-0.169434;0.027832;0.993652;-0.63;1.4;0.63;564.0;-0.223471;-0.111906;0.25;0.0;0.0;0.0;0.0;0.0;0.0;0.0;0.0;0.0;0.0;0.0;0.0;0.0;0.25;0.0;0.06543;0.359863;0.910156;21.84;-12.67;18.200001;6.0;0.0;0.0
1.44;6.5;7.5;5.75;8.75;5.5;8.0;0.25;3.25;0.0;0.25;0.0;0.25;0.25;1.25;0.25;0.25;-0.166504;0.028809;0.996094;-0.42;1.26;0.63;568.0;-0.21998;-0.11348;0.0;0.0;0.0;0.0;0.0;0.0;0.0;0.0;0.0;0.0;0.0;0.0;0.0;0.0;0.25;0.0;-0.049316;0.444824;1.103516;1.4;-15.96;32.689999;3.0;0.0;0.0
1.45;7.5;7.75;6.0;8.75;5.5;8.0;0.25;3.25;0.25;0.25;0.25;0.25;0.25;0.75;0.0;0.25;-0.166992;0.025879;0.99707;-0.14;0.98;0.77;583.0;-0.227635;-0.10844;0.25;0.0;0.0;0.0;0.0;0.0;0.0;0.0;0.0;0.0;0.0;0.0;0.0;0.0;0.25;0.0;-0.334473;0.394043;1.431152;-1.68;-9.52;33.18;6.0;0.0;0.0
1.46;7.5;7.75;6.0;9.0;5.5;8.25;0.25;3.25;0.25;0.0;0.25;0.0;0.25;0.75;0.25;0.25;-0.174316;0.039551;1.00293;0.14;0.7;0.91;587.0;-0.228868;-0.109658;0.25;0.25;0.0;0.0;0.0;0.0;0.0;0.0;0.0;0.0;0.0;0.0;0.0;0.0;0.0;0.0;-0.202148;0.074707;0.989258;8.68;-6.51;6.72;5.0;0.0;0.0
1.47;7.5;7.75;5.75;8.75;5.25;8.25;0.25;3.25;0.0;0.25;0.0;0.25;0.5;0.75;0.0;0.0;-0.165039;0.030273;0.996582;0.28;0.84;0.91;575.0;-0.232736;-0.11449;0.25;0.25;0.0;0.0;0.0;0.0;0.0;0.0;0.0;0.0;0.0;0.0;0.0;0.0;0.0;0.0;-0.204102;0.046875;0.994141;4.83;-2.03;0.84;5.0;0.0;0.0
1.48;7.75;8.0;5.75;9.0;5.0;8.25;0.25;3.5;0.0;0.0;0.0;0.0;0.5;0.25;0.0;0.0;-0.166016;0.02832;0.998535;0.49;1.26;0.91;574.0;-0.243415;-0.119462;0.0;0.25;0.0;0.0;0.0;0.0;0.0;0.0;0.0;0.0;0.0;0.0;0.0;0.0;0.0;0.0;-0.23291;0.036621;0.986328;1.4;-3.57;-0.28;3.0;0.0;0.0
1.49;7.75;7.75;5.75;9.25;5.0;8.25;0.25;3.5;0.25;0.0;0.0;0.0;0.5;0.25;0.25;0.25;-0.169434;0.028809;1.0;0.28;1.19;0.98;582.0;-0.235082;-0.117694;0.25;0.25;0.25;0.25;0.25;0.25;0.0;0.0;0.0;0.0;0.0;0.0;0.0;0.0;0.0;0.0;-0.215332;0.015625;1.007324;0.14;-4.76;-0.7;17.0;0.0;0.0
1.5;7.5;7.5;5.75;9.0;5.0;8.25;0.25;3.25;0.0;0.25;0.25;0.0;0.5;0.5;0.0;0.25;-0.17041;0.026367;1.000488;0.21;1.47;0.91;571.0;-0.233792;-0.116562;0.25;0.25;0.25;0.25;0.25;0.25;0.0;0.0;0.0;0.0;0.0;0.0;0.0;0.25;0.0;0.0;-0.215332;0.001953;0.998535;0.7;-5.39;-0.56;20.0;0.0;0.0
1.51;7.5;8.0;5.75;9.0;4.75;8.25;0.25;3.25;0.0;0.25;0.25;0.0;0.5;0.25;0.0;0.0;-0.175293;0.027344;0.99707;0.07;1.61;0.77;570.0;-0.240162;-0.118625;0.0;0.75;0.25;0.25;0.25;0.25;0.0;0.0;0.0;0.0;0.0;0.0;0.0;0.25;0.0;0.0;-0.199707;0.011719;1.003418;1.47;-5.81;-0.0;22.0;0.0;0.0
1.52;7.75;8.0;5.75;9.0;4.75;8.25;0.25;3.0;0.0;0.0;0.25;0.25;0.5;0.25;0.25;0.25;-0.168945;0.035156;1.000977;0.21;1.82;0.7;573.0;-0.237953;-0.117632;0.0;1.0;0.25;0.25;0.5;0.25;0.0;0.0;0.0;0.0;0.0;0.0;0.0;0.25;0.0;0.0;-0.20752;0.018066;1.014648;1.82;-4.62;0.77;27.0;0.0;0.0
1.53;7.5;7.75;5.75;9.0;4.5;8.0;0.25;3.0;0.25;0.0;0.0;0.25;0.5;0.25;0.0;0.0;-0.164551;0.030273;1.00293;0.07;1.82;0.7;558.0;-0.241486;-0.115854;0.0;1.25;0.5;0.5;0.5;0.5;0.0;0.0;0.0;0.0;0.0;0.0;0.0;0.25;0.0;0.0;-0.202637;0.021484;1.018066;2.38;-3.92;0.98;39.0;0.0;0.0
1.54;7.5;8.0;5.5;8.5;4.25;8.0;0.25;3.0;0.0;0.0;0.0;0.0;0.25;0.25;0.0;0.0;-0.17334;0.036133;1.003906;0.14;1.82;0.77;539.0;-0.249804;-0.11714;0.25;1.25;0.75;0.75;0.75;0.5;0.0;0.25;0.0;0.0;0.0;0.0;0.0;0.0;0.0;0.0;-0.210938;0.013184;1.001465;1.61;-3.57;0.84;53.0;-0.256068;-0.108077
1.55;7.5;8.0;5.5;8.75;4.25;8.0;0.25;3.0;0.0;0.0;0.0;0.0;0.25;0.25;0.25;0.0;-0.171387;0.026855;0.99707;-0.14;2.17;0.63;545.0;-0.246556;-0.117549;0.0;2.0;1.0;1.0;0.75;0.5;0.0;0.25;0.0;0.0;0.0;0.0;0.0;0.0;0.0;0.0;-0.202148;0.024902;0.998535;1.19;-2.73;0.91;63.0;-0.270576;-0.120699
1.56;7.5;7.25;5.5;8.75;4.25;7.75;0.25;2.75;0.0;0.0;0.0;0.25;0.5;0.25;0.25;0.0;-0.172363;0.02832;0.998535;-0.21;2.31;0.63;536.0;-0.242221;-0.116339;0.0;1.75;1.0;1.25;0.75;0.5;0.0;0.25;0.0;0.0;0.0;0.0;0.0;0.25;0.0;0.0;-0.194824;0.018555;0.990234;1.47;-1.54;0.98;66.0;-0.241855;-0.113233
1.57;7.25;7.75;5.25;8.5;4.0;7.5;0.25;2.75;0.0;0.0;0.0;0.25;0.25;0.0;0.0;0.0;-0.166016;0.030762;0.993164;-0.21;2.24;0.63;518.0;-0.252226;-0.1187;0.25;1.75;0.75;1.25;0.75;0.5;0.0;0.25;0.0;0.0;0.0;0.0;0.0;0.25;0.0;0.0;-0.20166;0.023438;0.986328;1.82;-0.28;1.05;66.0;-0.247682;-0.113075
1.58;6.5;8.0;5.25;8.5;3.75;7.5;0.25;2.75;0.0;0.0;0.0;0.0;0.25;0.25;0.0;0.0;-0.163574;0.031738;0.994141;-0.21;2.1;0.42;509.0;-0.250848;-0.121438;0.0;1.75;0.75;1.0;0.75;0.5;0.0;0.25;0.0;0.0;0.0;0.0;0.0;0.25;0.0;0.0;-0.200684;0.025391;0.990234;1.82;-0.07;1.05;60.0;-0.238383;-0.117932
1.59;6.5;7.75;5.0;8.25;3.75;7.25;0.0;2.5;0.0;0.0;0.0;0.0;0.25;0.0;0.0;0.0;-0.166016;0.03125;0.993164;-0.21;1.96;0.49;487.0;-0.25828;-0.123158;0.0;1.75;1.0;0.75;0.75;0.5;0.0;0.25;0.0;0.0;0.0;0.0;0.0;0.25;0.0;0.0;-0.205566;0.023438;0.983398;1.4;-0.14;0.84;60.0;-0.237307;-0.102122
1.6;7.25;7.5;5.0;8.25;3.5;7.0;0.0;2.5;0.0;0.0;0.0;0.0;0.25;0.0;0.0;0.0;-0.166992;0.036133;0.991699;-0.42;1.68;0.42;487.0;-0.261457;-0.119112;0.0;1.75;1.0;1.25;0.75;0.75;0.0;0.25;0.0;0.0;0.0;0.0;0.0;0.25;0.0;0.0;-0.205078;0.023926;0.985352;1.19;-0.42;0.77;69.0;-0.238004;-0.120093
1.61;7.25;7.75;5.0;8.25;3.5;7.0;0.25;2.5;0.0;0.0;0.0;0.0;0.25;0.0;0.0;0.0;-0.164551;0.025391;0.989258;-0.63;1.47;0.21;493.0;-0.259397;-0.116334;0.25;1.75;0.75;1.0;0.75;0.75;0.0;0.25;0.0;0.0;0.0;0.0;0.0;0.25;0.0;0.0;-0.206543;0.023438;0.983887;0.77;-0.77;0.63;66.0;-0.241569;-0.115198
1.62;7.0;7.5;5.0;8.25;3.5;7.25;0.25;2.5;0.0;0.0;0.0;0.0;0.25;0.25;0.0;0.0;-0.166504;0.033203;0.989746;-0.63;1.26;0.07;493.0;-0.253961;-0.116932;0.0;1.75;0.75;1.0;0.75;0.75;0.0;0.25;0.0;0.0;0.0;0.0;0.0;0.5;0.0;0.0;-0.209473;0.024414;0.985352;0.7;-0.98;0.7;66.0;-0.211401;-0.114495
1.63;6.5;7.25;5.25;8.25;3.5;7.0;0.25;2.5;0.0;0.0;0.0;0.0;0.25;0.25;0.0;0.25;-0.164551;0.032227;0.986328;-0.84;1.12;0.0;487.0;-0.250205;-0.117653;0.0;2.25;1.0;1.25;0.75;1.0;0.0;0.25;0.0;0.0;0.0;0.0;0.0;0.5;0.0;0.0;-0.211914;0.023438;0.986328;0.35;-1.33;0.77;80.0;-0.227134;-0.120038
1.64;6.5;7.25;5.25;8.25;3.75;6.5;0.25;2.5;0.0;0.0;0.0;0.0;0.25;0.25;0.0;0.25;-0.166504;0.030762;1.003418;-0.98;0.84;-0.07;484.0;-0.250636;-0.114634;0.0;2.0;1.0;1.25;0.75;1.25;0.0;0.25;0.0;0.0;0.0;0.0;0.0;0.5;0.0;0.0;-0.207031;0.026367;0.98877;0.14;-1.47;0.91;80.0;-0.218381;-0.124267
1.65;6.5;7.25;5.0;8.25;3.5;6.5;0.25;2.5;0.0;0.0;0.0;0.0;0.25;0.25;0.0;0.25;-0.17334;0.023926;0.995117;-1.26;0.84;-0.14;478.0;-0.251328;-0.117041;0.0;1.75;0.75;1.25;1.0;1.0;0.0;0.25;0.0;0.0;0.0;0.0;0.0;0.75;0.0;0.0;-0.200684;0.025879;0.984375;-0.21;-1.54;0.98;77.0;-0.189855;-0.109242
1.66;6.5;6.75;5.0;8.25;3.75;7.0;0.25;2.75;0.0;0.0;0.0;0.0;0.25;0.25;0.0;0.0;-0.172363;0.028809;1.000488;-1.33;0.91;-0.21;484.0;-0.247426;-0.119101;0.0;2.25;0.75;1.5;0.75;1.0;0.0;0.25;0.0;0.0;0.0;0.0;0.0;0.5;0.0;0.0;-0.200684;0.027832;0.976562;-0.35;-1.61;0.84;80.0;-0.227942;-0.132022
1.67;6.25;6.75;5.0;8.0;3.75;6.25;0.25;2.5;0.0;0.0;0.0;0.25;0.25;0.25;0.0;0.25;-0.166992;0.02832;0.991211;-1.33;0.63;-0.07;470.0;-0.245406;-0.116154;0.0;2.25;1.0;1.5;1.0;1.5;0.0;0.25;0.0;0.0;0.0;0.0;0.0;0.25;0.0;0.0;-0.208008;0.026367;0.984863;-0.28;-1.4;0.84;89.0;-0.237392;-0.135404
1.68;6.0;6.5;5.0;7.75;3.75;6.5;0.25;2.5;0.0;0.0;0.0;0.0;0.25;0.25;0.0;0.0;-0.171387;0.029297;1.0;-1.33;0.63;-0.21;460.0;-0.247417;-0.115811;0.25;2.0;1.0;1.5;1.0;1.25;0.0;0.5;0.0;0.0;0.0;0.0;0.0;0.25;0.0;0.0;-0.20459;0.026367;0.986328;-0.42;-1.19;0.77;91.0;-0.230048;-0.134193
1.69;6.25;6.0;5.0;7.25;3.75;6.0;0.0;2.5;0.0;0.0;0.0;0.0;0.25;0.25;0.0;0.0;-0.169434;0.031738;1.000488;-1.4;0.7;-0.21;442.0;-0.250276;-0.113542;0.25;2.25;1.0;1.5;1.0;1.5;0.0;0.25;0.0;0.0;0.0;0.0;0.0;0.25;0.0;0.0;-0.20752;0.024902;0.989746;-0.28;-1.05;0.77;92.0;-0.242493;-0.127897
1.7;6.0;6.0;5.0;7.25;4.0;6.0;0.0;2.5;0.0;0.0;0.0;0.25;0.25;0.0;0.0;0.0;-0.171387;0.033691;1.0;-1.4;0.56;-0.14;443.0;-0.248936;-0.11649;0.0;2.25;0.75;1.75;1.0;1.25;0.0;0.25;0.0;0.0;0.0;0.0;0.0;0.25;0.0;0.0;-0.208008;0.030762;0.987793;-0.21;-1.19;0.84;86.0;-0.241084;-0.141727
1.71;5.75;6.0;5.25;7.25;4.0;6.0;0.25;2.5;0.0;0.0;0.0;0.25;0.25;0.25;0.0;0.0;-0.17334;0.027344;1.000488;-1.4;0.49;-0.21;449.0;-0.241639;-0.1117;0.0;1.75;1.25;1.75;1.0;1.5;0.0;0.5;0.0;0.0;0.0;0.0;0.0;0.5;0.0;0.0;-0.207031;0.025879;0.984863;-0.0;-1.05;0.77;97.0;-0.205191;-0.133013
1.72;5.75;5.75;5.0;7.0;4.25;6.0;0.25;2.25;0.0;0.0;0.0;0.0;0.25;0.5;0.25;0.25;-0.168945;0.031738;0.993164;-1.54;0.56;-0.28;443.0;-0.234828;-0.105978;0.0;2.25;1.25;1.75;1.0;1.5;0.0;0.5;0.0;0.0;0.0;0.0;0.0;0.5;0.0;0.0;-0.202148;0.027344;0.989258;-0.0;-0.98;0.77;102.0;-0.215669;-0.134656
1.73;6.0;5.5;5.0;7.0;4.25;6.25;0.25;2.5;0.0;0.0;0.0;0.0;0.5;0.75;0.0;0.0;-0.165527;0.027344;1.0;-1.54;0.56;-0.42;451.0;-0.232866;-0.107901;0.25;2.25;1.25;1.75;1.0;1.75;0.0;0.5;0.0;0.0;0.0;0.0;0.0;0.5;0.0;0.0;-0.203125;0.023438;0.980957;0.28;-0.84;0.84;108.0;-0.218851;-0.132075
1.74;5.5;5.0;5.0;6.75;4.25;6.0;0.25;2.5;0.25;0.0;0.0;0.0;0.5;1.0;0.0;0.0;-0.169922;0.024414;0.998047;-1.4;0.77;-0.49;440.0;-0.221365;-0.103497;0.25;2.25;1.25;1.75;1.0;1.75;0.0;0.5;0.0;0.0;0.0;0.0;0.25;0.5;0.0;0.0;-0.204102;0.02832;0.991699;0.35;-0.7;0.77;110.0;-0.210531;-0.139139
1.75;5.0;4.75;4.75;6.5;4.25;6.0;0.25;3.0;0.25;0.25;0.0;0.25;0.75;1.0;0.25;0.25;-0.174805;0.032227;0.996094;-1.05;1.05;-0.35;447.0;-0.199579;-0.114328;0.25;1.75;1.0;1.75;1.0;1.5;0.0;0.5;0.0;0.0;0.0;0.0;0.25;1.0;0.0;0.0;-0.204102;0.024414;0.990723;0.49;-0.63;0.84;103.0;-0.172579;-0.126497
1.76;4.75;4.25;4.75;6.5;4.25;5.75;0.25;3.0;0.0;0.0;0.0;0.25;0.75;1.0;0.25;0.25;-0.170898;0.02832;1.0;-0.91;1.33;-0.21;429.0;-0.202726;-0.118507;0.25;1.75;1.25;1.5;1.0;2.0;0.0;0.75;0.0;0.0;0.0;0.0;0.0;0.75;0.0;0.0;-0.202637;0.022949;0.981934;0.56;-0.77;0.91;109.0;-0.184642;-0.135116
1.77;4.75;4.25;5.0;6.5;4.25;5.75;0.25;2.75;0.25;0.0;0.0;0.25;0.75;1.0;0.0;0.25;-0.172363;0.025391;0.996582;-0.77;1.54;-0.14;429.0;-0.205271;-0.111346;0.25;1.75;1.25;1.75;1.0;2.0;0.0;0.75;0.0;0.0;0.0;0.0;0.0;0.75;0.25;0.0;-0.207031;0.027344;0.987793;0.42;-1.05;0.98;115.0;-0.172542;-0.13614
1.78;4.5;4.0;4.25;6.25;4.25;5.75;0.25;3.0;0.25;0.0;0.0;0.25;0.75;1.25;0.25;0.25;-0.170898;0.025879;0.994141;-0.77;1.54;-0.07;421.0;-0.19129;-0.117032;0.25;1.75;1.25;1.75;1.0;2.25;0.0;0.75;0.0;0.0;0.0;0.0;0.25;1.0;0.0;0.0;-0.208496;0.021973;0.986816;0.42;-1.12;0.91;120.0;-0.167851;-0.141154
1.79;4.25;3.25;4.0;6.0;4.0;5.75;0.25;2.75;0.25;0.25;0.25;0.25;0.75;1.25;0.25;0.0;-0.172852;0.029297;0.998047;-0.91;1.75;-0.07;402.0;-0.182628;-0.114932;0.25;2.0;1.25;1.75;1.25;2.25;0.0;1.0;0.0;0.0;0.0;0.0;0.0;1.0;0.0;0.0;-0.203613;0.032715;0.981934;0.49;-1.19;0.77;127.0;-0.17294;-0.13914
1.8;4.0;3.0;3.5;5.5;3.75;5.25;0.25;2.5;0.0;0.25;0.25;0.25;0.75;1.25;0.25;0.0;-0.173828;0.035645;1.00293;-0.91;1.96;-0.07;367.0;-0.183399;-0.117432;0.25;2.25;1.25;1.75;1.25;2.5;0.0;1.0;0.0;0.0;0.0;0.0;0.25;1.25;0.0;0.0;-0.20752;0.030273;0.984375;0.35;-1.33;0.77;137.0;-0.161173;-0.142716
1.81;3.75;3.0;3.75;5.25;3.75;5.25;0.25;2.75;0.0;0.25;0.25;0.25;0.75;1.25;0.0;0.0;-0.172363;0.02832;1.0;-0.98;2.1;0.0;366.0;-0.184213;-0.119975;0.25;2.0;1.25;1.75;1.5;2.25;0.0;1.0;0.0;0.0;0.0;0.0;0.0;1.5;0.0;0.0;-0.20459;0.027344;0.985352;0.28;-1.47;0.84;135.0;-0.151672;-0.123741
1.82;3.5;2.5;3.75;5.0;3.75;5.25;0.25;2.5;0.0;0.25;0.25;0.25;0.75;1.25;0.0;0.0;-0.175781;0.020508;1.0;-0.98;2.1;0.0;351.0;-0.180265;-0.117035;0.25;2.25;1.25;2.25;1.75;2.75;0.0;1.0;0.0;0.0;0.0;0.0;0.0;1.75;0.0;0.0;-0.200684;0.022949;0.979004;0.28;-1.82;0.84;154.0;-0.152297;-0.125983
1.83;3.0;2.25;3.25;4.5;3.75;5.25;0.25;2.5;0.25;0.25;0.0;0.25;0.75;1.25;0.25;0.25;-0.173828;0.024902;0.995117;-1.12;2.24;0.0;336.0;-0.162672;-0.118704;0.25;2.25;1.5;1.75;1.75;3.0;0.0;1.25;0.0;0.0;0.0;0.0;0.25;2.5;0.0;0.0;-0.20752;0.024414;0.98291;0.35;-2.03;0.91;168.0;-0.118094;-0.119847
1.84;3.0;2.25;3.25;4.5;3.5;4.75;0.25;2.5;0.0;0.0;0.0;0.25;0.75;2.0;0.25;0.25;-0.174316;0.022949;0.995117;-0.91;2.38;0.07;327.0;-0.159044;-0.117127;0.25;2.25;1.5;2.25;2.0;3.5;0.0;1.25;0.0;0.0;0.0;0.0;0.25;2.75;0.0;0.0;-0.199219;0.021973;0.982422;0.56;-2.38;1.05;185.0;-0.118139;-0.121502
1.85;3.0;2.25;3.25;4.0;2.75;4.25;0.0;2.25;0.0;0.0;0.0;0.25;0.5;2.0;0.0;0.25;-0.17334;0.024414;0.996094;-0.98;2.59;0.14;293.0;-0.171228;-0.115965;0.25;2.25;1.5;2.5;2.25;3.5;0.0;1.5;0.0;0.0;0.0;0.0;0.25;2.75;0.25;0.0;-0.206055;0.029297;0.983398;0.77;-2.31;1.05;198.0;-0.110979;-0.12541
1.86;2.75;2.25;3.0;3.5;2.75;4.0;0.0;2.25;0.25;0.0;0.0;0.25;0.5;2.0;0.0;0.25;-0.172363;0.027832;0.996094;-1.05;2.59;0.28;282.0;-0.16017;-0.111513;0.25;2.75;1.5;2.75;2.5;3.75;0.0;1.75;0.0;0.25;0.0;0.0;0.25;3.5;0.25;0.0;-0.202148;0.031738;0.985352;0.91;-1.96;1.12;226.0;-0.098501;-0.120293
1.87;2.5;2.0;3.0;3.25;2.5;4.0;0.0;1.75;0.25;0.0;0.0;0.25;0.5;1.75;0.25;0.25;-0.171875;0.026367;0.999023;-0.98;2.66;0.42;262.0;-0.157587;-0.107388;0.25;2.25;1.5;2.25;2.75;4.25;0.0;2.0;0.0;0.0;0.0;0.25;0.25;3.75;0.0;0.25;-0.202637;0.03125;0.983887;0.98;-1.96;1.12;229.0;-0.08527;-0.126255
1.88;2.5;1.75;2.75;3.25;2.25;4.0;0.0;1.75;0.0;0.25;0.0;0.25;0.5;2.25;0.25;0.0;-0.178711;0.030273;0.997559;-1.05;2.87;0.35;256.0;-0.148161;-0.1082;0.0;2.25;1.75;2.5;2.75;4.5;0.0;2.25;0.25;0.0;0.0;0.25;0.5;4.5;0.25;0.25;-0.20459;0.029297;0.990234;1.12;-1.75;1.12;255.0;-0.059609;-0.122181
1.89;2.5;1.75;2.75;3.0;2.25;3.5;0.0;1.75;0.0;0.0;0.0;0.25;0.25;2.0;0.25;0.0;-0.174316;0.024902;0.991699;-1.05;2.94;0.21;240.0;-0.159468;-0.103992;0.0;2.25;1.5;2.5;2.75;4.75;0.0;2.5;0.25;0.0;0.0;0.25;0.5;5.0;0.25;0.25;-0.211914;0.030273;0.989258;1.12;-1.75;1.19;264.0;-0.049221;-0.125302
1.9;2.25;1.5;2.75;2.75;2.0;3.5;0.25;1.75;0.25;0.25;0.0;0.25;0.25;1.75;0.0;0.0;-0.177734;0.027344;0.995605;-1.12;3.22;0.28;234.0;-0.149733;-0.095603;0.0;2.25;1.5;2.5;2.75;4.75;0.0;2.75;0.25;0.0;0.0;0.25;0.5;5.25;0.5;0.25;-0.202148;0.033203;0.988281;0.98;-1.4;1.12;273.0;-0.039943;-0.126337
1.91;1.5;1.5;2.5;2.75;2.0;3.25;0.0;1.25;0.0;0.0;0.0;0.25;0.25;2.0;0.0;0.0;-0.174805;0.026855;0.995605;-1.26;3.5;0.0;203.0;-0.153851;-0.104673;0.0;2.25;1.5;2.5;2.75;5.0;0.0;3.25;0.25;0.0;0.25;0.25;0.75;5.75;0.75;0.25;-0.203613;0.033203;0.987793;0.77;-1.26;1.12;297.0;-0.024692;-0.132622
1.92;1.5;1.0;2.25;2.25;1.75;3.0;0.0;1.25;0.0;0.0;0.25;0.25;0.25;2.0;0.25;0.0;-0.175781;0.02832;0.993164;-1.33;3.5;0.0;189.0;-0.126946;-0.10216;0.25;2.25;1.75;2.5;2.75;5.25;0.0;3.25;0.25;0.0;0.25;0.25;1.0;6.25;0.75;0.25;-0.203125;0.033691;0.992676;0.56;-1.4;0.91;313.0;-0.023722;-0.127487
1.93;1.5;0.75;2.0;1.75;1.5;2.5;0.0;1.0;0.25;0.25;0.0;0.25;0.25;2.0;0.25;0.25;-0.17627;0.024902;0.994629;-1.19;3.57;0.14;169.0;-0.103785;-0.080906;0.25;2.25;1.5;2.5;3.0;5.25;0.0;3.5;0.5;0.0;0.25;0.25;1.0;7.25;1.0;0.25;-0.20459;0.029785;0.985352;0.42;-1.68;0.77;333.0;-0.003387;-0.117865
1.94;1.0;0.5;1.75;1.5;1.5;2.25;0.0;1.0;0.0;0.25;0.0;0.25;0.25;2.25;0.25;0.25;-0.17627;0.024902;1.004395;-1.12;4.41;0.14;150.0;-0.079972;-0.087855;0.25;2.25;1.5;2.5;3.25;5.75;0.0;3.5;0.25;0.25;0.25;0.5;1.25;7.75;0.75;0.5;-0.206055;0.029297;0.987305;0.42;-2.38;0.91;350.0;-0.001038;-0.122473
1.95;0.75;0.5;1.5;1.25;1.25;2.0;0.0;1.0;0.0;0.0;0.0;0.0;0.25;2.25;0.25;0.25;-0.180664;0.026367;1.0;-0.98;5.11;0.28;130.0;-0.07449;-0.091059;0.25;2.0;1.5;2.5;3.25;6.0;0.0;4.0;0.25;0.25;0.25;0.75;1.5;8.25;0.5;0.5;-0.202148;0.032227;0.985352;0.35;-2.66;0.98;366.0;0.005138;-0.129584
1.96;0.5;0.25;1.0;1.0;1.0;1.25;0.0;0.75;0.0;0.0;0.0;0.0;0.25;2.0;0.0;0.25;-0.182617;0.027344;1.0;-1.05;6.37;0.35;94.0;-0.056744;-0.083693;0.5;2.0;1.75;2.75;3.75;6.25;0.0;4.25;0.25;0.25;0.25;0.25;1.75;8.5;0.75;0.75;-0.208008;0.033691;0.986816;0.28;-3.08;0.98;391.0;-0.000841;-0.125915
1.97;0.25;0.25;0.75;0.75;1.0;1.0;0.0;0.25;0.25;0.0;0.0;0.0;0.25;1.75;0.25;0.0;-0.188477;0.029297;1.00293;-1.26;7.49;0.21;77.0;-0.018005;-0.038017;0.5;2.25;2.0;2.75;4.25;6.25;0.25;4.25;0.5;0.25;0.25;0.25;1.75;8.75;0.75;0.75;-0.210938;0.030273;0.99707;0.07;-3.15;1.05;412.0;-0.001779;-0.112985
1.98;0.25;0.25;0.75;0.25;0.25;0.5;0.0;0.25;0.25;0.0;0.0;0.0;0.25;2.0;0.25;0.0;-0.180664;0.028809;1.003906;-1.61;8.61;0.35;58.0;0.05756;-0.001367;0.5;2.25;2.0;3.0;4.0;6.5;0.25;4.25;0.5;0.25;0.5;0.75;1.75;9.0;0.75;0.75;-0.206055;0.036621;0.986328;-0.07;-2.94;0.91;426.0;0.002651;-0.117018
1.99;0.25;0.0;0.25;0.25;0.25;0.25;0.0;0.25;0.25;0.0;0.0;0.25;0.0;1.75;0.25;0.0;-0.181152;0.032715;0.999512;-2.17;9.31;0.21;45.0;0.0;0.0;0.5;2.25;2.0;3.0;4.5;6.75;0.25;4.25;0.75;0.25;0.25;0.75;2.0;9.25;1.0;0.75;-0.202637;0.029785;0.98877;0.07;-2.66;0.77;444.0;0.006139;-0.112565
2.0;0.0;0.0;0.25;0.25;0.0;0.25;0.0;0.25;0.25;0.0;0.0;0.0;0.0;1.5;0.25;0.0;-0.190918;0.025391;0.995117;-3.5;9.8;0.0;34.0;0.0;0.0;0.5;2.25;2.0;3.25;4.5;6.5;0.25;4.75;0.75;0.25;0.25;0.75;2.0;9.75;1.0;0.75;-0.20166;0.032715;0.989746;0.21;-2.66;0.91;457.0;0.009042;-0.1144
2.01;0.25;0.0;0.25;0.25;0.25;0.25;0.0;0.0;0.0;0.0;0.0;0.0;0.0;1.75;0.0;0.0;-0.194336;0.026855;1.007812;-4.06;10.22;-0.14;31.0;0.0;0.0;0.5;2.25;2.0;3.5;4.5;7.0;0.25;4.75;0.5;0.25;0.5;1.0;2.25;9.5;1.0;0.75;-0.20752;0.030273;0.98291;0.35;-2.73;1.05;468.0;0.004556;-0.124419
2.02;0.25;0.0;0.0;0.25;0.25;0.25;0.0;0.0;0.25;0.0;0.0;0.0;0.0;1.25;0.0;0.0;-0.187988;0.029297;1.013184;-4.48;10.29;-0.28;27.0;0.0;0.0;0.5;2.25;2.25;3.5;4.75;7.25;0.25;4.75;1.0;0.25;0.5;1.0;2.25;9.75;1.0;0.75;-0.206543;0.030273;0.986816;0.77;-2.94;1.26;486.0;0.006754;-0.115532
2.03;0.0;0.0;0.0;0.25;0.0;0.25;0.0;0.0;0.25;0.0;0.0;0.0;0.0;1.0;0.0;0.0;-0.195801;0.028809;1.014648;-4.34;9.73;-0.49;19.0;0.0;0.0;0.75;2.0;2.25;3.0;5.0;7.75;0.25;5.25;1.25;0.25;0.5;1.0;2.5;9.75;1.0;1.0;-0.20459;0.033203;0.996582;0.98;-3.01;1.4;505.0;0.010655;-0.117515
2.04;0.0;0.0;0.25;0.25;0.0;0.0;0.0;0.0;0.25;0.0;0.0;0.0;0.0;0.5;0.0;0.0;-0.20166;0.034668;1.021973;-4.13;8.96;-0.21;14.0;0.0;0.0;0.25;2.25;2.25;3.0;5.0;7.75;0.25;5.5;1.25;0.5;0.75;1.0;2.5;9.75;1.0;1.0;-0.209473;0.035156;0.987793;0.98;-3.22;1.4;512.0;0.015418;-0.121471
2.05;0.25;0.0;0.0;0.0;0.0;0.25;0.0;0.0;0.0;0.0;0.0;0.0;0.0;0.25;0.0;0.0;-0.226074;0.04248;1.037109;-4.69;4.2;-0.56;8.0;0.0;0.0;0.25;2.75;2.25;3.75;5.0;8.25;0.25;5.5;1.25;0.5;0.75;1.25;2.75;9.5;1.0;1.0;-0.199707;0.040527;0.992188;0.91;-3.43;1.33;535.0;0.004379;-0.129048
2.06;0.25;0.0;0.25;0.0;0.0;0.25;0.0;0.0;0.0;0.0;0.0;0.0;0.0;0.0;0.0;0.0;-0.273926;0.132324;1.045898;-6.3;-1.82;-1.75;9.0;0.0;0.0;0.25;2.5;2.25;3.75;5.5;8.75;0.25;5.5;1.25;0.5;0.75;1.25;2.75;9.5;1.0;1.0;-0.20166;0.035645;0.992188;0.77;-3.64;1.19;544.0;0.003187;-0.12835
2.07;0.0;0.0;0.25;0.0;0.0;0.0;0.0;0.0;0.0;0.0;0.0;0.0;0.0;0.0;0.0;0.0;-0.33252;0.237305;1.030273;-12.04;-16.870001;-6.16;3.0;0.0;0.0;0.25;2.75;2.5;4.25;5.5;8.75;0.25;5.5;1.25;0.75;0.5;1.0;3.0;9.25;1.0;1.0;-0.200684;0.036621;0.996582;0.7;-3.43;0.91;553.0;-0.005371;-0.129279
2.08;0.0;0.0;0.25;0.0;0.0;0.0;0.0;0.0;0.0;0.0;0.0;0.0;0.0;0.0;0.0;0.0;-0.296387;0.511719;0.933594;-13.09;-20.719999;0.49;3.0;0.0;0.0;0.25;3.25;2.75;4.25;5.5;9.0;0.25;5.5;1.25;0.5;0.5;1.25;3.5;9.5;1.5;1.0;-0.203613;0.040039;0.995117;0.56;-3.22;0.84;577.0;-0.004026;-0.131978
2.09;0.0;0.0;0.0;0.25;0.0;0.0;0.0;0.0;0.0;0.0;0.0;0.0;0.0;0.0;0.0;0.0;-0.271973;0.480957;1.003418;-15.61;-16.870001;15.75;3.0;0.0;0.0;0.25;3.25;2.5;4.5;5.75;9.0;0.25;5.75;1.0;0.25;0.75;1.25;3.5;9.75;1.75;1.0;-0.19873;0.035645;0.993652;0.42;-2.59;0.7;586.0;-0.00278;-0.136347
2.1;0.0;0.0;0.25;0.25;0.0;0.0;0.0;0.0;0.0;0.0;0.0;0.0;0.0;0.0;0.0;0.0;-0.235352;0.402344;1.024902;-17.99;-17.639999;32.549999;6.0;0.0;0.0;0.25;3.0;2.5;4.25;5.75;9.0;0.25;6.25;1.0;0.25;0.75;1.25;3.5;9.25;1.5;1.25;-0.200684;0.035156;0.993164;0.42;-2.1;0.77;582.0;-0.004071;-0.142634
2.11;0.0;0.0;0.25;0.0;0.0;0.25;0.0;0.0;0.0;0.0;0.0;0.0;0.0;0.0;0.0;0.0;-0.188965;0.15332;1.133301;-12.04;-15.75;44.170002;6.0;0.0;0.0;0.25;3.25;2.5;4.5;5.75;9.0;0.25;5.75;1.0;0.5;0.75;1.25;3.5;9.25;1.25;1.25;-0.200684;0.039062;0.990234;0.56;-1.82;0.84;580.0;-0.008051;-0.138868
2.12;0.0;0.0;0.25;0.0;0.0;0.25;0.0;0.0;0.0;0.0;0.0;0.0;0.0;0.0;0.0;0.0;-0.050293;-0.08252;0.863281;2.45;-14.7;42.0;6.0;0.0;0.0;0.25;3.25;2.5;4.5;5.75;9.0;0.25;5.75;1.0;0.5;0.75;1.25;3.5;9.5;1.25;1.0;-0.200684;0.034668;0.998535;0.63;-1.4;0.91;580.0;-0.007307;-0.137157
2.13;0.0;0.0;0.0;0.0;0.0;0.0;0.0;0.0;0.0;0.0;0.0;0.0;0.0;0.0;0.0;0.0;-0.057617;-0.166016;0.849609;15.75;-12.67;16.309999;0.0;0.0;0.0;0.5;3.0;2.5;4.5;5.5;9.0;0.25;5.75;1.0;0.25;0.5;1.25;3.5;9.25;1.5;1.0;-0.203613;0.038574;0.996582;0.56;-1.19;0.77;572.0;-0.008864;-0.138959
2.14;0.0;0.0;0.0;0.0;0.0;0.0;0.0;0.0;0.0;0.0;0.0;0.0;0.0;0.0;0.0;0.0;-0.041992;-0.094727;0.910156;18.83;-10.64;1.96;0.0;0.0;0.0;0.5;3.0;2.5;4.5;5.5;9.0;0.25;6.25;1.25;0.25;0.5;1.25;3.5;9.5;1.25;1.25;-0.20166;0.040527;0.990723;0.49;-0.84;0.7;585.0;-0.006727;-0.139495
2.15;0.0;0.0;0.0;0.0;0.0;0.0;0.0;0.0;0.0;0.0;0.0;0.0;0.0;0.0;0.0;0.0;-0.012207;0.021973;0.95752;14.91;-11.34;-2.59;0.0;0.0;0.0;0.5;3.0;2.5;4.25;5.5;9.0;0.25;6.25;1.25;0.5;0.75;1.5;3.75;9.5;1.5;1.25;-0.19873;0.040039;0.990723;0.21;-0.77;0.49;596.0;0.000708;-0.139733
2.16;0.0;0.0;0.0;0.0;0.0;0.0;0.0;0.0;0.0;0.0;0.0;0.0;0.0;0.0;0.0;0.0;-0.093262;0.022461;0.979492;-0.56;-10.57;1.89;0.0;0.0;0.0;0.5;3.25;2.5;4.25;5.25;9.0;0.25;6.25;1.0;0.25;0.5;1.75;3.75;9.0;1.5;1.25;-0.200195;0.037598;0.994629;0.14;-0.56;0.56;585.0;-0.006527;-0.147804
2.17;0.0;0.0;0.0;0.0;0.0;0.25;0.0;0.0;0.0;0.0;0.0;0.0;0.0;0.0;0.0;0.0;-0.083008;0.046875;0.850098;-20.440001;-7.0;12.32;3.0;0.0;0.0;0.25;3.0;2.5;4.25;4.75;9.0;0.25;5.75;0.75;0.25;0.5;1.25;3.75;9.25;1.5;1.25;-0.198242;0.035645;0.991211;0.07;-0.21;0.42;558.0;-0.003458;-0.147459
2.18;0.0;0.0;0.25;0.25;0.0;0.0;0.0;0.0;0.0;0.0;0.0;0.0;0.0;0.0;0.0;0.0;-0.123047;0.18457;0.668945;-4.9;7.84;26.25;6.0;0.0;0.0;0.25;2.75;2.25;4.25;4.75;8.75;0.0;6.25;0.75;0.5;0.75;1.0;3.75;9.25;1.5;1.25;-0.197754;0.03418;0.994629;-0.14;0.0;0.42;556.0;0.001223;-0.152538
2.19;0.0;0.0;0.25;0.25;0.0;0.0;0.0;0.0;0.0;0.0;0.0;0.0;0.0;0.0;0.0;0.0;-0.205078;-0.38623;0.953613;-29.75;31.360001;32.41;6.0;0.0;0.0;0.25;2.75;2.25;4.25;4.75;9.0;0.0;6.25;0.75;0.5;0.5;1.25;3.75;9.25;1.75;1.25;-0.200684;0.04248;0.994629;-0.28;0.07;0.42;562.0;0.0024;-0.153734
2.2;0.0;0.0;0.0;0.0;0.0;0.0;0.0;0.0;0.0;0.0;0.0;0.0;0.0;0.0;0.0;0.0;-0.131348;-0.553711;1.02002;-4.69;29.049999;33.25;0.0;0.0;0.0;0.25;2.5;2.25;4.25;4.75;9.0;0.25;5.75;0.75;0.25;0.75;1.25;3.75;9.0;1.5;1.5;-0.202148;0.041504;0.992676;-0.42;0.14;0.28;552.0;0.002177;-0.150246
2.21;0.0;0.0;0.25;0.25;0.0;0.0;0.0;0.0;0.0;0.0;0.0;0.0;0.0;0.0;0.0;0.0;-0.23877;-0.558105;1.188477;-1.19;14.77;16.379999;6.0;0.0;0.0;0.25;2.75;2.25;4.0;4.75;8.5;0.0;5.75;1.25;0.5;0.75;1.25;3.75;9.25;1.5;1.5;-0.203613;0.04248;0.987793;-0.7;0.14;0.28;554.0;0.009146;-0.143558
2.22;0.0;0.0;0.25;0.25;0.0;0.0;0.0;0.0;0.0;0.0;0.0;0.0;0.0;0.0;0.0;0.0;-0.185547;0.067383;1.036133;-1.26;9.45;-1.82;6.0;0.0;0.0;0.25;2.5;2.0;4.0;4.75;8.5;0.0;5.75;1.0;0.5;0.5;1.25;3.75;9.25;1.5;1.5;-0.205078;0.041504;0.992188;-0.98;0.0;0.28;542.0;0.009897;-0.14767
2.23;0.0;0.0;0.0;0.25;0.0;0.0;0.0;0.0;0.0;0.0;0.0;0.0;0.0;0.0;0.0;0.0;-0.203613;0.043945;1.008789;-0.21;10.78;-0.35;3.0;0.0;0.0;0.25;2.75;2.0;3.75;4.75;8.5;0.25;5.75;0.75;0.25;0.5;1.25;3.75;9.25;1.5;1.25;-0.198242;0.037598;0.993164;-1.12;0.0;0.21;537.0;0.006272;-0.147806
2.24;0.0;0.0;0.0;0.25;0.0;0.0;0.0;0.0;0.0;0.0;0.0;0.0;0.0;0.0;0.0;0.0;-0.190918;0.033691;1.018066;0.77;7.98;1.89;3.0;0.0;0.0;0.5;2.5;2.0;3.75;4.75;8.5;0.25;5.5;0.75;0.25;0.75;1.25;3.5;9.5;1.75;1.0;-0.201172;0.038086;0.988281;-1.19;0.07;0.21;538.0;0.009618;-0.140727
2.25;0.0;0.0;0.0;0.25;0.0;0.25;0.0;0.0;0.0;0.0;0.0;0.0;0.0;0.0;0.0;0.0;-0.173828;0.012207;0.996094;1.33;6.86;0.28;6.0;0.0;0.0;0.75;1.75;2.25;3.75;4.75;7.75;0.25;5.5;0.75;0.25;0.75;1.25;3.5;8.75;1.75;1.0;-0.206543;0.038574;0.990723;-1.26;0.14;0.21;520.0;0.009333;-0.139645
2.26;0.25;0.0;0.25;0.25;0.25;0.0;0.0;0.0;0.0;0.0;0.0;0.0;0.0;0.0;0.0;0.0;-0.181152;0.026855;1.011719;2.1;5.6;-0.63;12.0;0.0;0.0;0.75;2.25;2.0;3.75;4.5;7.75;0.0;5.5;0.75;0.5;0.75;1.25;3.5;9.0;1.25;1.0;-0.200684;0.038574;0.989746;-1.4;0.14;0.07;514.0;0.005663;-0.143578
2.27;0.0;0.0;0.25;0.25;0.0;0.0;0.0;0.0;0.0;0.0;0.0;0.0;0.0;0.0;0.0;0.0;-0.185547;0.022949;1.002441;2.52;3.57;-0.35;6.0;0.0;0.0;0.75;2.5;2.0;3.75;4.5;7.5;0.25;5.5;0.75;0.5;0.75;1.25;3.5;8.75;1.0;1.0;-0.199219;0.035645;0.998047;-1.26;0.14;0.21;513.0;0.001015;-0.141635
2.28;0.0;0.0;0.25;0.25;0.0;0.25;0.0;0.0;0.0;0.0;0.0;0.0;0.0;0.0;0.0;0.0;-0.190918;0.022461;1.008789;3.29;3.22;-0.28;9.0;0.0;0.0;0.5;2.25;2.25;3.75;4.5;7.75;0.25;5.5;0.75;0.5;0.75;1.25;3.5;8.75;1.5;1.25;-0.200195;0.032227;0.992676;-1.12;0.0;0.35;521.0;0.008292;-0.142108
2.29;0.0;0.0;0.25;0.25;0.25;0.0;0.0;0.0;0.0;0.0;0.0;0.0;0.0;0.0;0.0;0.0;-0.192383;0.017578;1.00293;3.92;3.15;-0.14;9.0;0.0;0.0;0.5;2.25;2.0;3.75;4.75;8.25;0.0;5.5;0.75;0.5;0.75;1.5;3.0;8.75;1.25;1.0;-0.20459;0.038574;0.989746;-1.05;-0.07;0.42;516.0;0.003127;-0.144649
2.3;0.25;0.0;0.25;0.25;0.25;0.0;0.0;0.0;0.0;0.0;0.0;0.0;0.0;0.25;0.0;0.0;-0.187012;0.014648;1.005371;4.13;2.87;0.14;14.0;0.0;0.0;0.25;2.25;1.75;3.75;4.5;8.25;0.0;5.5;0.75;0.5;0.75;1.5;3.0;8.5;1.25;1.0;-0.202637;0.034668;0.987305;-0.91;-0.07;0.35;505.0;0.005904;-0.150184
2.31;0.25;0.0;0.25;0.5;0.25;0.25;0.0;0.0;0.0;0.0;0.0;0.0;0.0;0.0;0.0;0.0;-0.186035;0.027832;1.015137;3.64;0.49;0.21;18.0;0.0;0.0;0.25;2.25;1.75;3.75;4.5;7.75;0.0;5.5;0.75;0.5;0.75;1.25;3.5;8.5;1.5;1.0;-0.199219;0.03418;0.994629;-0.84;-0.21;0.42;504.0;0.010431;-0.150431
2.32;0.25;0.25;0.5;0.5;0.25;0.25;0.0;0.25;0.0;0.0;0.0;0.0;0.0;0.0;0.0;0.0;-0.185547;0.024414;1.001953;2.94;-1.68;0.35;28.0;0.0;0.0;0.5;2.25;2.0;3.75;4.0;7.75;0.0;5.5;1.0;0.5;0.5;1.5;3.0;8.5;1.5;1.0;-0.196777;0.039551;0.990234;-0.91;-0.07;0.35;503.0;0.008212;-0.145133
2.33;0.25;0.25;0.75;0.5;0.25;0.5;0.0;0.25;0.0;0.0;0.0;0.0;0.0;0.0;0.0;0.0;-0.187012;0.024902;1.003418;1.96;-1.75;0.14;34.0;0.0;0.0;0.5;2.25;2.0;3.5;4.0;7.5;0.0;5.5;0.75;0.5;0.5;1.5;3.0;8.75;1.5;1.5;-0.20459;0.036133;0.990723;-1.05;-0.21;0.28;499.0;0.013141;-0.146397
2.34;0.25;0.25;0.5;0.5;0.25;0.25;0.0;0.25;0.0;0.0;0.0;0.0;0.0;0.25;0.0;0.0;-0.186523;0.026855;1.002441;1.26;-1.54;0.21;30.0;0.0;0.0;0.25;2.25;2.0;3.5;4.25;7.75;0.25;5.5;0.75;0.5;0.75;1.5;3.0;8.5;1.0;1.5;-0.202148;0.036621;0.984863;-1.05;-0.56;0.28;501.0;0.009079;-0.14621
2.35;0.25;0.25;0.25;0.75;0.25;0.25;0.0;0.25;0.0;0.0;0.0;0.0;0.0;0.25;0.0;0.0;-0.191406;0.03418;1.005371;0.56;-1.19;0.28;30.0;0.0;0.0;0.5;2.25;2.0;3.25;4.25;7.75;0.0;5.25;0.75;0.5;0.5;1.25;2.75;8.25;1.0;1.0;-0.200195;0.036621;0.991211;-1.05;-0.56;0.21;479.0;0.000662;-0.143686
2.36;0.25;0.25;0.25;0.75;0.25;0.5;0.0;0.25;0.0;0.0;0.0;0.0;0.0;0.5;0.0;0.0;-0.189453;0.021484;0.999023;0.14;-0.98;0.49;35.0;0.0;0.0;0.25;2.25;2.0;3.75;4.5;7.5;0.0;5.25;0.75;0.25;0.5;1.25;3.0;8.25;1.25;1.0;-0.198242;0.038086;0.992188;-1.05;-0.42;0.28;484.0;0.001435;-0.146504
2.37;0.25;0.25;0.5;0.25;0.25;0.5;0.0;0.25;0.0;0.0;0.0;0.0;0.0;0.25;0.0;0.0;-0.184082;0.026367;0.992188;-0.63;-1.05;0.49;30.0;0.0;0.0;0.0;2.25;2.0;3.75;4.25;7.5;0.0;5.25;0.75;0.5;0.5;1.25;3.0;8.25;1.25;1.0;-0.200195;0.032715;0.992676;-0.98;-0.14;0.14;481.0;0.006014;-0.148057
2.38;0.25;0.25;0.75;0.25;0.25;0.5;0.0;0.25;0.0;0.0;0.0;0.0;0.0;0.25;0.0;0.0;-0.182129;0.026367;0.992676;-1.12;-1.19;0.42;33.0;0.0;0.0;0.25;2.25;2.25;3.75;4.25;7.5;0.0;5.25;0.75;0.25;0.5;1.25;3.0;8.25;1.0;1.0;-0.202148;0.037109;0.991211;-0.84;0.07;0.28;481.0;-0.001886;-0.146687
2.39;0.25;0.25;0.75;0.5;0.5;0.5;0.0;0.25;0.25;0.0;0.0;0.0;0.0;0.25;0.0;0.0;-0.185547;0.027832;0.995605;-1.89;-1.47;0.21;43.0;0.0;0.0;0.25;2.25;1.75;3.0;3.75;7.25;0.0;5.25;0.5;0.25;0.75;1.25;3.0;7.75;1.25;1.0;-0.20459;0.032715;0.990234;-0.91;-0.14;0.21;455.0;0.007658;-0.156244
2.4;0.25;0.25;0.75;0.5;0.25;0.25;0.0;0.25;0.0;0.0;0.0;0.0;0.0;0.5;0.0;0.0;-0.187988;0.026855;0.999023;-2.38;-1.33;-0.07;35.0;0.0;0.0;0.25;2.25;2.0;3.5;3.75;7.5;0.0;5.25;0.5;0.25;0.75;1.0;3.0;7.75;1.25;1.0;-0.202148;0.038086;0.987793;-0.63;-0.28;0.28;464.0;-0.00022;-0.155402
2.41;0.25;0.25;0.5;0.75;0.25;0.25;0.0;0.25;0.0;0.0;0.0;0.0;0.0;1.0;0.0;0.0;-0.1875;0.025879;0.99707;-2.52;-1.26;-0.07;40.0;0.0;0.0;0.25;2.0;2.0;3.25;4.0;7.25;0.0;5.25;0.75;0.5;0.75;1.25;2.75;7.5;1.5;1.0;-0.208008;0.034668;0.991699;-0.63;-0.42;0.28;466.0;0.008363;-0.148642
2.42;0.25;0.0;0.5;0.75;1.0;0.25;0.0;0.25;0.0;0.0;0.0;0.0;0.0;1.25;0.0;0.0;-0.186035;0.019043;0.993652;-2.38;-1.26;0.0;49.0;0.0;0.0;0.25;2.25;2.0;3.75;4.25;7.25;0.0;5.0;0.5;0.5;0.75;1.25;2.75;7.5;1.5;1.0;-0.20166;0.040527;0.989746;-0.56;-0.42;0.42;470.0;-0.00025;-0.149434
2.43;0.5;0.25;0.75;0.75;0.75;0.5;0.0;0.25;0.25;0.0;0.0;0.25;0.0;1.25;0.0;0.0;-0.183594;0.018066;0.998535;-1.96;-1.05;0.07;63.0;-0.064939;-0.02393;0.5;2.5;1.75;3.75;4.0;7.25;0.0;5.25;0.25;0.25;0.75;1.25;2.75;7.25;1.25;1.0;-0.202637;0.03418;0.989746;-0.7;-0.42;0.28;462.0;-0.010615;-0.159732
2.44;0.25;0.25;0.75;0.75;0.75;0.5;0.0;0.25;0.25;0.25;0.0;0.0;0.0;1.0;0.0;0.0;-0.1875;0.029297;0.993652;-1.54;-1.12;0.28;58.0;-0.066158;-0.020683;0.75;2.25;1.75;3.5;3.75;7.25;0.0;5.25;0.5;0.25;0.75;1.25;2.75;7.25;1.25;0.75;-0.207031;0.039062;0.986328;-0.77;-0.28;0.28;458.0;-0.007357;-0.155175
2.45;0.25;0.0;0.75;1.0;0.75;0.5;0.0;0.25;0.5;0.0;0.0;0.0;0.0;1.25;0.0;0.0;-0.1875;0.021484;0.996094;-1.12;-0.84;0.35;62.0;-0.040071;-0.004032;0.75;2.25;2.0;3.5;3.75;7.25;0.0;5.25;0.25;0.25;0.75;1.25;2.75;7.5;1.25;0.75;-0.200195;0.033691;0.991699;-0.84;-0.28;0.35;460.0;-0.008999;-0.155214
2.46;0.5;0.25;1.0;1.0;0.75;0.5;0.0;0.25;0.25;0.0;0.0;0.0;0.0;1.25;0.0;0.0;-0.181641;0.023438;0.996582;-0.91;-0.91;0.14;67.0;-0.095944;-0.016035;0.5;2.25;2.0;3.25;3.75;7.25;0.0;5.0;0.25;0.25;0.5;1.25;2.5;7.25;1.25;0.75;-0.206543;0.035645;0.990723;-0.77;-0.28;0.35;442.0;-0.009243;-0.154572
2.47;0.75;0.25;1.0;0.75;1.0;0.25;0.0;0.25;0.25;0.25;0.0;0.25;0.0;1.5;0.0;0.0;-0.183105;0.019531;0.993652;-0.42;-0.98;0.28;75.0;-0.058408;0.00873;0.25;2.0;1.75;2.75;3.75;7.25;0.0;4.75;0.25;0.5;0.75;1.25;2.5;6.75;1.0;0.75;-0.200684;0.037109;0.985352;-0.77;-0.28;0.28;422.0;-0.002533;-0.157103
2.48;0.5;0.25;0.75;0.75;0.75;0.25;0.0;0.25;0.25;0.0;0.0;0.25;0.0;2.25;0.0;0.0;-0.185547;0.022949;0.994629;-0.07;-0.77;0.28;70.0;0.002326;0.013504;0.5;2.25;1.5;2.75;3.75;6.75;0.0;5.0;0.5;0.25;0.75;1.25;2.75;6.75;1.0;1.0;-0.203125;0.034668;0.988281;-0.84;-0.28;0.35;427.0;-0.001005;-0.157909
2.49;0.5;0.0;0.75;0.5;1.0;0.5;0.0;0.25;0.25;0.0;0.0;0.25;0.0;2.25;0.0;0.0;-0.182617;0.027832;1.001465;0.21;-0.21;0.42;70.0;0.017733;0.020039;0.5;2.25;1.5;3.0;3.75;6.75;0.0;5.0;0.25;0.25;0.75;1.25;2.5;6.25;1.0;0.75;-0.203613;0.03418;0.98584;-0.98;0.0;0.42;418.0;-0.012096;-0.163552
2.5;0.25;0.0;0.75;0.5;1.25;0.5;0.0;0.5;0.25;0.0;0.0;0.25;0.0;2.75;0.25;0.25;-0.19043;0.020996;0.990723;0.42;-0.14;0.49;84.0;0.066739;-0.002658;0.5;2.0;1.5;3.0;3.75;7.0;0.0;5.0;0.25;0.25;0.75;1.25;2.5;6.25;1.0;0.75;-0.20752;0.036621;0.992676;-1.05;-0.14;0.35;418.0;-0.010656;-0.164313
2.51;0.25;0.0;0.75;0.75;1.25;0.5;0.0;0.5;0.5;0.0;0.0;0.25;0.0;2.75;0.25;0.0;-0.183594;0.026367;1.0;0.28;0.07;0.56;89.0;0.057513;0.006195;0.5;2.0;1.5;3.0;3.25;7.0;0.0;4.75;0.25;0.5;0.5;1.25;2.5;6.25;1.0;1.0;-0.203613;0.035156;0.991211;-1.05;-0.14;0.35;410.0;-0.007533;-0.164599
2.52;0.75;0.0;0.75;0.75;1.0;0.25;0.0;0.5;0.5;0.25;0.25;0.0;0.0;2.5;0.25;0.25;-0.185547;0.021484;0.996094;0.28;-0.07;0.56;90.0;0.043761;0.017924;0.5;2.0;1.5;2.75;3.75;7.0;0.0;4.75;0.25;0.5;0.25;1.25;2.25;6.25;1.0;1.0;-0.199707;0.038574;0.989258;-1.19;-0.28;0.35;408.0;-0.009867;-0.159454
2.53;0.75;0.25;1.0;0.75;1.0;0.5;0.0;0.5;0.5;0.25;0.25;0.0;0.25;3.0;0.25;0.0;-0.182617;0.020996;0.997559;0.14;-0.42;0.56;104.0;0.032792;0.008274;0.5;1.75;1.5;2.75;3.75;6.75;0.0;4.75;0.25;0.5;0.5;1.25;2.5;6.0;1.0;0.75;-0.193848;0.034668;0.991699;-1.12;-0.07;0.28;404.0;-0.007347;-0.161406
2.54;0.75;0.25;1.0;0.5;1.0;0.5;0.0;0.5;0.5;0.25;0.25;0.0;0.0;3.0;0.25;0.0;-0.181641;0.021973;0.987793;-0.0;-0.63;0.49;99.0;0.039236;0.026506;0.5;1.75;1.5;2.75;3.0;6.75;0.0;4.5;0.25;0.5;0.5;1.0;2.5;6.0;1.0;0.75;-0.210449;0.037598;0.992676;-1.12;0.0;0.21;387.0;-0.006158;-0.163109
2.55;0.75;0.25;1.0;0.5;1.25;0.5;0.0;0.75;0.5;0.25;0.25;0.25;0.0;2.75;0.0;0.25;-0.180664;0.026367;0.999023;-0.14;-0.84;0.56;105.0;0.02338;-0.003007;0.25;2.0;1.5;2.75;3.0;6.75;0.0;4.5;0.25;0.25;0.75;1.0;2.5;6.25;1.0;0.75;-0.202637;0.036621;0.989258;-1.05;0.07;0.35;389.0;-0.003529;-0.164383
2.56;0.75;0.25;1.25;0.75;1.0;0.25;0.0;0.5;0.75;0.25;0.25;0.25;0.0;3.0;0.0;0.0;-0.180664;0.02832;0.998535;-0.21;-1.05;0.63;106.0;0.028506;0.032148;0.25;2.0;1.5;2.75;3.25;6.75;0.0;4.5;0.25;0.25;0.25;1.0;2.25;6.0;1.0;0.75;-0.20166;0.035156;0.987305;-0.98;0.07;0.28;382.0;-0.011517;-0.163581
2.57;0.75;0.25;1.25;1.0;1.25;0.25;0.0;0.75;0.25;0.25;0.25;0.0;0.25;3.25;0.25;0.0;-0.183594;0.025391;1.001465;-0.35;-0.77;0.63;113.0;0.01604;-0.006548;0.5;2.0;1.5;2.75;3.0;6.75;0.0;4.5;0.25;0.25;0.5;1.0;2.0;6.0;1.0;0.75;-0.208496;0.032715;0.991211;-0.98;0.14;0.21;382.0;-0.012861;-0.161139
2.58;0.75;0.25;1.25;0.75;1.25;0.5;0.0;0.75;0.25;0.25;0.25;0.0;0.0;3.25;0.25;0.0;-0.177734;0.021484;0.993652;-0.35;-0.77;0.63;111.0;0.016472;0.001866;0.25;1.75;1.5;2.5;3.25;6.5;0.0;4.25;0.5;0.25;0.25;1.25;2.25;6.0;1.0;1.0;-0.203613;0.031738;0.989746;-0.98;0.14;0.28;377.0;0.000171;-0.157139
2.59;0.75;0.25;1.25;1.0;1.75;0.5;0.0;0.75;0.25;0.5;0.0;0.0;0.0;2.75;0.25;0.25;-0.179688;0.023438;0.995117;-0.42;-0.84;0.63;117.0;-0.009687;-0.007496;0.25;2.0;1.5;2.75;3.0;6.5;0.0;4.25;0.25;0.25;0.25;1.0;2.0;6.0;0.75;0.5;-0.205566;0.036133;0.989258;-1.12;0.14;0.28;365.0;-0.015392;-0.160046
2.6;0.75;0.25;1.25;1.0;1.25;1.0;0.0;0.75;0.25;0.5;0.0;0.25;0.0;3.0;0.25;0.0;-0.179688;0.023438;0.992188;-0.28;-0.98;0.63;120.0;-0.002169;-0.023596;0.25;2.25;1.5;2.75;3.0;6.25;0.0;4.25;0.25;0.25;0.25;1.0;1.75;6.0;0.75;0.5;-0.202148;0.037109;0.985352;-0.98;0.0;0.21;362.0;-0.018261;-0.157203
2.61;1.0;0.25;1.25;1.0;1.5;1.25;0.0;0.75;0.25;0.5;0.25;0.25;0.0;3.25;0.25;0.0;-0.179199;0.026855;0.995605;-0.14;-0.77;0.63;134.0;-0.004654;-0.022916;0.5;1.75;1.5;2.5;3.0;6.25;0.0;4.25;0.25;0.25;0.25;1.25;2.0;5.75;0.25;0.75;-0.205566;0.038574;0.982422;-0.98;0.0;0.35;356.0;-0.018435;-0.161564
2.62;1.0;0.25;1.25;1.0;1.5;1.25;0.0;1.0;0.5;0.5;0.25;0.25;0.25;3.25;0.0;0.0;-0.178711;0.022949;0.998535;0.07;-0.84;0.7;142.0;-0.003737;-0.032344;0.25;1.75;1.25;2.5;3.0;6.25;0.0;4.25;0.25;0.25;0.25;1.0;2.0;5.5;0.25;0.5;-0.213867;0.037598;0.995117;-0.98;-0.07;0.21;343.0;-0.019518;-0.166537
2.63;0.75;0.25;1.5;1.0;1.5;1.25;0.0;1.0;0.5;0.25;0.25;0.25;0.25;3.25;0.0;0.0;-0.185547;0.021973;0.99707;0.14;-0.56;0.56;139.0;-0.006347;-0.034517;0.25;1.75;1.5;2.25;2.75;6.25;0.0;4.25;0.25;0.25;0.25;1.0;1.75;5.75;0.5;0.5;-0.211914;0.032715;0.980957;-0.98;-0.14;0.21;343.0;-0.013245;-0.160689
2.64;1.0;0.25;1.5;1.0;1.75;1.25;0.25;1.0;0.25;0.25;0.25;0.0;0.25;3.25;0.0;0.25;-0.176758;0.022949;1.000488;0.21;-0.42;0.7;144.0;-0.021182;-0.027092;0.25;1.75;1.5;2.25;2.75;6.25;0.0;4.25;0.25;0.25;0.25;1.0;1.75;5.5;0.75;0.75;-0.20459;0.037109;0.988281;-0.91;0.0;0.21;345.0;-0.011014;-0.162966
2.65;1.25;0.25;1.5;1.0;1.75;2.0;0.25;1.0;0.25;0.5;0.25;0.0;0.25;3.25;0.25;0.25;-0.177246;0.026367;0.999512;0.28;-0.35;0.7;161.0;-0.022896;-0.037669;0.5;1.5;1.5;2.25;2.75;6.0;0.0;4.0;0.25;0.25;0.25;1.0;1.75;5.75;0.75;0.75;-0.209961;0.037598;0.988281;-0.91;-0.21;0.21;341.0;-0.007134;-0.154611
2.66;1.25;0.25;1.5;1.25;1.75;1.75;0.25;1.0;0.25;0.5;0.25;0.0;0.25;3.25;0.25;0.25;-0.177246;0.023438;0.994141;0.42;-0.42;0.77;162.0;-0.025426;-0.036812;0.5;1.75;1.25;2.0;2.5;5.75;0.0;4.0;0.25;0.25;0.25;1.0;1.75;5.75;0.5;0.75;-0.205078;0.037598;0.990723;-1.12;-0.14;0.21;328.0;-0.006545;-0.157856
2.67;1.0;0.5;1.5;1.5;1.75;1.75;0.0;1.0;0.5;0.5;0.25;0.25;0.25;3.0;0.0;0.25;-0.177246;0.022949;0.996582;0.28;-0.21;0.7;161.0;-0.036067;-0.052019;0.25;1.75;1.25;2.25;2.5;5.75;0.0;4.0;0.25;0.0;0.25;1.0;2.0;5.75;0.5;0.75;-0.206543;0.033691;0.988281;-0.91;-0.21;0.35;328.0;-0.006569;-0.16487
2.68;1.0;0.25;1.5;1.5;1.75;1.75;0.0;1.0;0.5;0.25;0.25;0.0;0.25;3.0;0.0;0.25;-0.176758;0.02832;0.998047;0.42;-0.42;0.84;153.0;-0.039533;-0.047707;0.25;1.75;1.25;2.25;2.75;6.0;0.0;4.0;0.25;0.0;0.25;1.0;2.0;5.75;0.75;0.5;-0.205566;0.03125;0.983887;-1.05;-0.35;0.28;335.0;-0.006999;-0.162444
2.69;1.5;0.5;1.5;1.5;1.75;1.75;0.0;1.0;0.5;0.25;0.25;0.0;0.25;2.75;0.0;0.25;-0.17627;0.028809;0.996582;0.28;-0.35;0.7;159.0;-0.06506;-0.047303;0.25;1.75;1.5;2.25;2.75;6.0;0.0;3.75;0.25;0.25;0.25;1.0;2.0;5.75;1.0;0.5;-0.202148;0.038574;0.98877;-0.84;-0.49;0.21;340.0;-0.003689;-0.154809
2.7;1.25;0.5;1.75;1.5;1.75;1.75;0.0;1.25;0.5;0.25;0.25;0.0;0.25;2.75;0.25;0.25;-0.176758;0.02002;0.995605;0.21;-0.21;0.77;166.0;-0.053509;-0.056685;0.25;2.0;1.25;2.25;2.75;6.0;0.0;4.0;0.25;0.0;0.25;1.0;1.5;5.75;1.0;0.5;-0.205566;0.033203;0.988281;-0.98;-0.56;0.35;336.0;-0.009008;-0.157594
2.71;1.25;0.5;1.75;1.5;1.75;1.75;0.25;1.25;0.25;0.25;0.25;0.0;0.25;2.75;0.25;0.25;-0.186035;0.024414;0.996582;0.14;-0.21;0.77;167.0;-0.056847;-0.056394;0.25;1.75;1.25;2.25;2.75;6.0;0.0;3.75;0.25;0.0;0.25;1.0;1.5;5.5;1.0;0.5;-0.20752;0.033203;0.986816;-0.98;-0.63;0.42;327.0;-0.008819;-0.156925
2.72;1.0;0.5;1.5;1.5;1.75;1.75;0.0;1.25;0.25;0.25;0.25;0.25;0.25;2.75;0.25;0.25;-0.177246;0.028809;0.990234;-0.14;-0.07;0.7;160.0;-0.045478;-0.074135;0.0;1.25;1.25;2.25;2.5;5.75;0.0;3.75;0.25;0.25;0.0;1.0;1.75;5.5;0.75;0.5;-0.20166;0.029785;0.984863;-1.05;-0.7;0.42;313.0;0.001445;-0.161519
2.73;1.25;0.5;1.75;1.5;1.75;2.5;0.0;1.25;0.0;0.5;0.25;0.25;0.25;3.0;0.0;0.25;-0.179199;0.029785;0.989258;-0.07;-0.21;0.77;173.0;-0.063597;-0.079933;0.25;1.5;1.25;2.25;2.5;5.75;0.0;3.75;0.25;0.0;0.0;1.25;1.5;5.5;0.75;0.75;-0.202637;0.032227;0.986816;-0.98;-0.7;0.42;317.0;-0.005324;-0.160859
2.74;1.5;0.5;1.75;1.5;1.75;2.0;0.25;1.25;0.25;0.5;0.25;0.25;0.25;2.75;0.0;0.25;-0.179199;0.027344;0.994629;-0.14;-0.14;0.7;175.0;-0.062469;-0.05896;0.0;1.5;1.25;2.0;2.5;5.75;0.0;3.75;0.25;0.0;0.0;1.0;1.5;5.5;0.5;0.75;-0.206543;0.032227;0.980957;-0.98;-0.7;0.42;306.0;-0.004759;-0.162197
2.75;1.5;0.5;1.75;1.5;2.0;2.25;0.0;1.25;0.25;0.25;0.25;0.25;0.25;2.75;0.0;0.25;-0.182129;0.024414;0.998047;-0.21;-0.14;0.63;174.0;-0.073387;-0.069659;0.0;1.75;1.5;2.0;2.75;5.5;0.0;3.75;0.0;0.0;0.25;1.0;1.75;5.5;0.25;0.75;-0.207031;0.030762;0.987305;-1.05;-0.7;0.35;310.0;-0.013796;-0.164153
2.76;1.5;0.5;1.75;1.5;2.0;2.5;0.0;1.25;0.5;0.25;0.25;0.25;0.25;2.75;0.0;0.0;-0.175293;0.029297;0.993652;-0.28;-0.21;0.7;180.0;-0.071701;-0.064161;0.0;1.75;1.25;2.0;2.75;5.5;0.0;3.75;0.25;0.0;0.0;1.0;1.75;5.5;0.75;0.75;-0.205078;0.035156;0.990723;-0.98;-0.63;0.42;313.0;-0.002742;-0.160558
2.77;1.75;0.25;1.75;1.75;2.0;2.5;0.0;1.5;0.25;0.25;0.0;0.25;0.25;3.0;0.0;0.25;-0.182617;0.027344;0.999023;-0.28;0.21;0.56;184.0;-0.075654;-0.074848;0.0;1.5;1.25;2.0;2.5;5.5;0.0;3.75;0.25;0.25;0.0;1.0;1.5;5.75;0.25;0.75;-0.209473;0.037109;0.990723;-0.91;-0.7;0.35;305.0;-0.001734;-0.157176
2.78;1.5;0.75;1.75;1.75;2.0;2.5;0.0;1.25;0.25;0.25;0.0;0.25;0.25;2.75;0.25;0.25;-0.178223;0.027344;0.998535;-0.28;0.28;0.63;183.0;-0.080049;-0.07631;0.0;1.75;1.25;2.25;2.5;5.5;0.0;3.75;0.25;0.25;0.25;1.0;1.5;5.5;0.25;0.5;-0.20459;0.032227;0.985352;-1.05;-0.84;0.42;310.0;-0.010614;-0.159288
2.79;1.25;0.75;1.5;1.5;1.75;2.5;0.0;1.25;0.5;0.25;0.25;0.25;0.25;2.75;0.25;0.25;-0.176758;0.021484;0.998047;-0.28;0.49;0.7;178.0;-0.055734;-0.075496;0.25;1.5;1.25;2.0;2.5;5.5;0.0;3.75;0.25;0.25;0.25;1.0;1.5;5.5;0.25;0.5;-0.208984;0.033203;0.986328;-1.05;-0.91;0.49;307.0;-0.008193;-0.156119
2.8;1.5;0.75;1.75;1.75;1.75;2.0;0.25;1.25;0.5;0.25;0.25;0.0;0.25;3.0;0.25;0.25;-0.17627;0.026367;0.994629;-0.28;0.42;0.63;184.0;-0.06039;-0.052219;0.25;1.5;1.25;2.0;2.5;5.5;0.0;3.75;0.25;0.25;0.25;1.0;1.5;5.5;0.25;0.5;-0.208496;0.034668;0.984863;-1.05;-0.91;0.42;307.0;-0.008193;-0.156119
2.81;1.5;0.75;1.75;1.75;2.0;2.25;0.25;1.25;0.5;0.25;0.25;0.25;0.25;3.25;0.25;0.25;-0.17334;0.025879;0.992676;-0.35;0.28;0.63;195.0;-0.053192;-0.054697;0.25;1.5;1.25;2.25;2.5;5.25;0.0;3.75;0.25;0.25;0.25;1.0;1.5;5.5;0.5;0.25;-0.196777;0.030273;0.987793;-0.98;-0.77;0.42;308.0;-0.007421;-0.154219
2.82;1.5;0.75;1.75;1.75;2.0;2.25;0.0;1.25;0.25;0.25;0.0;0.25;0.25;3.0;0.25;0.25;-0.174805;0.027344;0.995117;-0.35;0.07;0.63;182.0;-0.072596;-0.069868;0.25;1.5;1.25;2.0;2.5;5.25;0.0;3.75;0.25;0.25;0.25;1.0;1.75;5.5;0.75;0.5;-0.205566;0.033203;0.987793;-0.91;-0.7;0.42;312.0;0.002165;-0.155955
2.83;1.5;0.75;1.75;1.5;1.75;1.75;0.0;1.5;0.25;0.25;0.0;0.25;0.25;3.25;0.25;0.25;-0.178711;0.026367;0.994141;-0.28;0.07;0.49;177.0;-0.057588;-0.066965;0.25;1.25;1.25;2.0;2.75;5.25;0.0;3.5;0.25;0.25;0.25;1.0;1.75;5.5;1.0;0.5;-0.208984;0.036621;0.987305;-1.05;-0.63;0.42;311.0;0.008258;-0.149942
2.84;1.5;0.75;1.75;1.5;2.0;2.5;0.25;1.5;0.25;0.25;0.25;0.25;0.25;3.25;0.25;0.25;-0.177246;0.025391;0.996094;-0.42;0.28;0.56;196.0;-0.055893;-0.06859;0.25;1.75;1.0;2.0;2.5;5.25;0.0;3.5;0.25;0.0;0.25;0.75;1.5;5.5;0.25;0.5;-0.215332;0.028809;0.98291;-0.98;-0.56;0.56;293.0;-0.01204;-0.154993
2.85;1.5;0.75;1.75;1.5;2.0;2.75;0.25;1.5;0.5;0.25;0.25;0.25;0.25;3.25;0.0;0.0;-0.177246;0.024414;0.995605;-0.42;0.49;0.56;198.0;-0.061526;-0.063434;0.25;1.25;1.25;2.0;2.5;5.25;0.0;3.5;0.0;0.25;0.25;0.5;1.5;5.75;0.5;0.75;-0.206543;0.030273;0.98877;-1.12;-0.49;0.42;295.0;-0.001412;-0.151469
2.86;1.25;0.75;1.5;1.5;2.5;2.5;0.25;1.5;0.5;0.5;0.25;0.25;0.25;3.5;0.0;0.25;-0.180664;0.028809;0.999023;-0.35;0.35;0.63;202.0;-0.041397;-0.058626;0.25;1.25;1.25;1.75;2.75;5.25;0.0;3.5;0.25;0.0;0.25;0.5;1.5;5.75;0.5;0.5;-0.208008;0.032715;0.987793;-1.05;-0.49;0.42;294.0;-0.000781;-0.144629
2.87;1.25;0.75;1.75;1.5;2.25;2.5;0.25;1.75;0.25;0.25;0.25;0.25;0.25;3.25;0.25;0.25;-0.177734;0.033203;0.994141;-0.42;0.28;0.56;200.0;-0.051114;-0.075877;0.25;1.75;1.25;1.75;2.25;5.25;0.0;3.5;0.25;0.0;0.25;0.75;1.75;5.5;0.25;0.5;-0.209961;0.027344;0.990234;-1.05;-0.49;0.42;293.0;-0.00924;-0.156415
2.88;1.5;0.75;1.75;1.5;2.25;2.5;0.0;1.5;0.0;0.25;0.0;0.25;0.5;3.25;0.25;0.25;-0.183594;0.027344;1.002441;-0.56;0.14;0.7;191.0;-0.067236;-0.083854;0.25;1.75;1.25;1.75;2.25;5.25;0.0;3.25;0.0;0.25;0.25;1.0;1.5;5.5;0.25;0.25;-0.207031;0.033691;0.98877;-0.98;-0.49;0.42;287.0;-0.011223;-0.154267
2.89;1.75;0.75;1.75;1.5;2.0;2.25;0.0;1.5;0.25;0.25;0.0;0.25;0.25;3.25;0.25;0.25;-0.174316;0.024414;1.000977;-0.56;0.35;0.56;189.0;-0.066833;-0.068783;0.25;1.75;1.25;1.75;2.25;5.25;0.0;3.25;0.25;0.25;0.25;1.0;1.5;5.75;0.5;0.25;-0.205078;0.033203;0.989746;-0.98;-0.77;0.49;296.0;-0.000601;-0.145782
2.9;1.5;0.75;1.75;1.5;2.25;2.5;0.25;1.75;0.25;0.5;0.25;0.25;0.5;3.5;0.25;0.25;-0.175781;0.022949;0.993652;-0.49;0.21;0.63;210.0;-0.044321;-0.073025;0.25;1.25;1.25;1.75;2.5;4.75;0.0;3.25;0.25;0.25;0.25;0.75;1.5;5.5;0.5;0.25;-0.203613;0.032227;0.986328;-0.98;-0.77;0.49;283.0;0.003166;-0.141676
2.91;1.0;0.75;2.0;1.75;2.25;2.5;0.25;1.75;0.25;0.25;0.25;0.0;0.25;3.5;0.25;0.25;-0.177734;0.025391;0.994141;-0.56;0.35;0.63;203.0;-0.051298;-0.072147;0.25;1.25;1.25;1.75;2.5;5.0;0.0;3.25;0.0;0.25;0.25;1.0;1.5;5.75;0.5;0.25;-0.210449;0.03418;0.98584;-1.05;-0.84;0.42;287.0;0.003769;-0.147176
2.92;1.0;0.75;1.75;1.75;2.0;2.75;0.25;1.5;0.25;0.25;0.25;0.25;0.25;3.5;0.25;0.25;-0.175293;0.027344;0.999512;-0.56;0.42;0.63;198.0;-0.045448;-0.076195;0.25;1.25;1.0;1.75;2.5;5.25;0.0;3.25;0.25;0.0;0.25;0.75;1.5;5.75;0.5;0.25;-0.210449;0.032227;0.987305;-1.12;-0.77;0.42;285.0;0.003767;-0.146337
2.93;1.5;0.25;1.75;1.75;2.0;2.5;0.0;1.5;0.5;0.5;0.5;0.0;0.25;3.5;0.25;0.25;-0.173828;0.023438;0.996582;-0.42;0.35;0.63;198.0;-0.037461;-0.061351;0.25;1.25;1.25;1.75;2.75;5.0;0.0;3.25;0.25;0.0;0.25;0.75;1.25;5.5;0.75;0.25;-0.212402;0.038574;0.982422;-0.98;-0.7;0.35;286.0;0.000531;-0.139725
2.94;1.5;0.75;1.75;1.5;2.25;2.75;0.25;1.75;0.5;0.5;0.25;0.25;0.5;3.25;0.25;0.25;-0.177734;0.02832;0.995605;-0.35;0.56;0.63;215.0;-0.04575;-0.072718;0.25;1.25;1.25;1.75;2.5;5.0;0.0;3.25;0.25;0.25;0.25;1.0;1.5;5.5;0.75;0.5;-0.204102;0.033203;0.97998;-1.05;-0.77;0.42;293.0;0.009367;-0.144807
2.95;1.5;1.0;1.75;1.75;2.25;3.0;0.25;1.75;0.5;0.5;0.25;0.25;0.5;3.25;0.25;0.25;-0.178223;0.027832;0.996582;-0.35;0.42;0.63;223.0;-0.054607;-0.078487;0.25;1.25;1.25;1.75;2.25;5.0;0.0;3.25;0.25;0.25;0.0;0.75;1.5;5.5;0.5;0.5;-0.209473;0.031738;0.987793;-0.98;-0.63;0.49;281.0;0.002504;-0.146396
2.96;1.5;0.75;2.0;2.0;2.0;3.0;0.25;1.75;0.0;0.5;0.25;0.0;0.5;3.0;0.25;0.25;-0.180176;0.031738;0.991211;-0.35;0.42;0.49;211.0;-0.074884;-0.090881;0.25;1.25;1.25;1.25;2.5;5.0;0.0;3.25;0.25;0.0;0.25;0.75;1.5;5.5;0.5;0.5;-0.20752;0.029297;0.983398;-0.91;-0.77;0.49;278.0;0.007243;-0.144298
2.97;1.5;0.75;1.75;1.5;2.0;2.5;0.25;1.5;0.25;0.25;0.25;0.25;0.5;3.25;0.25;0.25;-0.174316;0.025879;0.993652;-0.49;0.35;0.63;198.0;-0.053213;-0.073262;0.25;1.5;1.25;1.5;2.5;5.0;0.0;3.0;0.25;0.0;0.25;0.75;1.5;5.5;0.5;0.5;-0.209961;0.03125;0.98584;-0.91;-0.84;0.63;280.0;0.000552;-0.141674
2.98;1.5;0.75;2.0;1.75;2.0;2.5;0.25;1.5;0.25;0.25;0.25;0.25;0.5;3.25;0.25;0.25;-0.179199;0.026367;0.993164;-0.42;0.42;0.63;204.0;-0.059827;-0.073061;0.25;1.25;1.25;1.75;2.5;5.0;0.0;3.0;0.25;0.25;0.25;0.75;1.5;5.75;0.75;0.25;-0.205078;0.03418;0.98584;-0.77;-0.77;0.63;287.0;0.009142;-0.136223
2.99;1.5;0.75;1.75;1.75;2.0;2.75;0.25;1.75;0.5;0.5;0.25;0.25;0.5;3.25;0.25;0.25;-0.183594;0.025879;0.996094;-0.28;0.42;0.56;215.0;-0.048017;-0.076718;0.25;1.25;1.25;2.0;2.5;5.25;0.0;3.0;0.25;0.25;0.0;1.0;1.5;5.75;1.0;0.25;-0.208984;0.036621;0.988281;-0.77;-0.7;0.56;295.0;0.008214;-0.139723
3.0;1.5;0.75;2.0;1.5;2.0;2.75;0.0;1.75;0.25;0.5;0.25;0.25;0.5;3.5;0.0;0.25;-0.174805;0.026367;0.995117;-0.28;0.42;0.49;206.0;-0.056733;-0.081628;0.25;1.5;1.25;1.75;2.5;5.0;0.0;3.0;0.25;0.25;0.25;0.75;1.5;5.5;0.25;0.25;-0.210938;0.033203;0.985352;-0.84;-0.77;0.49;281.0;-0.00614;-0.140185
3.01;1.25;0.75;2.25;1.75;2.0;3.0;0.0;1.75;0.5;0.5;0.25;0.25;0.5;3.25;0.25;0.5;-0.177734;0.026367;0.999512;-0.28;0.35;0.56;218.0;-0.050567;-0.084789;0.25;1.5;1.25;1.75;2.5;4.75;0.0;3.0;0.25;0.25;0.0;0.5;1.5;5.5;0.25;0.25;-0.208008;0.031738;0.984375;-0.77;-0.77;0.56;272.0;-0.009248;-0.13735
3.02;1.25;0.75;2.0;1.75;2.0;3.0;0.0;1.75;0.25;0.5;0.25;0.25;0.5;3.25;0.25;0.25;-0.178223;0.027832;1.0;-0.21;0.42;0.63;210.0;-0.055564;-0.091816;0.0;1.25;1.25;1.25;2.25;4.75;0.0;3.0;0.25;0.0;0.0;0.75;1.5;5.5;0.25;0.25;-0.203613;0.035156;0.987305;-0.7;-0.84;0.56;258.0;0.006538;-0.144022
3.03;1.5;0.75;1.75;1.75;2.25;3.0;0.25;1.75;0.25;0.75;0.5;0.25;0.5;3.25;0.25;0.25;-0.180664;0.030273;0.995117;-0.28;0.42;0.56;223.0;-0.048135;-0.081824;0.0;1.75;1.25;1.5;2.5;4.75;0.0;3.0;0.25;0.0;0.25;0.75;1.5;5.5;0.25;0.25;-0.20752;0.035645;0.987305;-0.84;-0.84;0.56;272.0;-0.003692;-0.142763
3.04;1.5;0.75;1.75;2.0;2.25;3.0;0.0;1.75;0.5;0.5;0.25;0.25;0.75;3.25;0.25;0.5;-0.183105;0.026367;1.000977;-0.21;0.35;0.63;223.0;-0.051025;-0.090982;0.0;1.25;1.25;1.75;2.5;4.75;0.0;3.0;0.0;0.0;0.25;0.75;1.5;5.5;0.25;0.25;-0.20752;0.030273;0.987305;-0.77;-0.84;0.56;266.0;-0.002564;-0.148846
3.05;1.75;1.0;1.75;2.0;2.0;3.0;0.0;1.75;0.5;0.25;0.25;0.25;0.5;3.25;0.25;0.75;-0.178223;0.025391;0.999512;-0.42;0.49;0.49;222.0;-0.061992;-0.090883;0.0;1.25;1.25;1.5;2.5;5.0;0.0;3.0;0.0;0.25;0.0;0.25;1.25;5.5;0.25;0.25;-0.208984;0.027344;0.985352;-0.77;-0.77;0.56;258.0;-0.007106;-0.141293
3.06;1.5;1.0;2.0;1.75;2.25;3.0;0.25;1.75;0.5;0.25;0.0;0.25;0.5;2.75;0.0;0.25;-0.17627;0.031738;0.992676;-0.28;0.42;0.63;213.0;-0.081746;-0.083016;0.25;1.25;1.25;1.75;2.5;5.0;0.0;3.0;0.25;0.25;0.25;0.25;1.25;5.5;0.5;0.5;-0.203613;0.031738;0.990234;-0.84;-0.91;0.56;275.0;-0.002082;-0.134267
3.07;1.25;1.0;2.0;1.75;2.25;3.0;0.25;1.75;0.25;0.25;0.25;0.0;0.75;3.25;0.25;0.25;-0.177246;0.028809;0.996094;-0.21;0.35;0.63;216.0;-0.0631;-0.087552;0.25;1.5;1.25;1.5;2.5;4.75;0.0;3.0;0.0;0.25;0.0;0.5;1.5;5.75;0.75;0.25;-0.210449;0.031738;0.984375;-0.84;-0.98;0.63;274.0;0.002639;-0.137944
3.08;1.5;0.75;2.0;1.75;2.25;3.0;0.0;1.75;0.5;0.25;0.25;0.25;0.25;3.25;0.25;0.25;-0.178711;0.030273;0.995605;-0.28;0.42;0.56;214.0;-0.062322;-0.078916;0.0;1.5;1.5;1.75;2.5;4.5;0.0;3.0;0.0;0.25;0.0;0.25;1.5;5.75;0.5;0.25;-0.204102;0.03418;0.994141;-0.84;-0.84;0.49;268.0;-0.00419;-0.136343
3.09;1.75;1.0;1.75;2.0;2.25;3.25;0.25;2.0;0.25;0.0;0.25;0.25;0.25;3.25;0.0;0.0;-0.180176;0.026855;0.99707;-0.28;0.42;0.7;220.0;-0.086661;-0.090308;0.0;1.25;1.25;1.5;2.5;4.75;0.0;3.0;0.25;0.25;0.0;0.5;1.25;5.5;0.25;0.25;-0.209473;0.032715;0.993164;-0.77;-0.7;0.49;262.0;0.000514;-0.135811
3.1;1.5;1.0;1.75;2.0;2.25;3.0;0.25;2.0;0.25;0.25;0.25;0.25;0.5;3.0;0.25;0.0;-0.181152;0.022949;0.996582;-0.28;0.42;0.63;220.0;-0.073566;-0.095103;0.0;1.25;1.0;1.75;2.5;5.0;0.0;3.0;0.0;0.25;0.0;0.75;1.5;5.5;0.5;0.25;-0.20752;0.03125;0.98877;-0.98;-0.7;0.49;269.0;0.003272;-0.150311
3.11;1.5;1.0;2.0;2.0;2.25;3.0;0.0;1.75;0.25;0.5;0.25;0.25;0.5;3.0;0.25;0.0;-0.179688;0.02832;0.995117;-0.42;0.49;0.56;218.0;-0.07624;-0.091157;0.0;1.5;1.5;1.75;2.25;4.5;0.0;3.0;0.0;0.0;0.25;0.75;1.5;5.75;0.25;0.25;-0.20752;0.03125;0.98291;-0.98;-0.84;0.56;268.0;-0.002819;-0.144451
3.12;1.25;1.0;2.0;1.75;2.25;3.5;0.0;1.75;0.25;0.5;0.0;0.25;0.75;2.75;0.25;0.25;-0.176758;0.028809;0.996582;-0.49;0.49;0.56;216.0;-0.074706;-0.10502;0.25;1.25;1.25;1.75;2.25;4.5;0.0;3.0;0.0;0.0;0.25;0.75;1.5;5.5;0.25;0.0;-0.208008;0.026855;0.987793;-0.98;-0.91;0.56;262.0;-0.005839;-0.14613
3.13;1.5;1.0;2.25;2.0;2.25;3.0;0.0;2.0;0.5;0.5;0.0;0.25;0.75;3.0;0.25;0.25;-0.177246;0.026367;0.996582;-0.21;0.42;0.7;229.0;-0.07084;-0.093445;0.25;1.75;1.25;1.75;2.5;4.5;0.0;3.0;0.0;0.0;0.25;0.75;1.0;5.5;0.5;0.25;-0.206543;0.035156;0.987305;-0.91;-0.98;0.56;269.0;-0.01151;-0.138916
3.14;1.5;0.75;2.0;2.0;2.25;3.25;0.25;2.0;0.5;0.75;0.25;0.0;0.75;3.0;0.25;0.25;-0.176758;0.028809;0.996582;-0.35;0.49;0.63;234.0;-0.058967;-0.087281;0.25;1.75;1.25;1.75;2.5;4.75;0.0;3.0;0.25;0.0;0.0;0.75;1.25;5.75;0.75;0.25;-0.211426;0.03418;0.984863;-0.84;-0.91;0.63;281.0;-0.002696;-0.134815
3.15;1.75;0.75;2.0;2.0;2.25;3.25;0.25;2.0;0.25;0.25;0.25;0.25;0.75;3.0;0.0;0.25;-0.17627;0.029297;0.995117;-0.28;0.49;0.63;227.0;-0.078195;-0.097011;0.25;1.5;1.25;1.5;2.25;5.0;0.0;3.0;0.0;0.25;0.25;1.0;1.5;5.75;0.75;0.5;-0.208008;0.033203;0.988281;-0.7;-0.77;0.56;284.0;0.010648;-0.14535
3.16;1.75;1.0;2.0;2.0;1.75;3.25;0.25;2.0;0.25;0.25;0.25;0.25;0.75;2.75;0.0;0.25;-0.175781;0.026855;1.000488;-0.21;0.42;0.56;222.0;-0.085914;-0.104964;0.25;1.5;1.25;1.75;2.25;4.75;0.0;3.0;0.25;0.25;0.25;1.0;1.5;6.0;0.5;0.25;-0.208008;0.035156;0.989746;-0.63;-0.7;0.63;285.0;0.009763;-0.136736
3.17;1.5;1.0;2.0;2.0;2.0;3.5;0.25;2.0;0.25;0.25;0.25;0.25;0.75;2.75;0.0;0.25;-0.175781;0.030762;0.996094;-0.35;0.49;0.63;225.0;-0.083322;-0.107658;0.0;1.25;1.25;1.75;2.25;4.5;0.0;3.0;0.0;0.0;0.25;0.5;1.5;6.0;0.75;0.25;-0.205078;0.035156;0.986816;-0.63;-0.63;0.63;268.0;0.01419;-0.141163
3.18;2.0;1.0;2.0;2.0;2.25;3.25;0.0;2.0;0.25;0.25;0.25;0.25;0.75;2.75;0.25;0.25;-0.177246;0.025391;0.988281;-0.42;0.49;0.7;229.0;-0.087674;-0.103931;0.0;1.0;0.75;1.5;2.25;4.5;0.0;3.0;0.0;0.0;0.0;0.5;1.5;6.0;0.25;0.5;-0.207031;0.031738;0.990234;-0.56;-0.63;0.63;249.0;0.019596;-0.148216
3.19;1.75;0.75;2.25;2.0;1.75;3.5;0.0;2.0;0.25;0.5;0.25;0.0;0.75;2.75;0.25;0.25;-0.173828;0.027832;1.000488;-0.35;0.49;0.63;224.0;-0.0819;-0.105366;0.0;1.25;0.75;1.5;2.25;4.5;0.0;3.0;0.25;0.0;0.0;0.75;1.25;6.0;0.25;0.25;-0.210938;0.034668;0.988281;-0.7;-0.84;0.63;254.0;0.017365;-0.140251
3.2;1.5;0.75;2.0;2.0;2.0;3.5;0.0;1.75;0.25;0.25;0.25;0.25;0.75;2.5;0.25;0.25;-0.176758;0.026367;0.995117;-0.49;0.56;0.56;214.0;-0.082733;-0.110927;0.0;1.25;1.0;1.5;2.25;4.75;0.0;3.0;0.0;0.0;0.25;1.0;1.5;5.75;0.5;0.25;-0.211426;0.033203;0.983398;-0.84;-0.91;0.63;265.0;0.015417;-0.151115
3.21;1.75;1.5;2.0;2.25;2.25;3.25;0.0;1.75;0.25;0.25;0.25;0.25;0.75;2.75;0.25;0.25;-0.177246;0.028809;0.995605;-0.49;0.7;0.63;230.0;-0.094966;-0.104277;0.0;1.0;1.0;1.5;2.25;4.75;0.0;3.0;0.0;0.25;0.25;1.0;1.25;6.0;0.75;0.25;-0.209961;0.030273;0.982422;-0.77;-0.91;0.63;269.0;0.028127;-0.142397
3.22;1.75;0.75;2.25;2.25;2.25;3.5;0.0;2.0;0.25;0.25;0.25;0.25;0.75;3.0;0.25;0.25;-0.182617;0.02832;0.99707;-0.35;0.56;0.56;235.0;-0.081084;-0.104217;0.0;1.25;1.0;1.5;2.5;4.5;0.0;3.0;0.25;0.25;0.25;1.0;1.5;6.0;1.0;0.25;-0.20752;0.029297;0.993652;-0.77;-0.7;0.56;280.0;0.032391;-0.135785
3.23;1.75;0.75;2.0;2.25;2.0;3.5;0.0;2.0;0.25;0.25;0.25;0.5;0.75;2.75;0.25;0.25;-0.176758;0.022949;0.998047;-0.56;0.49;0.63;230.0;-0.079418;-0.114198;0.0;1.25;0.75;1.75;2.5;4.5;0.0;3.0;0.25;0.25;0.0;1.0;1.5;6.0;1.0;0.25;-0.211426;0.036621;0.984375;-0.77;-0.77;0.49;277.0;0.03021;-0.139434
3.24;1.75;1.0;2.0;2.0;2.25;3.5;0.0;2.0;0.25;0.25;0.25;0.25;0.75;2.5;0.25;0.5;-0.176758;0.03125;0.994141;-0.49;0.35;0.56;228.0;-0.086789;-0.112984;0.0;1.25;1.0;1.75;2.25;4.5;0.0;3.0;0.25;0.25;0.25;1.0;1.5;6.0;0.25;0.25;-0.208008;0.033691;0.986816;-0.91;-0.84;0.63;271.0;0.018697;-0.140648
3.25;1.75;1.0;2.0;2.0;2.0;3.5;0.0;2.0;0.5;0.25;0.25;0.25;0.75;2.5;0.25;0.25;-0.178223;0.028809;0.995117;-0.49;0.56;0.63;228.0;-0.083798;-0.107891;0.0;0.75;0.75;1.75;2.5;4.75;0.0;3.0;0.25;0.0;0.25;1.0;1.5;6.0;0.25;0.5;-0.211426;0.031738;0.981445;-0.84;-0.84;0.63;268.0;0.02615;-0.145118
3.26;1.75;0.75;2.0;1.75;2.0;3.5;0.0;2.0;0.25;0.25;0.25;0.25;0.75;2.75;0.25;0.25;-0.177246;0.027832;0.993164;-0.7;0.84;0.42;221.0;-0.077521;-0.108826;0.0;1.0;0.75;1.0;2.5;4.75;0.0;3.0;0.0;0.0;0.25;1.0;1.5;6.25;0.75;0.25;-0.20752;0.030762;0.990234;-0.7;-0.91;0.56;264.0;0.039293;-0.143139
3.27;1.75;0.75;1.75;2.25;2.0;3.25;0.0;1.75;0.0;0.25;0.25;0.25;0.75;3.0;0.25;0.25;-0.178223;0.02832;0.994141;-0.56;0.56;0.63;215.0;-0.081195;-0.110403;0.0;1.25;1.0;1.25;2.25;4.75;0.0;3.0;0.25;0.0;0.0;1.0;1.5;6.25;0.75;0.25;-0.208496;0.037109;0.989258;-0.77;-1.05;0.56;271.0;0.030707;-0.138676
3.28;1.75;0.75;2.0;2.25;2.0;3.5;0.25;2.0;0.25;0.5;0.25;0.25;0.75;2.75;0.25;0.5;-0.178711;0.020996;0.993164;-0.49;0.56;0.49;235.0;-0.073512;-0.104835;0.0;1.25;1.0;1.25;2.25;4.5;0.0;3.0;0.25;0.0;0.0;0.75;1.5;6.25;0.75;0.5;-0.207031;0.033203;0.991699;-0.63;-0.98;0.56;266.0;0.032665;-0.136452
3.29;1.75;1.0;2.25;2.25;2.0;3.5;0.0;2.0;0.25;0.75;0.25;0.25;0.75;2.75;0.0;0.25;-0.178223;0.02832;0.999512;-0.56;0.63;0.49;235.0;-0.087176;-0.105981;0.25;1.5;1.0;1.5;2.25;4.5;0.0;3.0;0.25;0.25;0.25;0.75;1.5;6.0;0.25;0.5;-0.208496;0.034668;0.990723;-0.7;-0.91;0.49;272.0;0.013509;-0.136666
3.3;1.5;1.0;1.75;2.0;2.25;3.25;0.0;2.0;0.25;0.25;0.25;0.25;0.75;3.0;0.0;0.25;-0.178223;0.026855;0.993164;-0.63;0.56;0.56;220.0;-0.078263;-0.109396;0.25;1.25;1.0;1.5;2.5;4.5;0.0;3.0;0.25;0.25;0.0;1.0;1.5;6.0;0.0;0.25;-0.208496;0.037598;0.987305;-0.56;-0.84;0.63;268.0;0.009698;-0.135706
3.31;1.5;0.75;2.0;1.75;2.0;3.25;0.0;2.0;0.25;0.25;0.25;0.25;0.75;3.25;0.25;0.25;-0.177734;0.025391;0.996582;-0.49;0.7;0.49;220.0;-0.061949;-0.103352;0.0;1.25;0.75;1.75;2.5;4.5;0.0;3.0;0.25;0.25;0.0;1.0;1.5;6.25;0.25;0.25;-0.208496;0.035156;0.989258;-0.63;-0.98;0.56;271.0;0.021496;-0.138532
3.32;1.75;0.75;1.75;1.75;2.25;3.25;0.0;2.0;0.25;0.25;0.25;0.25;0.75;3.0;0.0;0.5;-0.181641;0.025391;0.995117;-0.7;0.84;0.49;219.0;-0.072729;-0.105717;0.0;0.75;0.75;1.5;2.25;4.5;0.0;3.0;0.25;0.0;0.0;1.0;1.5;6.25;0.5;0.5;-0.206543;0.032715;0.987793;-0.49;-0.84;0.56;261.0;0.03896;-0.141879
3.33;1.75;0.75;1.75;1.75;2.0;3.0;0.0;2.0;0.25;0.25;0.5;0.25;0.75;3.25;0.25;0.25;-0.177246;0.030273;0.995117;-0.63;0.7;0.49;219.0;-0.05854;-0.101158;0.0;1.25;0.75;1.5;2.25;4.5;0.0;3.0;0.25;0.0;0.25;0.75;1.5;6.25;1.0;0.75;-0.202637;0.032715;0.981934;-0.42;-0.7;0.56;273.0;0.04021;-0.140116
3.34;1.75;0.75;1.75;1.75;2.0;3.25;0.0;2.0;0.25;0.25;0.25;0.0;1.0;3.0;0.25;0.25;-0.174805;0.030762;0.995605;-0.63;0.7;0.63;217.0;-0.069707;-0.107646;0.0;1.25;1.0;1.5;2.25;4.75;0.0;3.0;0.25;0.25;0.0;0.75;1.5;6.25;1.0;0.5;-0.20752;0.035156;0.987793;-0.21;-0.77;0.63;278.0;0.033227;-0.136259
3.35;1.5;1.0;1.75;1.75;2.0;3.5;0.0;2.0;0.25;0.25;0.25;0.25;0.75;2.75;0.25;0.25;-0.179199;0.028809;1.005371;-0.7;0.91;0.56;217.0;-0.074576;-0.115103;0.0;1.25;0.5;1.25;2.0;4.75;0.0;3.0;0.25;0.25;0.0;1.0;1.5;6.75;1.0;0.5;-0.206055;0.035156;0.986328;-0.21;-0.63;0.7;273.0;0.053443;-0.138835
3.36;1.5;0.75;1.75;1.75;2.0;3.25;0.0;2.0;0.25;0.5;0.0;0.5;0.75;2.75;0.25;0.0;-0.181641;0.02832;0.995117;-0.7;0.77;0.49;213.0;-0.06848;-0.110962;0.0;1.0;0.5;1.25;2.0;4.5;0.0;3.0;0.25;0.25;0.0;1.0;1.5;6.75;0.5;0.5;-0.20459;0.036621;0.986328;-0.07;-0.63;0.56;262.0;0.052547;-0.138289
3.37;1.75;0.5;2.0;1.75;2.0;3.5;0.0;1.75;0.25;0.25;0.0;0.25;0.75;3.0;0.25;0.0;-0.179199;0.030762;1.001465;-0.56;0.7;0.63;212.0;-0.076555;-0.097929;0.0;1.0;0.75;1.5;2.25;4.5;0.0;3.0;0.25;0.25;0.25;1.0;1.5;7.25;0.75;0.75;-0.208496;0.034668;0.985352;-0.21;-0.56;0.49;283.0;0.056501;-0.129577
3.38;1.5;0.75;1.75;2.0;2.0;3.5;0.0;1.75;0.25;0.25;0.25;0.0;0.75;3.25;0.25;0.25;-0.175781;0.028809;0.994629;-0.63;0.56;0.63;215.0;-0.068025;-0.101968;0.0;1.25;0.75;1.5;2.0;4.5;0.0;3.0;0.25;0.25;0.25;1.0;1.5;7.25;0.25;0.75;-0.20752;0.03125;0.988281;-0.35;-0.63;0.63;277.0;0.046886;-0.13296
3.39;1.5;0.75;1.75;1.75;2.0;3.0;0.25;2.0;0.25;0.25;0.25;0.25;0.75;3.25;0.25;0.25;-0.183105;0.028809;0.999023;-0.63;0.91;0.49;218.0;-0.055171;-0.097191;0.0;1.0;0.75;1.25;2.25;5.0;0.0;3.25;0.25;0.25;0.5;1.0;1.5;6.75;0.25;0.75;-0.213867;0.037109;0.986816;-0.28;-0.77;0.56;283.0;0.043477;-0.141316
3.4;1.5;0.75;2.0;2.0;2.0;3.0;0.0;2.0;0.25;0.25;0.25;0.25;0.75;2.75;0.25;0.25;-0.180664;0.028809;0.999512;-0.63;1.05;0.49;215.0;-0.074097;-0.108769;0.0;1.0;0.75;1.25;2.0;4.75;0.0;3.25;0.25;0.0;0.25;1.0;2.0;7.25;0.75;0.75;-0.205566;0.037109;0.983398;-0.35;-0.84;0.63;286.0;0.058876;-0.14328
3.41;1.5;0.75;1.75;1.75;2.0;3.0;0.0;2.0;0.25;0.25;0.0;0.25;0.75;3.25;0.25;0.25;-0.176758;0.030762;0.992676;-0.7;0.77;0.56;211.0;-0.061635;-0.103577;0.0;1.25;0.5;1.25;2.0;4.5;0.0;3.25;0.25;0.25;0.25;1.0;1.75;7.25;1.0;0.5;-0.209473;0.032227;0.987305;-0.42;-0.98;0.63;284.0;0.063199;-0.138414
3.42;1.25;0.75;1.75;1.75;2.0;3.0;0.0;1.75;0.25;0.25;0.0;0.5;0.75;3.25;0.25;0.25;-0.179688;0.030762;0.996582;-0.63;0.63;0.56;207.0;-0.054189;-0.103353;0.25;1.0;0.5;1.5;2.0;5.0;0.0;3.25;0.25;0.25;0.25;1.0;1.75;7.5;1.0;0.5;-0.212402;0.032715;0.987793;-0.35;-1.12;0.63;296.0;0.057686;-0.136915
3.43;1.5;1.0;1.75;1.75;2.0;3.25;0.0;1.75;0.25;0.5;0.25;0.5;0.75;3.25;0.25;0.25;-0.177734;0.030762;0.998047;-0.63;0.56;0.63;221.0;-0.056698;-0.101644;0.25;0.75;0.75;1.5;2.0;5.0;0.0;3.5;0.25;0.25;0.25;1.0;1.75;7.5;1.0;0.75;-0.20752;0.035645;0.989258;-0.63;-1.26;0.56;302.0;0.058896;-0.138765
3.44;1.5;0.75;1.75;1.75;2.0;3.0;0.0;2.0;0.25;0.5;0.0;0.25;0.75;3.25;0.5;0.25;-0.179688;0.032227;0.994141;-0.77;0.35;0.56;216.0;-0.051451;-0.101095;0.0;1.25;0.75;1.5;2.25;4.75;0.0;3.5;0.0;0.25;0.5;1.0;2.0;7.25;1.0;0.75;-0.209961;0.033203;0.990234;-0.42;-1.19;0.7;304.0;0.052959;-0.147809
3.45;2.0;0.75;2.0;2.0;2.0;3.25;0.0;2.0;0.25;0.25;0.0;0.25;0.75;3.0;0.25;0.25;-0.177246;0.03125;0.991699;-0.7;0.21;0.56;223.0;-0.082267;-0.102367;0.0;1.25;0.75;1.25;2.25;4.75;0.0;3.75;0.25;0.0;0.5;1.25;2.0;6.75;1.0;1.0;-0.205566;0.033691;0.989746;-0.42;-1.19;0.63;305.0;0.053525;-0.154547
3.46;1.5;1.0;1.75;1.5;2.0;3.25;0.0;2.0;0.25;0.25;0.25;0.25;0.75;3.0;0.25;0.25;-0.179688;0.02832;0.996094;-0.77;0.42;0.63;214.0;-0.065217;-0.108188;0.0;1.25;0.75;1.5;2.25;4.75;0.0;3.5;0.0;0.0;0.25;1.25;2.0;6.75;1.0;0.5;-0.214844;0.033203;0.991699;-0.35;-0.98;0.7;295.0;0.043773;-0.155895
3.47;1.25;1.0;1.75;1.75;2.0;3.0;0.0;2.0;0.5;0.25;0.25;0.25;0.5;3.25;0.25;0.25;-0.174805;0.030762;0.998047;-0.63;0.7;0.56;214.0;-0.054703;-0.097045;0.0;1.25;1.0;1.5;2.25;5.25;0.0;3.5;0.25;0.25;0.25;1.0;2.0;7.25;1.0;0.25;-0.209473;0.038086;0.985352;-0.28;-0.84;0.63;310.0;0.043716;-0.141726
3.48;1.0;0.75;1.75;1.75;2.0;3.25;0.0;2.0;0.25;0.25;0.25;0.25;0.5;3.25;0.0;0.0;-0.180664;0.023438;0.999023;-0.56;0.77;0.56;204.0;-0.061776;-0.10675;0.25;1.25;0.75;1.5;2.25;5.0;0.0;3.5;0.25;0.25;0.25;1.0;2.0;6.75;1.0;0.25;-0.204102;0.037598;0.987305;-0.42;-0.63;0.7;303.0;0.038919;-0.145323
3.49;1.5;0.75;1.75;1.5;1.75;3.25;0.0;1.75;0.25;0.5;0.0;0.25;0.75;3.25;0.25;0.0;-0.17334;0.027344;0.999023;-0.63;0.7;0.56;205.0;-0.058574;-0.096978;0.25;1.25;0.75;1.5;2.5;5.0;0.0;3.5;0.0;0.0;0.5;1.0;2.0;6.75;1.0;0.25;-0.205566;0.033691;0.98877;-0.35;-0.7;0.63;302.0;0.034588;-0.149931
3.5;1.75;0.75;1.75;1.5;2.0;3.0;0.0;1.75;0.25;0.25;0.25;0.25;0.75;3.25;0.25;0.25;-0.175781;0.025879;0.990234;-0.63;0.7;0.56;209.0;-0.060068;-0.0934;0.0;1.25;1.0;1.5;2.25;5.0;0.0;3.5;0.25;0.25;0.0;1.25;2.0;6.75;1.0;0.25;-0.208496;0.03418;0.983887;-0.42;-0.63;0.63;303.0;0.039822;-0.147038
3.51;1.25;0.75;1.75;1.75;2.0;3.0;0.0;1.75;0.25;0.25;0.25;0.25;0.75;3.25;0.25;0.25;-0.183105;0.030762;0.996582;-0.7;0.77;0.49;207.0;-0.053971;-0.100847;0.0;1.25;0.75;1.5;2.25;5.0;0.0;3.5;0.25;0.25;0.25;1.0;2.0;6.75;0.5;0.25;-0.210938;0.033691;0.983398;-0.35;-0.77;0.63;294.0;0.03598;-0.148999
3.52;1.0;0.75;1.75;1.75;2.0;3.5;0.0;1.75;0.0;0.25;0.0;0.25;0.75;3.25;0.25;0.0;-0.172852;0.030762;0.996582;-0.63;0.56;0.63;202.0;-0.064478;-0.113735;0.0;1.25;0.75;1.75;2.0;5.0;0.0;3.75;0.25;0.25;0.25;1.25;2.25;6.75;0.5;0.5;-0.208496;0.033203;0.984375;-0.35;-0.84;0.7;305.0;0.037956;-0.159726
3.53;1.25;1.0;1.75;1.5;2.0;3.0;0.25;2.0;0.0;0.25;0.25;0.25;0.75;3.25;0.25;0.25;-0.175781;0.028809;0.993164;-0.7;0.49;0.56;211.0;-0.056801;-0.105267;0.25;1.25;0.25;1.75;2.25;5.0;0.0;3.75;0.25;0.0;0.0;1.25;2.5;6.75;0.75;0.5;-0.20752;0.03125;0.980957;-0.28;-0.77;0.7;304.0;0.039176;-0.164152
3.54;1.25;0.75;1.75;1.75;2.0;3.0;0.0;1.75;0.25;0.75;0.0;0.25;0.75;3.25;0.25;0.25;-0.178711;0.028809;0.996582;-0.77;0.56;0.56;209.0;-0.049801;-0.09617;0.0;1.25;0.25;1.75;2.0;5.25;0.0;3.75;0.25;0.25;0.0;1.25;2.25;6.75;1.0;0.75;-0.210449;0.03418;0.984863;-0.28;-0.77;0.63;306.0;0.048882;-0.165489
3.55;1.25;0.75;1.75;1.5;2.0;3.0;0.0;1.75;0.25;0.25;0.0;0.25;0.75;3.5;0.25;0.25;-0.181152;0.026367;0.998535;-0.7;0.77;0.63;203.0;-0.04913;-0.09562;0.0;1.25;0.75;1.5;2.0;5.0;0.0;3.75;0.25;0.0;0.25;1.25;2.25;6.75;1.0;0.75;-0.208496;0.029785;0.985352;-0.28;-0.56;0.63;306.0;0.04774;-0.160454
3.56;1.25;0.75;1.75;1.75;2.0;3.0;0.0;1.75;0.25;0.25;0.25;0.25;0.75;3.25;0.25;0.25;-0.175293;0.032227;0.989746;-0.63;0.63;0.63;207.0;-0.053971;-0.100847;0.0;0.5;1.0;1.25;1.75;5.25;0.0;3.5;0.25;0.0;0.25;1.25;2.25;6.75;1.0;0.75;-0.210449;0.038574;0.985352;-0.28;-0.49;0.56;295.0;0.060415;-0.15719
3.57;1.5;1.0;1.75;1.75;2.0;3.25;0.0;1.75;0.25;0.25;0.25;0.25;0.75;3.5;0.25;0.25;-0.177734;0.02832;0.993652;-0.63;0.7;0.49;217.0;-0.059084;-0.098254;0.25;1.25;0.5;1.25;2.0;5.25;0.0;3.75;0.25;0.25;0.25;1.25;2.25;6.75;1.0;1.0;-0.206055;0.035156;0.986328;-0.35;-0.56;0.63;310.0;0.051287;-0.159585
3.58;1.5;1.0;1.75;1.75;2.0;3.25;0.0;2.0;0.25;0.25;0.25;0.25;0.75;3.25;0.25;0.25;-0.168945;0.030273;0.995117;-0.7;0.63;0.42;219.0;-0.063195;-0.106757;0.25;1.25;0.5;1.25;2.0;5.0;0.0;3.75;0.25;0.25;0.25;1.0;2.25;6.75;1.0;1.0;-0.208496;0.037598;0.98877;-0.28;-0.56;0.63;304.0;0.051794;-0.157195
3.59;1.5;0.75;1.75;1.75;2.0;3.0;0.0;1.75;0.5;0.25;0.25;0.25;0.75;3.25;0.0;0.25;-0.180664;0.025391;0.997559;-0.77;0.56;0.56;210.0;-0.059689;-0.091893;0.25;1.5;0.5;1.5;1.75;5.0;0.0;3.75;0.0;0.25;0.5;1.25;2.25;6.75;1.0;0.75;-0.213867;0.034668;0.984375;-0.28;-0.7;0.56;308.0;0.045598;-0.165232
3.6;1.0;0.75;1.75;1.75;2.0;3.0;0.0;1.75;0.25;0.25;0.5;0.25;0.75;3.5;0.0;0.25;-0.177246;0.025879;0.990234;-0.77;0.63;0.49;206.0;-0.046457;-0.101057;0.25;1.25;0.75;1.25;1.75;5.0;0.0;3.75;0.25;0.25;0.25;1.25;2.5;7.25;1.0;0.75;-0.205566;0.034668;0.990234;-0.35;-0.91;0.56;313.0;0.056619;-0.154744
3.61;1.5;0.5;1.75;1.75;2.0;3.25;0.0;1.75;0.25;0.25;0.25;0.25;0.75;3.25;0.25;0.75;-0.179199;0.032227;0.995117;-0.84;0.56;0.56;213.0;-0.04993;-0.10265;0.25;1.0;0.75;1.5;2.0;5.0;0.0;3.75;0.25;0.0;0.25;1.25;2.5;7.25;1.25;1.0;-0.211914;0.033203;0.988281;-0.42;-1.05;0.49;318.0;0.058344;-0.155315
3.62;1.5;0.75;1.75;1.75;2.0;3.0;0.0;1.75;0.25;0.25;0.25;0.25;0.75;3.25;0.25;0.5;-0.18457;0.032227;0.998535;-0.77;0.42;0.56;211.0;-0.055748;-0.099527;0.0;1.0;0.75;1.75;2.0;5.25;0.0;3.75;0.25;0.0;0.25;1.25;2.5;6.75;1.5;0.75;-0.210449;0.037598;0.989746;-0.35;-1.19;0.56;318.0;0.053786;-0.162891
3.63;1.25;0.75;1.75;1.75;2.0;3.0;0.0;1.75;0.0;0.25;0.25;0.25;0.75;3.5;0.25;0.5;-0.178223;0.025879;1.000488;-0.63;0.49;0.56;207.0;-0.051134;-0.105732;0.0;1.25;0.5;1.5;2.0;5.25;0.0;4.0;0.0;0.0;0.25;1.25;2.75;7.25;1.0;0.75;-0.205078;0.035645;0.987305;-0.35;-1.19;0.56;316.0;0.05291;-0.171412
3.64;1.5;0.75;1.5;1.5;2.0;3.0;0.0;1.75;0.25;0.25;0.25;0.25;0.75;3.5;0.0;0.25;-0.175781;0.027832;0.995117;-0.84;0.56;0.63;203.0;-0.053391;-0.096024;0.25;1.25;0.75;1.25;2.0;5.25;0.0;4.0;0.25;0.25;0.25;1.25;2.5;7.25;1.0;1.0;-0.206543;0.035156;0.986816;-0.35;-1.26;0.56;325.0;0.053525;-0.157594
3.65;1.5;1.0;1.75;1.5;2.0;3.0;0.0;1.75;0.25;0.5;0.25;0.25;0.75;3.25;0.0;0.25;-0.178711;0.029297;0.993652;-0.7;0.28;0.49;209.0;-0.062051;-0.09503;0.25;1.25;1.0;1.25;2.0;5.0;0.0;3.75;0.25;0.25;0.25;1.25;2.25;7.5;1.0;0.75;-0.211426;0.035156;0.986328;-0.28;-1.26;0.49;319.0;0.053586;-0.145692
3.66;1.5;1.0;1.75;1.75;2.0;3.0;0.0;1.75;0.25;0.25;0.25;0.25;0.75;3.5;0.0;0.5;-0.183105;0.030273;0.996094;-0.84;0.28;0.49;213.0;-0.061152;-0.097527;0.25;1.25;0.75;1.5;2.0;5.25;0.0;4.0;0.25;0.25;0.25;1.25;2.5;7.5;1.0;0.75;-0.195801;0.071777;0.991699;0.07;-1.26;0.35;328.0;0.05157;-0.155137
3.67;1.25;0.75;1.75;1.75;2.25;3.0;0.0;1.75;0.25;0.25;0.25;0.25;0.75;3.5;0.0;0.5;-0.174805;0.026855;0.988281;-0.84;0.42;0.49;211.0;-0.053214;-0.097215;0.25;1.25;0.5;1.5;1.75;5.5;0.0;4.25;0.25;0.25;0.5;1.25;2.5;7.5;0.75;1.0;-0.214844;0.031738;0.986328;-0.21;-1.12;0.56;331.0;0.053262;-0.164388
3.68;1.0;0.75;1.75;1.75;2.25;3.0;0.0;2.0;0.5;0.5;0.25;0.25;0.75;3.75;0.25;0.5;-0.182617;0.030273;0.993652;-0.77;0.42;0.56;223.0;-0.028578;-0.094268;0.25;1.25;0.75;1.5;2.0;5.25;0.0;4.25;0.25;0.25;0.5;1.5;2.75;7.5;0.75;0.75;-0.207031;0.038086;0.981934;-0.21;-1.05;0.7;338.0;0.051393;-0.161673
3.69;1.5;1.0;1.75;1.75;2.0;3.25;0.0;2.0;0.25;0.25;0.25;0.25;0.75;3.75;0.0;0.5;-0.176758;0.024414;0.994141;-0.63;0.49;0.56;222.0;-0.056508;-0.102511;0.25;1.25;0.75;1.5;1.75;5.25;0.0;4.0;0.25;0.25;0.5;1.5;2.75;7.5;0.25;0.75;-0.209473;0.035645;0.991211;-0.07;-1.05;0.56;325.0;0.04755;-0.162184
3.7;1.75;1.0;1.75;1.75;2.0;3.25;0.0;1.75;0.25;0.25;0.0;0.0;0.75;3.75;0.25;0.25;-0.168457;0.024902;0.998535;-0.56;0.42;0.63;217.0;-0.065842;-0.089737;0.0;1.25;0.5;1.5;1.75;5.25;0.0;4.0;0.25;0.25;0.5;1.5;2.75;7.75;0.25;1.0;-0.208008;0.038086;0.98584;-0.07;-1.12;0.56;323.0;0.058517;-0.165185
3.71;1.5;0.75;1.75;1.75;2.0;3.25;0.25;1.75;0.25;0.25;0.25;0.25;0.75;3.75;0.25;0.25;-0.178711;0.02832;0.993164;-0.56;0.49;0.63;221.0;-0.04746;-0.088238;0.0;1.25;0.5;1.75;1.75;5.25;0.0;4.0;0.25;0.0;0.25;1.5;2.75;8.25;1.0;0.75;-0.209473;0.036621;0.984863;0.07;-0.98;0.56;332.0;0.065052;-0.160506
3.72;1.5;0.75;1.75;1.75;2.0;3.25;0.25;1.75;0.5;0.25;0.25;0.25;0.75;3.75;0.5;0.5;-0.179199;0.023926;0.998535;-0.49;0.63;0.56;229.0;-0.034387;-0.083957;0.0;1.5;0.5;1.5;1.75;5.25;0.0;4.25;0.0;0.0;0.25;1.25;3.0;8.25;1.5;1.0;-0.208496;0.040527;0.98291;0.21;-0.84;0.56;339.0;0.068224;-0.167706
3.73;1.5;0.75;1.5;1.75;2.0;3.5;0.25;1.75;0.75;0.25;0.25;0.25;0.75;3.75;0.5;0.5;-0.183594;0.032715;0.993652;-0.63;0.7;0.49;233.0;-0.028392;-0.083136;0.25;1.25;0.75;1.25;1.75;5.25;0.0;4.25;0.25;0.0;0.0;1.25;3.0;8.5;1.0;1.0;-0.209961;0.039062;0.989746;0.14;-0.7;0.56;336.0;0.065284;-0.157363
3.74;1.5;0.75;1.5;1.75;2.0;3.25;0.25;1.75;0.5;0.25;0.25;0.25;0.75;4.0;0.25;0.25;-0.174805;0.025879;0.992188;-0.56;0.7;0.63;224.0;-0.03487;-0.08211;0.25;1.0;0.5;1.25;1.75;5.25;0.0;4.0;0.0;0.25;0.0;1.5;3.0;9.0;1.0;0.75;-0.20459;0.03418;0.987305;0.21;-0.42;0.49;332.0;0.077184;-0.155196
3.75;1.5;0.75;1.75;1.5;2.0;3.25;0.0;1.75;0.25;0.25;0.25;0.25;0.75;3.75;0.25;0.25;-0.177246;0.02832;0.992188;-0.56;0.91;0.56;214.0;-0.046557;-0.092688;0.25;1.0;0.5;1.25;1.5;5.25;0.0;4.25;0.25;0.25;0.0;1.25;3.0;9.25;1.25;1.0;-0.20459;0.032715;0.988281;0.21;-0.56;0.7;340.0;0.084953;-0.152104
3.76;1.5;1.0;1.75;1.5;2.0;3.25;0.0;2.0;0.25;0.25;0.25;0.25;0.75;3.75;0.25;0.25;-0.181152;0.023926;0.998047;-0.49;0.77;0.56;221.0;-0.050136;-0.09917;0.0;1.0;0.5;1.25;1.25;5.25;0.0;4.25;0.25;0.0;0.0;1.25;3.0;9.25;1.25;1.0;-0.207031;0.036133;0.986328;0.42;-0.42;0.49;332.0;0.089682;-0.158109
3.77;1.75;0.75;1.75;1.5;2.0;3.0;0.0;1.75;0.5;0.25;0.25;0.0;0.75;4.0;0.0;0.5;-0.178711;0.030273;0.992188;-0.49;0.77;0.63;216.0;-0.04646;-0.077498;0.25;1.25;0.75;1.25;1.25;5.0;0.0;4.25;0.0;0.0;0.0;1.25;3.0;9.5;1.5;1.0;-0.225098;0.04541;0.981934;0.42;-0.49;0.28;339.0;0.083874;-0.154328
3.78;1.75;0.75;1.75;1.75;2.25;3.0;0.0;1.75;0.75;0.25;0.25;0.25;0.75;4.0;0.0;0.25;-0.17627;0.029785;0.993164;-0.56;0.77;0.42;226.0;-0.045332;-0.073285;0.0;1.0;0.75;1.25;1.5;5.0;0.0;4.0;0.0;0.0;0.25;1.5;3.0;9.75;1.25;1.0;-0.210449;0.037109;0.986328;0.35;-0.42;0.56;337.0;0.092793;-0.150805
3.79;1.5;0.75;1.75;1.5;2.0;3.0;0.25;1.75;0.5;0.25;0.25;0.25;0.75;4.0;0.0;0.25;-0.17627;0.03125;0.99707;-0.56;0.63;0.56;218.0;-0.038838;-0.075151;0.0;1.0;0.75;1.25;1.5;5.0;0.0;4.0;0.25;0.0;0.0;1.25;3.0;9.25;1.25;1.0;-0.204102;0.035156;0.986816;0.28;-0.49;0.49;331.0;0.087915;-0.14986
3.8;1.25;0.5;1.75;1.5;2.0;3.0;0.25;1.75;0.5;0.5;0.25;0.25;0.75;4.0;0.0;0.25;-0.184082;0.024902;0.997559;-0.63;0.63;0.56;216.0;-0.025965;-0.074669;0.0;1.0;0.5;1.25;1.25;4.75;0.0;4.0;0.25;0.0;0.25;1.25;3.0;8.5;1.5;1.0;-0.205078;0.041016;0.980469;0.28;-0.49;0.42;320.0;0.092537;-0.159182
3.81;1.5;0.75;1.5;1.5;2.0;3.0;0.0;1.75;0.25;0.5;0.25;0.5;0.75;4.0;0.25;0.25;-0.176758;0.02832;0.992676;-0.56;0.63;0.49;216.0;-0.029902;-0.090517;0.0;1.0;0.25;1.25;1.0;4.75;0.0;4.0;0.25;0.0;0.0;1.5;3.0;9.0;1.5;1.0;-0.20459;0.037109;0.990234;-0.0;-0.56;0.42;319.0;0.102512;-0.160347
3.82;1.25;0.75;1.5;1.25;2.0;3.0;0.0;1.75;0.5;0.5;0.25;0.25;0.75;4.0;0.25;0.25;-0.177246;0.021484;0.998535;-0.63;0.7;0.49;211.0;-0.019632;-0.082294;0.0;1.0;0.5;1.25;1.25;4.5;0.0;4.0;0.0;0.0;0.0;1.5;3.0;8.75;1.5;1.25;-0.208496;0.033691;0.977539;-0.0;-0.77;0.42;318.0;0.096413;-0.162879
3.83;1.5;0.75;1.5;1.5;2.0;3.0;0.0;1.75;0.75;0.5;0.25;0.25;0.75;4.25;0.25;0.25;-0.185059;0.024414;0.994629;-0.42;0.84;0.56;223.0;-0.019171;-0.073346;0.0;0.5;0.5;1.0;1.25;4.5;0.0;4.0;0.0;0.0;0.0;1.25;3.0;9.0;1.5;1.0;-0.209961;0.039551;0.986816;-0.07;-0.77;0.56;308.0;0.108641;-0.157687
3.84;1.25;0.75;1.5;1.5;2.0;3.25;0.0;2.0;0.5;0.5;0.5;0.25;0.75;4.0;0.25;0.25;-0.17627;0.030762;0.996582;-0.63;0.98;0.49;224.0;-0.021707;-0.092919;0.0;0.5;0.5;1.0;1.0;4.75;0.0;4.25;0.0;0.0;0.25;1.25;3.0;9.0;1.5;1.0;-0.214844;0.041016;0.993652;-0.07;-0.63;0.49;315.0;0.107871;-0.163584
3.85;1.0;0.75;1.25;1.5;2.0;3.0;0.0;2.0;0.25;0.5;0.5;0.25;0.75;4.25;0.0;0.5;-0.183594;0.022949;0.994629;-0.56;0.63;0.56;212.0;-0.014364;-0.100611;0.0;0.75;0.5;1.25;1.0;4.5;0.0;4.0;0.0;0.0;0.25;1.25;3.0;9.25;1.5;1.0;-0.213867;0.042969;0.987793;-0.28;-0.56;0.56;315.0;0.106205;-0.157631
3.86;1.0;0.75;1.5;1.5;2.0;3.0;0.0;2.0;0.5;0.5;0.5;0.5;0.75;4.25;0.0;0.25;-0.181152;0.024902;0.993164;-0.56;0.84;0.56;220.0;-0.013056;-0.093018;0.25;1.0;0.5;1.25;1.0;4.5;0.0;4.0;0.0;0.0;0.25;1.5;2.75;9.25;1.5;1.0;-0.212891;0.040527;0.988281;-0.21;-0.63;0.63;321.0;0.09806;-0.154356
3.87;1.0;0.75;1.5;1.5;2.0;2.75;0.0;2.0;0.25;0.5;0.5;0.25;0.75;4.25;0.25;0.25;-0.175781;0.029785;0.996582;-0.56;0.77;0.49;214.0;-0.012964;-0.093787;0.25;1.0;0.5;1.25;1.0;4.5;0.0;4.0;0.25;0.0;0.0;1.75;2.75;9.0;1.75;1.0;-0.209473;0.039062;0.986328;-0.28;-0.49;0.56;325.0;0.100127;-0.152962
3.88;1.5;0.75;1.5;1.5;2.0;3.0;0.25;2.0;0.25;0.5;0.5;0.0;0.75;4.5;0.5;0.25;-0.180176;0.026855;0.994141;-0.49;0.77;0.63;229.0;-0.015935;-0.079618;0.0;1.0;0.25;1.0;1.0;4.0;0.0;4.0;0.25;0.0;0.0;1.75;3.0;9.25;1.75;1.0;-0.205566;0.041504;0.987793;-0.28;-0.63;0.7;315.0;0.119458;-0.15458
3.89;1.5;0.75;1.5;1.5;2.0;3.0;0.25;1.75;0.5;0.5;0.5;0.0;0.75;4.75;0.5;0.5;-0.178711;0.032227;0.991699;-0.56;0.91;0.56;232.0;-0.00512;-0.067485;0.0;0.25;0.25;0.75;1.0;4.0;0.0;3.75;0.25;0.0;0.0;1.75;3.5;9.25;1.75;1.0;-0.209473;0.041016;0.984863;-0.28;-0.7;0.63;305.0;0.139309;-0.155105
3.9;1.25;0.5;1.5;1.5;2.0;3.0;0.25;1.75;0.5;0.25;0.75;0.25;0.75;4.25;0.25;0.5;-0.179688;0.025391;0.989746;-0.49;0.77;0.49;222.0;-0.006848;-0.078806;0.0;0.25;0.25;1.25;1.0;4.25;0.0;4.0;0.25;0.0;0.25;1.75;3.5;9.75;1.75;0.75;-0.209961;0.037598;0.984375;-0.28;-0.7;0.56;324.0;0.130474;-0.154684
3.91;1.0;0.5;1.0;1.5;2.0;2.75;0.25;1.75;0.75;0.5;0.5;0.25;0.75;4.25;0.0;0.5;-0.177246;0.024902;0.995117;-0.56;0.7;0.56;211.0;0.007001;-0.074988;0.0;0.75;0.5;1.25;1.0;4.5;0.0;4.0;0.0;0.0;0.25;1.75;3.0;9.75;1.75;1.0;-0.208984;0.040039;0.984375;-0.21;-0.56;0.56;329.0;0.114946;-0.15465
3.92;1.0;0.5;1.5;1.5;2.0;2.75;0.0;1.75;0.75;0.25;0.25;0.5;0.75;5.0;0.25;0.5;-0.179199;0.024902;0.993164;-0.56;0.77;0.56;220.0;0.012905;-0.072626;0.0;0.5;0.5;1.25;1.0;4.5;0.0;4.0;0.0;0.0;0.25;1.5;3.0;9.75;1.75;0.75;-0.211426;0.036621;0.983398;-0.35;-0.63;0.56;322.0;0.117156;-0.15257
3.93;1.25;0.25;1.5;1.5;2.0;2.75;0.0;1.75;0.25;0.0;0.25;0.25;1.0;4.5;0.25;0.5;-0.175293;0.027344;1.0;-0.77;0.7;0.49;205.0;-0.00919;-0.089963;0.0;0.5;0.25;1.0;0.75;4.5;0.0;4.0;0.0;0.0;0.25;1.25;3.0;9.75;1.75;1.0;-0.215332;0.033691;0.980957;-0.21;-0.63;0.56;311.0;0.127459;-0.15575
3.94;1.5;0.75;1.5;1.5;2.0;3.0;0.25;1.75;0.25;0.25;0.25;0.25;1.0;4.75;0.5;0.5;-0.180664;0.02832;0.998535;-0.7;0.7;0.49;228.0;-0.010682;-0.080825;0.0;0.75;0.25;1.0;1.0;4.25;0.0;4.0;0.25;0.0;0.25;1.25;3.0;9.75;1.75;1.0;-0.210449;0.041992;0.981445;-0.21;-0.63;0.49;317.0;0.124824;-0.147835
3.95;1.5;0.75;1.5;1.5;2.0;3.0;0.25;1.75;0.25;0.25;0.5;0.25;1.0;4.75;0.25;0.25;-0.182129;0.03125;1.001953;-0.63;0.84;0.49;227.0;-0.01541;-0.07973;0.25;0.75;0.25;1.0;1.0;4.25;0.0;4.0;0.25;0.0;0.25;1.25;3.0;9.75;1.75;0.75;-0.208496;0.03418;0.98291;-0.56;-0.49;0.63;319.0;0.119047;-0.144788
3.96;0.75;0.75;1.5;1.5;2.0;2.75;0.25;1.75;0.5;0.25;0.5;0.25;1.0;4.5;0.0;0.25;-0.178223;0.024902;0.994629;-0.56;0.7;0.56;214.0;-0.003878;-0.081369;0.0;0.75;0.25;0.75;1.0;4.25;0.0;4.0;0.0;0.25;0.25;1.25;3.0;9.25;1.75;0.75;-0.20752;0.043457;0.98584;-0.56;-0.7;0.56;307.0;0.122904;-0.154154
3.97;1.0;0.75;1.5;1.5;2.0;3.0;0.0;2.0;0.5;0.25;0.25;0.25;1.0;4.75;0.25;0.25;-0.179199;0.030762;0.995117;-0.56;0.7;0.56;222.0;-0.005966;-0.09021;0.0;0.5;0.25;1.0;1.0;4.25;0.0;4.0;0.25;0.0;0.25;1.5;3.5;9.5;1.75;0.75;-0.214355;0.041992;0.986328;-0.56;-0.77;0.56;319.0;0.127327;-0.155264
3.98;0.75;0.5;1.5;1.25;2.0;3.0;0.0;2.0;0.5;0.5;0.25;0.5;0.75;4.75;0.5;0.5;-0.179688;0.025879;0.989746;-0.49;0.63;0.56;221.0;0.019515;-0.088196;0.25;0.5;0.25;1.0;1.0;4.25;0.0;4.0;0.25;0.25;0.25;1.5;3.0;9.5;1.5;1.0;-0.211914;0.039062;0.986816;-0.56;-0.84;0.63;318.0;0.121549;-0.147817
3.99;0.75;0.5;1.5;1.5;1.75;3.0;0.25;2.0;0.75;0.25;0.25;0.25;0.75;4.5;0.25;0.5;-0.179199;0.027344;0.992188;-0.49;0.7;0.56;218.0;0.007648;-0.082087;0.0;1.0;0.25;1.0;1.0;4.25;0.0;4.0;0.25;0.0;0.0;1.5;3.0;9.75;2.0;1.0;-0.210938;0.037598;0.983887;-0.63;-0.77;0.63;323.0;0.12295;-0.148994
4.0;1.0;0.75;0.75;1.5;2.0;3.0;0.0;1.75;0.5;0.25;0.25;0.25;0.75;4.5;0.25;0.5;-0.176758;0.030273;0.999512;-0.49;0.49;0.56;205.0;0.001626;-0.092474;0.0;1.0;0.25;1.0;1.0;4.5;0.0;4.0;0.25;0.0;0.0;1.5;3.0;9.5;1.5;1.25;-0.215332;0.038086;0.986816;-0.7;-0.77;0.56;319.0;0.114258;-0.154486
4.01;1.25;0.75;1.5;1.5;1.75;3.0;0.25;1.75;0.5;0.5;0.0;0.25;0.75;4.5;0.25;0.5;-0.178223;0.029785;0.992676;-0.49;0.63;0.56;218.0;-0.011419;-0.075697;0.25;0.75;0.25;1.25;1.0;4.25;0.0;4.0;0.25;0.0;0.0;2.0;3.0;9.5;1.5;1.0;-0.209473;0.03418;0.981445;-0.56;-0.84;0.56;324.0;0.113134;-0.153437
4.02;0.75;0.75;1.5;1.5;1.75;3.0;0.0;1.75;0.75;0.25;0.0;0.25;1.0;4.5;0.25;0.25;-0.178711;0.024902;0.992188;-0.56;0.56;0.63;210.0;-0.00211;-0.085483;0.0;0.75;0.25;0.75;1.0;4.5;0.0;3.75;0.25;0.25;0.0;1.75;3.5;9.0;1.75;1.0;-0.210449;0.042969;0.988281;-0.77;-1.05;0.63;317.0;0.123887;-0.157967
4.03;0.75;0.5;1.5;1.5;2.0;3.0;0.0;2.0;0.25;0.25;0.25;0.25;1.0;4.5;0.5;0.5;-0.177246;0.029785;0.998535;-0.49;0.56;0.63;215.0;0.003233;-0.102336;0.0;1.0;0.25;0.75;0.75;4.5;0.0;4.0;0.25;0.0;0.0;1.5;3.5;9.25;1.5;1.0;-0.208984;0.034668;0.98291;-0.77;-1.05;0.7;314.0;0.117848;-0.162187
4.04;0.75;0.5;1.5;1.5;1.75;2.75;0.0;1.75;0.25;0.25;0.25;0.25;1.0;4.25;0.25;0.25;-0.180664;0.024902;0.990234;-0.63;0.56;0.63;198.0;-0.005485;-0.098163;0.0;0.5;0.5;1.0;1.0;4.25;0.0;4.0;0.25;0.0;0.25;1.5;3.0;9.5;2.0;1.0;-0.207031;0.041016;0.984863;-0.77;-1.12;0.63;321.0;0.126548;-0.148528
4.05;1.25;0.5;1.5;1.5;1.75;2.75;0.0;1.75;0.0;0.25;0.25;0.25;0.75;4.5;0.0;0.25;-0.182617;0.027344;0.993652;-0.56;0.56;0.63;197.0;-0.024816;-0.091625;0.0;0.75;0.5;1.0;1.0;4.25;0.0;4.0;0.0;0.0;0.25;1.75;3.0;9.5;1.75;1.0;-0.207031;0.036133;0.98877;-0.77;-1.12;0.63;320.0;0.119035;-0.155302
4.06;1.0;0.5;1.5;1.5;2.0;2.75;0.0;1.75;0.25;0.25;0.25;0.25;0.75;4.5;0.5;0.25;-0.179688;0.029785;0.99707;-0.56;0.56;0.56;207.0;-0.004232;-0.085554;0.0;0.75;0.25;1.0;1.0;4.25;0.0;4.0;0.25;0.0;0.25;1.5;3.0;9.25;1.5;1.0;-0.211426;0.042969;0.983887;-0.84;-1.12;0.77;313.0;0.118714;-0.154625
4.07;1.0;0.5;1.5;1.5;1.75;3.0;0.0;1.75;0.25;0.25;0.25;0.25;0.75;5.0;0.75;0.5;-0.177246;0.032227;0.994141;-0.56;0.42;0.56;216.0;0.012365;-0.086036;0.0;0.75;0.25;1.0;1.0;4.75;0.0;4.0;0.0;0.0;0.25;1.75;3.0;9.0;1.5;1.0;-0.208984;0.042969;0.983398;-0.98;-1.05;0.7;316.0;0.110695;-0.16544
4.08;1.25;0.75;1.5;1.5;2.0;3.0;0.0;1.75;0.5;0.25;0.25;0.25;0.75;4.75;0.25;0.5;-0.183594;0.025391;0.996094;-0.63;0.56;0.56;220.0;-0.01038;-0.079447;0.0;0.75;0.5;1.25;1.0;4.75;0.0;4.0;0.0;0.0;0.25;1.25;2.75;9.0;1.75;1.0;-0.209961;0.044922;0.987305;-0.91;-1.05;0.7;316.0;0.103786;-0.158228
4.09;1.5;0.25;1.5;1.5;2.0;2.75;0.25;1.75;0.5;0.25;0.25;0.25;0.75;4.25;0.25;0.25;-0.182129;0.03125;0.995605;-0.63;0.56;0.56;212.0;-0.014058;-0.069913;0.0;0.75;0.5;1.25;1.0;4.5;0.0;4.0;0.0;0.0;0.25;1.75;3.0;9.0;1.5;1.0;-0.20752;0.038574;0.98584;-0.98;-1.05;0.63;319.0;0.105803;-0.162559
4.1;1.25;0.25;1.5;1.25;2.0;3.0;0.25;1.75;0.5;0.0;0.25;0.25;1.0;4.75;0.25;0.25;-0.183594;0.025391;0.99707;-0.63;0.49;0.56;214.0;0.000922;-0.073649;0.25;0.75;0.5;1.0;1.0;4.5;0.0;4.0;0.0;0.0;0.25;1.75;3.0;9.0;1.5;1.0;-0.210449;0.043945;0.991211;-0.91;-1.12;0.63;319.0;0.104985;-0.159563
4.11;0.75;0.25;1.5;1.25;2.0;2.75;0.25;1.75;0.75;0.0;0.25;0.25;1.0;4.25;0.25;0.5;-0.178223;0.03125;0.997559;-0.56;0.49;0.56;205.0;0.011996;-0.077141;0.0;1.0;0.75;1.25;1.0;4.5;0.0;4.25;0.25;0.0;0.25;2.25;3.0;8.75;1.75;1.0;-0.209961;0.03418;0.989746;-0.98;-1.05;0.56;338.0;0.100886;-0.162431
4.12;1.0;0.5;1.25;1.0;1.75;2.5;0.25;1.75;0.5;0.25;0.25;0.25;0.75;4.25;0.0;0.75;-0.17627;0.027832;1.001465;-0.56;0.49;0.63;194.0;0.007752;-0.076536;0.0;1.0;0.75;1.25;1.0;4.5;0.0;4.0;0.0;0.0;0.25;1.75;3.0;8.75;1.75;1.0;-0.206543;0.039551;0.989746;-0.91;-1.05;0.77;325.0;0.098734;-0.161944
4.13;1.25;0.5;1.5;1.25;1.75;2.75;0.25;1.75;0.5;0.5;0.25;0.25;0.75;4.5;0.0;0.25;-0.182129;0.021973;0.991699;-0.49;0.42;0.56;208.0;-0.005682;-0.068412;0.25;0.5;0.5;1.25;1.0;4.5;0.0;4.0;0.25;0.0;0.25;1.5;3.0;8.5;1.75;0.75;-0.213867;0.041992;0.984375;-0.77;-0.98;0.7;316.0;0.103231;-0.157517
4.14;0.75;0.5;1.5;1.25;1.75;2.75;0.0;1.75;0.5;0.25;0.5;0.25;0.75;4.25;0.25;0.25;-0.182617;0.03125;0.993652;-0.63;0.42;0.63;199.0;0.004719;-0.085519;0.0;0.5;0.25;1.25;1.0;4.75;0.0;4.0;0.25;0.0;0.25;1.25;3.0;8.5;1.5;0.75;-0.208008;0.039062;0.989258;-0.7;-0.91;0.7;308.0;0.105258;-0.162938
4.15;0.5;0.5;1.5;1.5;1.75;2.75;0.25;1.75;0.5;0.0;0.25;0.5;0.75;4.0;0.25;0.5;-0.181152;0.034668;1.0;-0.7;0.7;0.56;200.0;0.001969;-0.093068;0.0;0.75;0.5;1.25;1.0;4.5;0.0;4.0;0.0;0.25;0.0;1.25;3.0;8.5;1.5;1.0;-0.210938;0.036133;0.985352;-0.7;-0.98;0.77;308.0;0.099405;-0.163548
4.16;0.75;0.75;1.5;1.5;1.75;2.75;0.0;1.75;0.5;0.25;0.25;0.25;0.5;3.75;0.25;0.25;-0.17627;0.03418;0.998535;-0.7;0.56;0.56;195.0;-0.020201;-0.089988;0.25;0.5;0.25;1.25;1.0;4.5;0.0;4.25;0.25;0.25;0.0;1.25;3.0;8.5;1.5;1.0;-0.208008;0.038086;0.984863;-0.77;-1.12;0.77;313.0;0.102879;-0.161564
4.17;1.0;0.5;1.5;1.5;1.75;3.0;0.0;1.75;0.5;0.25;0.25;0.25;0.5;4.0;0.25;0.25;-0.179199;0.027344;0.99707;-0.63;0.63;0.63;200.0;-0.017566;-0.085837;0.0;0.5;0.25;1.25;1.0;4.5;0.0;4.25;0.25;0.25;0.0;1.25;3.0;8.5;1.75;1.0;-0.210938;0.039551;0.983887;-0.84;-0.98;0.77;313.0;0.110237;-0.163279
