Time;left pressure 1[N/cm²];left pressure 2[N/cm²];left pressure 3[N/cm²];left pressure 4[N/cm²];left pressure 5[N/cm²];left pressure 6[N/cm²];left pressure 7[N/cm²];left pressure 8[N/cm²];left pressure 9[N/cm²];left pressure 10[N/cm²];left pressure 11[N/cm²];left pressure 12[N/cm²];left pressure 13[N/cm²];left pressure 14[N/cm²];left pressure 15[N/cm²];left pressure 16[N/cm²];left acceleration X[g];left acceleration Y[g];left acceleration Z[g];left angular X[dps];left angular Y[dps];left angular Z[dps];left total force[N];left center of pressure X[-0.5...+0.5];left center of pressure Y[-0.5...+0.5];right pressure 1[N/cm²];right pressure 2[N/cm²];right pressure 3[N/cm²];right pressure 4[N/cm²];right pressure 5[N/cm²];right pressure 6[N/cm²];right pressure 7[N/cm²];right pressure 8[N/cm²];right pressure 9[N/cm²];right pressure 10[N/cm²];right pressure 11[N/cm²];right pressure 12[N/cm²];right pressure 13[N/cm²];right pressure 14[N/cm²];right pressure 15[N/cm²];right pressure 16[N/cm²];right acceleration X[g];right acceleration Y[g];right acceleration Z[g];right angular X[dps];right angular Y[dps];right angular Z[dps];right total force[N];right center of pressure X[-0.5...+0.5];right center of pressure Y[-0.5...+0.5]
0.0;6.0;3.25;2.5;2.25;0.25;0.5;0.0;0.25;1.0;0.5;0.5;0.5;0.5;0.75;0.25;0.25;-0.200195;0.020508;0.996582;-0.77;0.63;0.49;219.0;-0.207172;-0.019119;5.0;4.25;3.0;4.0;0.5;2.0;0.0;1.0;0.25;0.5;0.75;0.75;1.5;1.25;0.5;0.5;-0.228027;0.036621;0.981934;-0.84;-1.12;0.7;291.0;-0.178968;-0.100209
0.01;6.0;3.25;2.5;2.25;0.25;0.5;0.0;0.25;1.0;0.5;0.5;0.5;0.5;0.75;0.25;0.25;-0.200195;0.020508;0.996582;-0.77;0.63;0.49;219.0;-0.207172;-0.019119;4.75;4.25;3.0;3.75;0.5;2.0;0.0;1.0;0.25;0.5;0.75;0.5;1.5;0.5;0.75;0.5;-0.229492;0.037109;0.980469;-0.84;-0.91;0.77;279.0;-0.188287;-0.105732
0.02;6.0;3.25;2.5;2.25;0.25;0.5;0.0;0.25;1.0;0.5;0.5;0.5;0.5;0.75;0.25;0.25;-0.200195;0.020508;0.996582;-0.77;0.63;0.49;219.0;-0.207172;-0.019119;4.5;4.25;3.0;3.5;0.5;2.25;0.0;1.0;0.25;0.5;0.75;0.5;1.5;0.5;0.75;0.25;-0.224609;0.042969;0.980469;-0.7;-0.98;0.7;274.0;-0.187556;-0.107335
0.03;6.0;3.25;2.5;2.25;0.25;0.5;0.0;0.25;1.0;0.5;0.5;0.5;0.5;0.75;0.25;0.25;-0.200195;0.020508;0.996582;-0.77;0.63;0.49;219.0;-0.207172;-0.019119;4.5;4.25;3.0;3.75;0.5;1.75;0.0;1.0;0.25;0.5;0.5;0.5;1.5;0.75;0.75;0.25;-0.229004;0.041016;0.983887;-0.7;-1.05;0.77;271.0;-0.188662;-0.102464
0.04;6.0;3.25;2.5;2.25;0.25;0.5;0.0;0.25;1.0;0.5;0.5;0.5;0.5;0.75;0.25;0.25;-0.200195;0.020508;0.996582;-0.77;0.63;0.49;219.0;-0.207172;-0.019119;4.5;4.25;3.0;3.75;0.5;1.75;0.0;1.0;0.5;0.25;0.5;0.5;1.25;0.5;0.5;0.25;-0.231445;0.040039;0.979004;-0.7;-0.98;0.84;264.0;-0.202215;-0.098627
0.05;6.0;3.25;2.5;2.25;0.25;0.5;0.0;0.25;1.0;0.5;0.5;0.5;0.5;0.75;0.25;0.25;-0.200195;0.020508;0.996582;-0.77;0.63;0.49;219.0;-0.207172;-0.019119;4.75;4.25;3.0;4.0;0.5;2.0;0.0;1.0;0.5;0.25;0.5;0.5;1.25;0.5;0.5;0.25;-0.233887;0.041504;0.983398;-0.63;-1.12;0.77;273.0;-0.204694;-0.099764
0.06;6.0;3.25;2.5;2.25;0.25;0.5;0.0;0.25;1.0;0.5;0.5;0.5;0.5;0.75;0.25;0.25;-0.200195;0.020508;0.996582;-0.77;0.63;0.49;219.0;-0.207172;-0.019119;4.75;4.5;3.0;4.0;0.5;1.5;0.0;1.0;0.25;0.25;0.5;0.5;1.5;0.5;0.5;0.5;-0.222168;0.033203;0.978027;-0.56;-0.98;0.84;270.0;-0.207578;-0.105864
0.07;6.0;3.25;2.5;2.25;0.25;0.5;0.0;0.25;1.0;0.5;0.5;0.5;0.5;0.75;0.25;0.25;-0.200195;0.020508;0.996582;-0.77;0.63;0.49;219.0;-0.207172;-0.019119;4.75;4.25;3.0;4.0;0.5;1.75;0.0;1.0;0.0;0.25;0.25;0.5;1.25;0.75;0.5;0.5;-0.229004;0.040039;0.981934;-0.56;-1.05;0.77;263.0;-0.213861;-0.106547
0.08;6.0;3.25;2.5;2.25;0.25;0.5;0.0;0.25;1.0;0.5;0.5;0.5;0.5;0.75;0.25;0.25;-0.200195;0.020508;0.996582;-0.77;0.63;0.49;219.0;-0.207172;-0.019119;4.75;4.25;3.0;4.0;0.5;1.75;0.0;1.0;0.0;0.25;0.5;0.5;1.25;0.5;0.5;0.25;-0.234863;0.038086;0.983887;-0.7;-1.05;0.7;263.0;-0.217849;-0.107995
0.09;6.0;3.25;2.5;2.25;0.25;0.5;0.0;0.25;1.0;0.5;0.5;0.5;0.5;0.75;0.25;0.25;-0.200195;0.020508;0.996582;-0.77;0.63;0.49;219.0;-0.207172;-0.019119;4.75;4.25;3.0;4.0;0.5;1.75;0.0;1.0;0.25;0.25;0.25;0.5;1.25;0.5;0.5;0.25;-0.229492;0.035156;0.980957;-0.77;-0.98;0.77;263.0;-0.216228;-0.102715
0.1;6.0;3.25;2.5;2.25;0.25;0.5;0.0;0.25;1.0;0.5;0.5;0.5;0.5;0.75;0.25;0.25;-0.200195;0.020508;0.996582;-0.77;0.63;0.49;219.0;-0.207172;-0.019119;4.75;4.25;3.0;4.0;0.5;1.75;0.0;1.0;0.0;0.25;0.25;0.75;1.5;0.75;0.5;0.5;-0.228027;0.043945;0.978027;-0.77;-0.91;0.77;269.0;-0.205969;-0.111684
0.11;6.0;3.25;2.5;2.25;0.25;0.5;0.0;0.25;1.0;0.5;0.5;0.5;0.5;0.75;0.25;0.25;-0.200195;0.020508;0.996582;-0.77;0.63;0.49;219.0;-0.207172;-0.019119;4.75;4.0;3.0;4.0;0.5;1.75;0.0;1.0;0.0;0.25;0.25;0.5;1.25;0.5;0.75;0.5;-0.225098;0.042969;0.979492;-0.84;-0.91;0.7;262.0;-0.210656;-0.108228
0.12;6.0;3.25;2.5;2.25;0.25;0.5;0.0;0.25;1.0;0.5;0.5;0.5;0.5;0.75;0.25;0.25;-0.200195;0.020508;0.996582;-0.77;0.63;0.49;219.0;-0.207172;-0.019119;4.75;4.25;3.0;4.0;0.5;1.75;0.0;1.0;0.25;0.25;0.25;0.5;1.0;0.5;0.5;0.5;-0.225586;0.037598;0.986816;-0.84;-0.98;0.77;262.0;-0.216433;-0.100683
0.13;6.0;3.25;2.5;2.25;0.25;0.5;0.0;0.25;1.0;0.5;0.5;0.5;0.5;0.75;0.25;0.25;-0.200195;0.020508;0.996582;-0.77;0.63;0.49;219.0;-0.207172;-0.019119;4.75;4.5;3.25;4.25;0.5;1.75;0.0;1.0;0.25;0.25;0.25;0.5;1.25;0.5;0.5;0.5;-0.227539;0.038086;0.97998;-0.98;-0.91;0.7;273.0;-0.216283;-0.103639
0.14;6.0;3.0;3.0;2.5;0.0;0.25;0.0;0.25;1.25;0.5;0.5;0.5;0.5;0.75;0.25;0.25;-0.197754;0.022949;0.996582;-0.84;0.77;0.49;223.0;-0.201879;-0.010247;5.25;4.75;3.25;4.25;0.5;2.0;0.0;1.0;0.25;0.25;0.5;0.5;1.0;0.5;0.5;0.5;-0.227539;0.04248;0.978516;-1.05;-0.91;0.7;285.0;-0.219848;-0.098905
0.15;5.75;3.25;3.0;2.5;0.25;0.25;0.0;0.25;1.25;0.5;0.5;0.5;0.25;0.5;0.25;0.25;-0.204102;0.032715;0.985352;-0.7;0.42;0.56;221.0;-0.211123;-0.009743;5.25;4.75;3.25;4.25;0.5;2.0;0.0;1.0;0.25;0.25;0.5;0.5;1.0;0.5;0.5;0.5;-0.231934;0.043945;0.979004;-1.05;-0.91;0.77;285.0;-0.219848;-0.098905
0.16;6.0;3.25;3.0;2.5;0.25;0.5;0.0;0.25;1.5;0.5;0.5;0.5;0.25;0.5;0.25;0.25;-0.202637;0.025879;0.98584;-0.49;0.42;0.56;230.0;-0.205463;-0.007273;4.75;4.75;3.25;4.25;0.5;2.25;0.0;1.0;0.25;0.25;0.5;0.5;1.25;0.5;0.5;0.5;-0.225098;0.036133;0.980957;-0.91;-0.98;0.77;285.0;-0.212275;-0.107853
0.17;6.0;3.25;3.0;2.5;0.25;0.5;0.0;0.25;1.5;0.25;0.25;0.25;0.5;0.5;0.0;0.25;-0.203125;0.020508;0.994141;-0.49;0.35;0.49;221.0;-0.226124;-0.006889;5.0;4.5;3.25;4.25;0.5;2.25;0.0;1.0;0.25;0.25;0.5;0.5;1.0;0.5;0.5;0.25;-0.227539;0.03418;0.977539;-0.77;-0.91;0.77;281.0;-0.21858;-0.101104
0.18;6.0;3.25;2.75;2.5;0.25;0.5;0.0;0.25;1.5;0.5;0.25;0.5;0.25;0.75;0.25;0.25;-0.200195;0.024902;0.993652;-0.49;0.42;0.49;227.0;-0.203769;-0.005307;5.0;4.5;3.25;4.25;0.5;1.75;0.0;1.0;0.0;0.25;0.5;0.5;1.25;0.5;0.5;0.5;-0.230957;0.039062;0.982422;-0.77;-0.98;0.63;275.0;-0.21975;-0.106492
0.19;6.0;3.25;2.75;2.5;0.0;0.5;0.0;0.25;1.5;0.5;0.5;0.25;0.25;0.75;0.25;0.25;-0.200195;0.021484;0.992188;-0.49;0.35;0.56;224.0;-0.204644;-0.003872;5.0;4.5;3.0;4.25;0.5;1.75;0.0;1.0;0.0;0.25;0.5;0.5;1.25;0.5;0.5;0.5;-0.231934;0.041504;0.976074;-0.77;-0.91;0.7;272.0;-0.219237;-0.108685
0.2;5.75;3.25;2.75;2.25;0.25;0.5;0.0;0.25;1.5;0.25;0.5;0.25;0.25;0.75;0.0;0.0;-0.195801;0.022461;0.995605;-0.42;0.56;0.56;214.0;-0.217789;0.000949;5.0;4.5;3.25;4.25;0.5;1.75;0.0;1.0;0.25;0.25;0.5;0.5;1.5;0.75;0.25;0.5;-0.228516;0.039551;0.975586;-0.84;-0.98;0.7;281.0;-0.211599;-0.102519
0.21;5.75;3.25;2.75;2.25;0.0;0.5;0.0;0.25;1.0;0.25;0.5;0.25;0.5;0.75;0.0;0.25;-0.199707;0.027832;0.991211;-0.56;0.7;0.56;207.0;-0.226957;-0.016857;5.0;4.75;3.25;4.25;0.5;2.0;0.0;1.0;0.25;0.25;0.5;0.5;1.0;0.75;0.25;0.5;-0.229004;0.039551;0.978027;-0.77;-0.91;0.56;282.0;-0.219179;-0.098882
0.22;5.75;3.0;2.5;2.25;0.0;0.5;0.0;0.25;1.0;0.25;0.25;0.5;0.5;0.75;0.0;0.0;-0.20166;0.020508;0.990723;-0.7;0.77;0.56;200.0;-0.228522;-0.016999;5.0;4.5;3.25;4.25;0.5;2.0;0.0;0.75;0.25;0.25;0.5;0.25;1.0;0.75;0.5;0.5;-0.224121;0.040039;0.980469;-0.84;-0.98;0.7;275.0;-0.218454;-0.091595
0.23;5.25;3.0;2.5;2.25;0.0;0.5;0.0;0.25;1.5;0.25;0.25;0.5;0.5;0.75;0.25;0.0;-0.194824;0.023438;0.991699;-0.63;0.7;0.63;205.0;-0.197836;-0.011211;5.25;4.75;3.25;4.0;0.5;2.0;0.0;1.0;0.25;0.0;0.5;0.25;1.25;0.75;0.5;0.5;-0.228027;0.041504;0.978516;-0.84;-0.77;0.7;281.0;-0.219693;-0.097947
0.24;5.25;3.0;2.5;2.25;0.25;0.5;0.0;0.25;1.5;0.25;0.5;0.25;0.5;0.75;0.0;0.25;-0.201172;0.023926;0.992188;-0.7;0.77;0.56;206.0;-0.200992;-0.008816;5.25;4.5;3.25;4.0;0.5;2.0;0.0;1.0;0.25;0.25;0.25;0.5;1.25;0.75;0.5;0.5;-0.227051;0.041992;0.980469;-0.91;-1.05;0.56;281.0;-0.213418;-0.097541
0.25;5.25;3.0;2.75;2.25;0.25;0.5;0.0;0.25;1.0;0.25;0.5;0.25;0.25;0.75;0.0;0.25;-0.199707;0.024414;0.996094;-0.77;0.63;0.7;200.0;-0.222715;-0.012119;5.5;4.5;3.25;4.25;0.5;2.0;0.0;1.0;0.25;0.25;0.25;0.25;1.5;0.75;0.5;0.25;-0.230469;0.037598;0.986816;-0.98;-1.05;0.7;285.0;-0.220171;-0.096718
0.26;5.25;3.0;2.5;2.5;0.0;0.5;0.0;0.25;1.0;0.25;0.5;0.25;0.25;0.75;0.0;0.25;-0.197266;0.025391;0.994629;-0.77;0.7;0.63;197.0;-0.224525;-0.018053;5.25;4.75;3.25;4.25;0.5;2.0;0.0;1.0;0.25;0.25;0.25;0.25;1.0;0.75;0.5;0.5;-0.230957;0.044922;0.979004;-1.12;-0.84;0.63;282.0;-0.223551;-0.09444
0.27;5.25;3.0;2.5;2.25;0.0;0.5;0.0;0.25;1.0;0.25;0.5;0.25;0.25;0.75;0.0;0.25;-0.206055;0.024902;0.992188;-0.77;0.77;0.56;194.0;-0.22355;-0.014853;5.25;4.25;3.25;4.25;0.5;1.75;0.0;0.75;0.25;0.25;0.25;0.25;1.0;0.75;0.75;0.25;-0.225586;0.041504;0.980469;-1.12;-0.91;0.63;271.0;-0.220501;-0.085245
0.28;5.25;3.0;2.5;2.25;0.25;0.5;0.0;0.25;1.5;0.25;0.5;0.25;0.25;0.75;0.25;0.25;-0.20166;0.025879;0.996582;-0.77;0.63;0.49;207.0;-0.196773;-0.004677;5.25;4.5;3.25;4.25;0.25;2.0;0.0;0.75;0.25;0.25;0.5;0.25;1.25;0.5;0.5;0.25;-0.224609;0.037598;0.974609;-0.98;-0.84;0.49;273.0;-0.226547;-0.095472
0.29;5.5;3.0;2.5;2.5;0.0;0.5;0.0;0.0;1.5;0.25;0.5;0.25;0.25;0.75;0.25;0.25;-0.205078;0.023438;0.993164;-0.7;0.63;0.63;205.0;-0.205724;0.000554;5.25;4.5;3.25;4.25;0.5;2.0;0.0;1.0;0.25;0.25;0.5;0.25;1.25;0.5;0.5;0.5;-0.226074;0.039551;0.974609;-0.77;-0.84;0.63;282.0;-0.219221;-0.099325
0.3;5.5;3.0;2.5;2.25;0.0;0.5;0.0;0.25;1.25;0.25;0.25;0.25;0.25;0.75;0.25;0.25;-0.198242;0.024414;0.99707;-0.77;0.77;0.56;200.0;-0.2149;-0.007458;5.0;4.5;3.25;4.0;0.5;2.0;0.0;1.0;0.0;0.0;0.5;0.5;1.25;0.75;0.5;0.5;-0.226562;0.036621;0.978516;-0.63;-0.91;0.56;275.0;-0.217698;-0.106364
0.31;5.75;3.0;2.5;2.25;0.25;0.5;0.0;0.25;1.0;0.25;0.25;0.25;0.5;0.75;0.0;0.0;-0.198242;0.019043;0.994141;-0.7;0.63;0.63;200.0;-0.233268;-0.011817;5.0;4.5;3.25;4.0;0.5;1.75;0.0;1.0;0.0;0.25;0.5;0.25;1.25;0.75;0.5;0.5;-0.229492;0.040039;0.978027;-0.63;-0.91;0.49;272.0;-0.218147;-0.100758
0.32;5.75;3.25;2.5;2.25;0.0;0.25;0.0;0.25;1.0;0.25;0.25;0.25;0.25;0.5;0.0;0.0;-0.200684;0.025879;0.99707;-0.63;0.49;0.63;192.0;-0.251337;-0.007724;4.75;4.25;3.0;4.0;0.5;2.0;0.0;1.0;0.0;0.25;0.5;0.25;1.25;0.75;0.25;0.5;-0.228516;0.039551;0.980469;-0.7;-0.77;0.56;264.0;-0.219775;-0.106726
0.33;5.5;3.25;2.5;2.25;0.0;0.25;0.0;0.25;0.75;0.25;0.5;0.25;0.25;0.5;0.0;0.25;-0.200195;0.020996;0.995117;-0.49;0.56;0.7;190.0;-0.246682;-0.018769;4.75;4.0;2.75;3.75;0.5;1.75;0.0;0.75;0.25;0.25;0.5;0.25;1.0;0.75;0.5;0.5;-0.226074;0.040527;0.977051;-0.63;-0.84;0.56;252.0;-0.210412;-0.09142
0.34;5.75;3.25;2.75;2.5;0.0;0.5;0.0;0.25;1.0;0.25;0.25;0.25;0.25;0.5;0.0;0.25;-0.200195;0.023926;1.0;-0.42;0.42;0.7;203.0;-0.246162;-0.015599;4.5;4.0;3.0;3.75;0.25;1.5;0.0;1.0;0.25;0.0;0.5;0.25;1.25;0.75;0.5;0.5;-0.230957;0.038086;0.978027;-0.63;-0.77;0.63;250.0;-0.208864;-0.101415
0.35;5.25;3.25;2.75;2.25;0.25;0.5;0.0;0.25;1.0;0.25;0.25;0.25;0.25;0.5;0.0;0.0;-0.203125;0.02002;0.990234;-0.28;0.7;0.7;196.0;-0.243722;-0.012556;4.5;4.0;3.0;3.75;0.5;1.75;0.0;1.0;0.25;0.0;0.5;0.25;1.25;0.75;0.25;0.5;-0.234375;0.035645;0.97998;-0.77;-0.77;0.63;253.0;-0.214191;-0.101719
0.36;5.75;3.25;2.5;2.5;0.0;0.25;0.0;0.25;0.75;0.25;0.25;0.25;0.25;0.75;0.0;0.25;-0.204102;0.019043;0.984863;-0.42;0.7;0.77;196.0;-0.248662;-0.016328;4.5;4.25;3.0;4.0;0.25;1.0;0.0;1.0;0.25;0.0;0.5;0.25;1.25;0.75;0.5;0.5;-0.234375;0.040527;0.977051;-0.91;-0.91;0.63;249.0;-0.21326;-0.099464
0.37;5.75;3.25;2.75;2.75;0.0;0.25;0.0;0.25;0.75;0.25;0.5;0.25;0.25;0.75;0.0;0.25;-0.199707;0.028809;0.991699;-0.35;0.7;0.77;204.0;-0.242844;-0.019205;4.5;4.0;3.0;3.75;0.25;1.5;0.0;0.75;0.0;0.0;0.5;0.25;1.25;0.5;0.5;0.5;-0.234375;0.036621;0.980469;-0.91;-0.91;0.56;240.0;-0.225229;-0.104679
0.38;5.75;3.25;2.75;2.5;0.0;0.25;0.0;0.25;0.75;0.5;0.25;0.25;0.25;0.25;0.0;0.0;-0.199219;0.024902;0.997559;-0.35;0.63;0.77;195.0;-0.262146;-0.01587;4.5;4.25;3.0;3.75;0.25;1.75;0.0;0.75;0.0;0.25;0.5;0.25;1.25;0.5;0.25;0.25;-0.226562;0.036133;0.974121;-0.91;-0.91;0.56;244.0;-0.231887;-0.104398
0.39;5.75;3.25;2.75;2.5;0.25;0.5;0.0;0.25;0.75;0.25;0.25;0.25;0.25;0.25;0.0;0.0;-0.19873;0.021973;0.992188;-0.49;0.7;0.63;198.0;-0.265628;-0.019698;4.5;4.0;3.0;4.0;0.25;2.0;0.0;0.75;0.25;0.25;0.5;0.25;1.25;0.5;0.25;0.25;-0.22998;0.040527;0.978027;-1.05;-0.84;0.63;251.0;-0.22279;-0.101816
0.4;6.0;3.5;2.5;2.5;0.0;0.5;0.0;0.25;1.0;0.25;0.25;0.5;0.5;0.25;0.0;0.0;-0.203613;0.021484;0.993652;-0.63;0.7;0.63;207.0;-0.250776;-0.026309;4.5;4.0;3.0;3.75;0.25;1.75;0.0;0.75;0.25;0.25;0.25;0.25;1.25;0.5;0.25;0.5;-0.228027;0.037598;0.97998;-0.98;-0.91;0.63;243.0;-0.224577;-0.099332
0.41;6.0;3.5;3.0;2.5;0.0;0.25;0.0;0.25;0.75;0.25;0.25;0.25;0.5;0.0;0.0;0.25;-0.200195;0.023926;0.993652;-0.63;0.56;0.63;202.0;-0.271314;-0.025119;4.5;4.25;3.0;3.5;0.25;1.75;0.0;0.75;0.25;0.25;0.0;0.25;1.0;0.5;0.5;0.5;-0.225586;0.037598;0.976074;-1.19;-0.98;0.56;241.0;-0.227482;-0.094521
0.42;6.0;3.5;3.0;2.75;0.0;0.25;0.0;0.25;0.75;0.5;0.25;0.25;0.5;0.25;0.0;0.25;-0.205566;0.021973;0.992188;-0.63;0.49;0.49;211.0;-0.257096;-0.024526;4.5;4.25;3.0;3.75;0.25;1.5;0.0;0.75;0.0;0.0;0.25;0.5;1.0;0.75;0.25;0.25;-0.229004;0.036133;0.977051;-1.12;-0.98;0.63;238.0;-0.236371;-0.100191
0.43;6.25;3.5;3.0;2.75;0.0;0.5;0.0;0.25;0.75;0.5;0.25;0.25;0.25;0.25;0.25;0.0;-0.20166;0.022949;0.995117;-0.63;0.42;0.7;215.0;-0.257633;-0.020204;4.5;4.25;2.75;3.75;0.25;1.5;0.0;0.75;0.0;0.0;0.25;0.25;1.25;0.5;0.25;0.5;-0.228516;0.041504;0.975586;-0.7;-1.05;0.56;234.0;-0.24006;-0.108013
0.44;6.0;4.0;3.0;2.75;0.0;0.5;0.0;0.25;1.0;0.25;0.25;0.5;0.25;0.25;0.25;0.25;-0.202637;0.025391;0.993652;-0.56;0.49;0.56;223.0;-0.24733;-0.027009;4.5;4.25;2.75;3.75;0.25;1.5;0.0;0.75;0.25;0.0;0.25;0.0;1.0;0.5;0.25;0.25;-0.226562;0.041504;0.979004;-0.7;-0.98;0.56;230.0;-0.246016;-0.0948
0.45;5.75;4.0;3.0;2.75;0.25;0.5;0.0;0.25;1.0;0.25;0.25;0.25;0.25;0.25;0.0;0.0;-0.194824;0.018066;0.99707;-0.49;0.56;0.63;216.0;-0.262568;-0.021268;4.5;3.75;2.75;3.75;0.5;1.5;0.0;0.75;0.0;0.0;0.25;0.25;1.0;0.5;0.0;0.25;-0.231445;0.034668;0.976562;-0.63;-0.91;0.56;225.0;-0.251071;-0.099722
0.46;6.25;3.75;3.25;3.0;0.25;0.25;0.0;0.25;1.0;0.25;0.5;0.25;0.25;0.5;0.0;0.25;-0.199707;0.023926;0.994141;-0.49;0.63;0.7;228.0;-0.249144;-0.015425;4.25;4.0;2.75;3.75;0.25;1.75;0.0;0.75;0.0;0.25;0.25;0.25;1.0;0.5;0.25;0.25;-0.231934;0.039551;0.973145;-0.77;-0.77;0.63;230.0;-0.237105;-0.105111
0.47;6.75;4.0;3.0;2.75;0.0;0.5;0.0;0.25;1.0;0.25;0.5;0.25;0.25;0.5;0.0;0.25;-0.202148;0.023438;0.995117;-0.42;0.42;0.63;231.0;-0.254405;-0.017004;4.25;4.0;2.75;3.5;0.25;1.75;0.0;0.75;0.0;0.0;0.25;0.25;1.0;0.5;0.25;0.25;-0.228516;0.040039;0.981445;-0.91;-0.77;0.56;224.0;-0.24248;-0.105651
0.48;6.5;4.0;3.0;3.0;0.0;0.5;0.0;0.25;1.0;0.25;0.25;0.25;0.25;0.25;0.0;0.25;-0.196289;0.023438;0.986816;-0.49;0.49;0.63;226.0;-0.265931;-0.022096;4.25;4.0;2.75;3.75;0.25;1.5;0.0;0.75;0.25;0.0;0.25;0.25;1.0;0.5;0.25;0.25;-0.22998;0.041992;0.974609;-1.05;-0.63;0.49;228.0;-0.236424;-0.099075
0.49;7.25;4.0;3.25;3.0;0.25;0.5;0.0;0.25;1.0;0.25;0.25;0.25;0.25;0.5;0.25;0.0;-0.202148;0.023438;0.994629;-0.42;0.56;0.77;244.0;-0.258406;-0.012148;4.25;3.75;2.75;3.75;0.5;1.5;0.0;0.75;0.0;0.25;0.25;0.25;1.0;0.5;0.5;0.25;-0.23584;0.039551;0.980957;-1.26;-0.49;0.49;231.0;-0.226767;-0.099829
0.5;7.25;4.5;3.25;3.0;0.0;0.5;0.0;0.25;0.75;0.25;0.25;0.25;0.5;0.25;0.0;0.25;-0.20166;0.018555;0.992188;-0.35;0.49;0.7;241.0;-0.27742;-0.027781;4.25;3.75;2.5;3.75;0.25;1.5;0.0;0.75;0.0;0.25;0.25;0.25;1.0;0.5;0.5;0.25;-0.232422;0.041504;0.977051;-1.47;-0.56;0.49;225.0;-0.227598;-0.104551
0.51;6.75;4.0;3.25;3.25;0.0;0.5;0.0;0.25;0.75;0.25;0.25;0.25;0.5;0.25;0.0;0.25;-0.200195;0.026855;0.994141;-0.63;0.42;0.7;233.0;-0.271485;-0.03064;4.25;3.75;2.75;3.5;0.25;1.5;0.0;0.75;0.25;0.25;0.5;0.25;1.0;0.5;0.5;0.25;-0.230957;0.037109;0.980957;-1.47;-0.35;0.49;231.0;-0.214212;-0.094705
0.52;7.0;4.0;3.0;3.0;0.0;0.75;0.0;0.25;0.75;0.25;0.25;0.25;0.25;0.25;0.0;0.25;-0.208496;0.025391;0.992188;-0.49;0.42;0.7;231.0;-0.275936;-0.026714;4.25;3.75;2.75;3.5;0.25;1.5;0.0;0.75;0.25;0.25;0.25;0.25;1.5;0.75;0.5;0.25;-0.22998;0.041016;0.97998;-1.68;-0.28;0.49;235.0;-0.205695;-0.099107
0.53;6.75;4.5;3.0;3.0;0.25;0.75;0.0;0.25;0.75;0.25;0.0;0.25;0.25;0.25;0.0;0.25;-0.19873;0.030273;0.990723;-0.49;0.49;0.63;233.0;-0.281654;-0.029148;4.25;4.0;2.75;3.5;0.25;1.5;0.0;0.75;0.0;0.25;0.25;0.25;1.25;0.75;0.25;0.25;-0.233887;0.041504;0.97998;-1.54;-0.56;0.49;229.0;-0.226777;-0.102162
0.54;7.25;4.5;3.5;3.25;0.25;0.5;0.0;0.25;0.75;0.0;0.0;0.25;0.25;0.5;0.0;0.25;-0.200195;0.021484;0.990234;-0.35;0.56;0.63;244.0;-0.285196;-0.021543;4.25;4.0;3.0;3.75;0.25;1.5;0.0;0.75;0.25;0.25;0.25;0.25;1.0;0.75;0.5;0.5;-0.228516;0.037109;0.974609;-1.4;-0.56;0.56;241.0;-0.213543;-0.093209
0.55;7.25;4.5;3.25;3.25;0.25;0.5;0.0;0.25;0.75;0.25;0.25;0.25;0.25;0.5;0.0;0.25;-0.208008;0.02002;0.990723;-0.35;0.63;0.7;247.0;-0.273468;-0.023022;4.5;4.0;3.0;3.75;0.25;1.75;0.0;0.75;0.25;0.25;0.25;0.25;1.0;0.75;0.5;0.5;-0.22998;0.040039;0.974609;-1.26;-0.77;0.63;246.0;-0.214982;-0.093059
0.56;7.0;4.5;3.25;3.25;0.0;0.75;0.0;0.25;0.75;0.25;0.25;0.25;0.25;0.25;0.0;0.25;-0.202637;0.019531;0.993164;-0.28;0.63;0.63;242.0;-0.278883;-0.030616;4.5;4.0;3.0;3.75;0.5;1.5;0.0;0.75;0.25;0.25;0.25;0.25;0.75;0.75;0.5;0.5;-0.229004;0.041016;0.97998;-0.98;-0.77;0.49;244.0;-0.218353;-0.085411
0.57;7.25;4.5;3.25;3.25;0.0;0.75;0.0;0.25;0.75;0.25;0.25;0.5;0.25;0.25;0.0;0.25;-0.203125;0.024902;0.995117;-0.21;0.56;0.77;247.0;-0.274621;-0.032109;4.5;3.75;3.0;3.75;0.75;1.25;0.0;0.75;0.0;0.25;0.5;0.25;1.0;0.75;0.5;0.5;-0.227051;0.040039;0.980957;-0.91;-0.77;0.63;243.0;-0.21396;-0.089763
0.58;7.25;4.75;3.25;3.25;0.0;0.75;0.0;0.25;0.75;0.25;0.25;0.5;0.25;0.0;0.0;0.25;-0.202148;0.028809;0.996094;0.14;0.63;0.7;248.0;-0.282508;-0.03544;4.5;4.0;2.75;3.5;0.5;1.5;0.0;0.75;0.0;0.25;0.5;0.25;1.0;0.75;0.5;0.5;-0.233398;0.034668;0.978027;-0.98;-0.91;0.63;240.0;-0.214859;-0.095321
0.59;7.25;4.75;3.25;3.5;0.0;0.75;0.0;0.25;0.75;0.25;0.25;0.5;0.25;0.0;0.0;0.25;-0.195312;0.022461;0.992676;0.14;0.63;0.77;251.0;-0.282569;-0.037706;4.5;4.0;2.75;3.5;0.25;1.25;0.0;0.75;0.0;0.25;0.25;0.25;1.0;0.75;0.5;0.25;-0.230957;0.038574;0.977051;-0.98;-0.84;0.49;229.0;-0.22606;-0.093402
0.6;7.25;4.75;3.25;3.5;0.0;0.75;0.0;0.25;0.75;0.25;0.25;0.25;0.25;0.25;0.25;0.25;-0.20459;0.024902;0.991699;0.07;0.77;0.77;253.0;-0.273971;-0.033293;4.5;4.0;2.5;3.75;0.5;1.75;0.0;0.75;0.25;0.25;0.25;0.0;0.75;0.25;0.5;0.25;-0.235352;0.039062;0.98291;-1.05;-0.7;0.63;232.0;-0.237908;-0.093612
0.61;6.75;4.75;3.25;3.5;0.0;0.75;0.0;0.25;0.75;0.25;0.5;0.5;0.25;0.25;0.25;0.25;-0.201172;0.027344;0.992676;-0.07;0.63;0.84;253.0;-0.259924;-0.040395;4.5;3.75;2.75;3.75;0.5;1.5;0.0;0.75;0.0;0.25;0.25;0.25;1.0;0.5;0.5;0.5;-0.227051;0.033203;0.988281;-0.91;-0.77;0.63;235.0;-0.22519;-0.098662
0.62;6.75;4.75;3.25;3.5;0.0;0.75;0.0;0.25;0.75;0.25;0.25;0.5;0.5;0.0;0.0;0.25;-0.207031;0.023926;0.995117;-0.07;0.84;0.7;247.0;-0.275503;-0.045095;4.5;3.75;3.0;3.75;0.25;1.5;0.0;0.75;0.0;0.0;0.25;0.25;1.0;0.5;0.5;0.25;-0.231445;0.037598;0.98291;-1.05;-0.77;0.7;231.0;-0.236524;-0.098882
0.63;6.75;4.75;3.25;3.5;0.0;0.75;0.0;0.25;0.75;0.25;0.25;0.5;0.5;0.0;0.0;0.25;-0.20166;0.020996;0.994629;-0.07;0.7;0.7;247.0;-0.275503;-0.045095;4.25;4.0;2.75;3.5;0.5;1.5;0.0;0.75;0.25;0.25;0.5;0.25;1.0;0.5;0.5;0.25;-0.229492;0.038574;0.977539;-1.12;-0.7;0.7;237.0;-0.215241;-0.093487
0.64;7.25;4.75;3.25;3.5;0.0;0.75;0.0;0.25;0.5;0.25;0.25;0.5;0.25;0.25;0.0;0.25;-0.200684;0.026855;0.995117;-0.21;0.98;0.63;249.0;-0.283828;-0.040176;4.25;3.75;2.75;3.5;0.5;1.5;0.0;0.75;0.0;0.25;0.5;0.25;1.0;0.5;0.5;0.25;-0.232422;0.038574;0.978516;-1.12;-0.84;0.7;230.0;-0.220358;-0.098401
0.65;7.25;4.75;3.25;3.5;0.25;1.25;0.0;0.25;0.5;0.25;0.25;0.25;0.25;0.0;0.0;0.25;-0.198242;0.028809;0.993164;-0.14;0.7;0.77;253.0;-0.290856;-0.043531;4.5;3.75;2.75;3.5;0.5;1.5;0.0;0.75;0.0;0.25;0.25;0.5;1.0;0.5;0.25;0.25;-0.234375;0.041016;0.982422;-1.47;-0.7;0.7;230.0;-0.230585;-0.098305
0.66;7.0;4.75;3.25;3.5;0.25;1.25;0.0;0.25;0.75;0.25;0.25;0.5;0.5;0.0;0.0;0.25;-0.202148;0.022461;0.991699;-0.14;0.84;0.63;259.0;-0.272329;-0.047412;4.5;3.75;2.75;3.75;0.25;1.5;0.0;0.75;0.0;0.25;0.25;0.25;1.0;0.75;0.25;0.25;-0.231445;0.036621;0.981934;-1.4;-0.7;0.63;230.0;-0.231719;-0.096782
0.67;7.25;4.75;3.25;3.75;0.0;0.75;0.0;0.25;0.5;0.25;0.5;0.5;0.25;0.0;0.0;0.25;-0.20166;0.023926;0.990234;-0.21;0.77;0.7;253.0;-0.2845;-0.045222;4.5;4.0;3.0;3.75;0.25;1.5;0.0;0.75;0.0;0.25;0.25;0.25;1.0;0.5;0.25;0.25;-0.228516;0.034668;0.974121;-1.4;-0.63;0.63;233.0;-0.240577;-0.09783
0.68;7.0;4.75;3.0;3.75;0.0;0.5;0.0;0.5;0.5;0.25;0.5;0.25;0.25;0.25;0.0;0.25;-0.200684;0.019043;0.992188;-0.21;0.84;0.7;248.0;-0.279602;-0.046726;4.75;4.25;2.75;3.75;0.25;1.5;0.0;0.75;0.0;0.25;0.5;0.25;1.0;0.5;0.5;0.25;-0.229004;0.036621;0.986328;-1.54;-0.77;0.56;241.0;-0.230773;-0.098515
0.69;7.0;5.0;3.25;3.75;0.0;0.75;0.0;0.25;0.5;0.25;0.25;0.25;0.5;0.25;0.0;0.0;-0.200684;0.02832;0.993652;-0.42;0.63;0.63;250.0;-0.289093;-0.044751;4.75;4.0;2.75;3.75;0.25;1.5;0.0;0.75;0.25;0.0;0.25;0.25;1.0;0.5;0.25;0.25;-0.232422;0.034668;0.975586;-1.54;-0.77;0.7;234.0;-0.240466;-0.09404
0.7;6.5;4.75;3.25;3.75;0.0;1.0;0.0;0.5;0.5;0.0;0.25;0.5;0.5;0.5;0.0;0.25;-0.200684;0.026367;0.992188;-0.63;0.63;0.49;253.0;-0.269122;-0.05899;4.5;4.0;3.0;3.75;0.25;1.5;0.0;0.75;0.0;0.0;0.25;0.25;1.0;0.5;0.0;0.25;-0.229004;0.039551;0.981445;-1.26;-0.7;0.63;227.0;-0.254759;-0.100048
0.71;6.25;5.0;3.0;3.75;0.0;0.75;0.0;0.5;0.25;0.0;0.25;0.25;0.5;0.25;0.0;0.25;-0.20166;0.022949;0.987793;-0.56;0.56;0.42;238.0;-0.290958;-0.065807;4.75;4.0;3.0;3.75;0.5;1.5;0.0;0.5;0.0;0.25;0.25;0.25;1.0;0.5;0.25;0.25;-0.234375;0.039551;0.980469;-1.12;-0.91;0.56;235.0;-0.245112;-0.088092
0.72;6.5;5.0;3.0;3.75;0.0;0.75;0.0;0.5;0.25;0.25;0.25;0.25;0.5;0.25;0.0;0.0;-0.196777;0.025391;0.988281;-0.42;0.42;0.56;242.0;-0.29002;-0.060724;4.75;4.25;3.0;3.75;0.5;1.5;0.0;0.75;0.25;0.25;0.25;0.25;0.75;0.5;0.25;0.25;-0.227539;0.039062;0.970215;-1.12;-0.77;0.56;243.0;-0.239531;-0.085147
0.73;7.0;4.75;3.0;3.75;0.0;1.0;0.0;0.25;0.5;0.25;0.5;0.25;0.5;0.25;0.0;0.0;-0.20166;0.025391;0.987793;-0.42;0.49;0.56;250.0;-0.280585;-0.048686;4.75;4.0;3.0;3.75;0.5;1.5;0.0;0.75;0.0;0.25;0.25;0.25;1.0;0.5;0.25;0.25;-0.230469;0.034668;0.981934;-1.19;-0.77;0.56;239.0;-0.241056;-0.093384
0.74;7.0;4.5;3.0;3.5;0.0;1.0;0.0;0.25;0.5;0.25;0.25;0.25;0.5;0.0;0.0;0.25;-0.202637;0.02832;0.987793;-0.35;0.42;0.56;241.0;-0.287818;-0.048277;4.5;4.0;2.75;3.5;0.5;1.5;0.0;0.75;0.0;0.25;0.5;0.25;1.0;0.5;0.25;0.5;-0.233398;0.03125;0.975586;-1.19;-0.77;0.49;234.0;-0.228685;-0.098185
0.75;6.25;4.5;3.0;3.75;0.0;1.0;0.0;0.5;0.5;0.0;0.25;0.25;0.5;0.25;0.25;0.25;-0.193359;0.021484;0.991699;-0.14;0.49;0.56;242.0;-0.270281;-0.061431;4.75;4.25;3.0;3.75;0.25;1.5;0.0;0.5;0.25;0.25;0.25;0.25;1.0;0.5;0.25;0.25;-0.229004;0.038086;0.978516;-1.12;-0.7;0.56;238.0;-0.240901;-0.085354
0.76;6.0;4.5;3.0;3.5;0.0;1.25;0.0;0.25;0.5;0.0;0.25;0.25;0.5;0.0;0.25;0.25;-0.205078;0.023438;0.98877;-0.14;0.28;0.56;233.0;-0.278355;-0.060573;4.75;4.0;3.0;3.75;0.25;1.25;0.0;0.5;0.25;0.25;0.0;0.25;1.0;0.5;0.25;0.25;-0.227539;0.042969;0.974609;-1.12;-0.77;0.56;230.0;-0.245937;-0.081656
0.77;6.0;4.0;2.75;3.25;0.0;1.25;0.0;0.25;0.75;0.25;0.25;0.5;0.5;0.0;0.0;0.25;-0.200195;0.027344;0.994629;-0.07;0.28;0.56;228.0;-0.262964;-0.053982;4.5;3.75;2.75;3.75;0.25;1.25;0.0;0.5;0.0;0.25;0.25;0.25;0.75;0.5;0.25;0.25;-0.228027;0.036621;0.978027;-1.19;-0.84;0.56;218.0;-0.248184;-0.087727
0.78;6.5;4.5;3.0;3.5;0.0;1.0;0.0;0.5;0.75;0.25;0.5;0.5;0.5;0.25;0.0;0.25;-0.202637;0.021484;0.992188;-0.0;0.42;0.56;251.0;-0.254884;-0.054435;4.75;4.0;3.0;3.75;0.25;1.5;0.0;0.5;0.25;0.25;0.25;0.25;0.75;0.5;0.5;0.25;-0.233398;0.035645;0.97998;-1.19;-0.84;0.63;236.0;-0.235237;-0.080696
0.79;6.0;4.0;3.25;3.5;0.0;1.0;0.0;0.5;0.75;0.0;0.5;0.25;0.5;0.25;0.0;0.25;-0.199707;0.023438;0.98877;-0.14;0.42;0.56;238.0;-0.2596;-0.052601;4.75;4.0;3.0;3.75;0.25;1.5;0.0;0.5;0.25;0.25;0.25;0.0;0.75;0.5;0.25;0.25;-0.229004;0.041992;0.983398;-1.12;-0.7;0.7;230.0;-0.24881;-0.077987
0.8;5.75;4.0;2.75;3.75;0.25;0.5;0.0;0.5;0.75;0.25;0.5;0.25;0.5;0.25;0.25;0.25;-0.203125;0.03125;0.999023;-0.07;0.35;0.7;235.0;-0.244873;-0.052346;4.75;4.0;2.75;3.75;0.5;1.5;0.0;0.5;0.25;0.25;0.25;0.0;1.0;0.75;0.25;0.25;-0.232422;0.039062;0.978516;-1.12;-0.7;0.56;235.0;-0.236278;-0.0797
0.81;6.0;4.0;2.75;3.5;0.25;1.25;0.0;0.5;0.5;0.25;0.5;0.5;0.5;0.25;0.0;0.25;-0.199707;0.027344;0.993164;-0.35;0.49;0.56;240.0;-0.252578;-0.063929;4.5;4.0;2.75;3.5;0.5;1.5;0.0;0.75;0.25;0.25;0.25;0.0;1.0;0.75;0.5;0.25;-0.232422;0.039551;0.983398;-1.26;-0.84;0.63;236.0;-0.221848;-0.085654
0.82;6.0;3.75;3.0;3.5;0.0;1.25;0.0;0.5;0.5;0.0;0.5;0.5;0.75;0.0;0.0;0.25;-0.197266;0.025391;0.987305;-0.28;0.56;0.56;235.0;-0.260929;-0.070371;4.5;4.25;2.75;3.5;0.5;1.5;0.0;0.75;0.25;0.25;0.5;0.25;1.0;0.5;0.5;0.25;-0.227539;0.040039;0.97998;-0.98;-0.77;0.63;242.0;-0.219539;-0.091877
0.83;6.0;4.25;3.0;3.25;0.25;1.0;0.0;0.5;0.5;0.0;0.5;0.5;0.75;0.0;0.0;0.25;-0.199219;0.033691;0.990234;-0.56;0.49;0.63;237.0;-0.263555;-0.066239;4.75;4.25;2.75;3.5;0.25;1.25;0.0;0.75;0.25;0.0;0.0;0.25;1.0;0.5;0.25;0.25;-0.231445;0.036621;0.978027;-0.91;-0.98;0.7;227.0;-0.248822;-0.090498
0.84;6.0;4.25;3.0;3.25;0.0;1.0;0.0;0.5;0.75;0.25;0.5;0.5;0.5;0.25;0.0;0.25;-0.203125;0.025879;0.989258;-0.7;0.49;0.42;240.0;-0.249279;-0.054983;4.75;4.0;3.0;3.5;0.25;1.25;0.0;0.5;0.25;0.0;0.0;0.25;0.75;0.75;0.25;0.0;-0.226562;0.038574;0.980957;-0.56;-0.98;0.63;222.0;-0.253163;-0.073302
0.85;5.75;4.25;2.75;3.5;0.0;1.25;0.0;0.5;0.5;0.25;0.5;0.5;0.5;0.25;0.25;0.25;-0.198242;0.03125;0.991699;-0.7;0.63;0.49;239.0;-0.246216;-0.068834;4.75;4.0;2.75;3.5;0.5;1.5;0.0;0.5;0.25;0.0;0.25;0.25;0.75;0.75;0.5;0.25;-0.231934;0.039551;0.978516;-0.49;-0.91;0.63;232.0;-0.232091;-0.078419
0.86;6.25;3.75;3.0;3.75;0.0;1.0;0.0;0.5;0.5;0.25;0.25;0.5;0.5;0.5;0.25;0.25;-0.204102;0.031738;0.993652;-0.77;0.56;0.49;243.0;-0.247507;-0.057193;4.5;4.0;2.75;3.5;0.5;1.5;0.0;0.75;0.25;0.25;0.25;0.0;0.75;0.75;0.25;0.25;-0.227539;0.035645;0.979492;-0.49;-1.05;0.63;231.0;-0.233662;-0.081859
0.87;6.25;4.25;3.0;3.75;0.0;1.0;0.0;0.5;0.75;0.25;0.25;0.5;0.5;0.25;0.0;0.25;-0.206543;0.024902;0.995117;-0.77;0.63;0.49;246.0;-0.257507;-0.056531;4.5;4.0;2.75;3.5;0.5;1.25;0.0;0.75;0.5;0.0;0.25;0.25;0.75;0.5;0.25;0.25;-0.22998;0.041504;0.979492;-0.56;-0.91;0.56;229.0;-0.233931;-0.080943
0.88;6.5;4.25;3.0;3.5;0.0;1.25;0.0;0.5;0.75;0.25;0.5;0.5;0.5;0.25;0.0;0.25;-0.19873;0.025879;0.991699;-0.98;0.7;0.35;252.0;-0.252051;-0.055899;4.5;4.0;3.0;3.5;0.5;1.25;0.0;0.75;0.25;0.0;0.25;0.0;0.75;0.75;0.25;0.25;-0.227051;0.040039;0.980957;-0.7;-0.84;0.63;228.0;-0.241062;-0.078893
0.89;6.75;4.5;3.0;3.5;0.0;1.25;0.0;0.5;0.75;0.25;0.5;0.5;0.5;0.25;0.0;0.25;-0.203613;0.029297;0.998535;-0.91;0.77;0.42;257.0;-0.25533;-0.055166;4.75;3.5;2.5;3.5;0.5;1.5;0.0;0.5;0.25;0.25;0.25;0.0;1.0;0.75;0.5;0.25;-0.234863;0.03418;0.98291;-0.84;-0.77;0.7;226.0;-0.223043;-0.078161
0.9;6.25;4.25;3.0;3.5;0.0;1.0;0.0;0.5;0.5;0.25;0.5;0.5;0.5;0.25;0.25;0.25;-0.203125;0.029297;0.989746;-0.84;0.7;0.35;245.0;-0.251221;-0.060291;4.5;3.75;2.75;3.75;0.5;1.5;0.0;0.5;0.25;0.0;0.25;0.25;1.0;0.75;0.25;0.25;-0.236328;0.042969;0.979492;-0.91;-0.77;0.7;229.0;-0.232549;-0.085565
0.91;6.75;3.75;3.0;3.5;0.0;1.0;0.0;0.5;0.5;0.25;0.5;0.5;0.5;0.25;0.0;0.25;-0.20166;0.021973;0.989746;-0.84;0.49;0.42;243.0;-0.259105;-0.053897;4.25;3.75;2.75;3.5;0.5;1.25;0.0;0.5;0.25;0.25;0.5;0.25;0.75;0.75;0.25;0.25;-0.229492;0.046387;0.980469;-0.98;-0.7;0.56;224.0;-0.223091;-0.078205
0.92;6.5;4.25;3.25;3.5;0.0;1.0;0.0;0.5;0.75;0.0;0.5;0.5;0.25;0.25;0.0;0.25;-0.197754;0.027832;0.990234;-0.84;0.56;0.42;247.0;-0.263122;-0.048992;4.25;4.0;2.75;3.5;0.5;1.5;0.0;0.5;0.25;0.25;0.25;0.25;0.75;0.75;0.25;0.25;-0.23584;0.041016;0.974121;-0.91;-0.77;0.7;227.0;-0.229981;-0.081262
0.93;6.0;4.25;3.25;3.25;0.0;1.25;0.0;0.5;0.75;0.0;0.5;0.25;0.5;0.5;0.0;0.25;-0.201172;0.021973;0.989746;-0.77;0.56;0.49;243.0;-0.25314;-0.052149;4.5;4.0;2.75;3.75;0.25;1.25;0.0;0.5;0.25;0.25;0.5;0.25;0.75;0.75;0.25;0.25;-0.230469;0.038086;0.977051;-0.98;-0.98;0.63;229.0;-0.229564;-0.080607
0.94;6.25;4.0;3.0;3.25;0.0;1.25;0.0;0.25;0.75;0.0;0.5;0.25;0.5;0.25;0.25;0.25;-0.199707;0.030762;0.992188;-0.7;0.63;0.56;236.0;-0.255803;-0.047469;4.5;4.0;3.0;3.5;0.25;1.0;0.0;0.75;0.25;0.25;0.5;0.25;1.0;0.75;0.25;0.25;-0.226074;0.033691;0.98291;-0.98;-0.98;0.63;233.0;-0.22236;-0.083484
0.95;6.0;4.0;3.0;3.5;0.0;1.0;0.0;0.5;0.75;0.25;0.5;0.5;0.5;0.25;0.25;0.25;-0.204102;0.024902;0.995117;-0.77;0.56;0.49;243.0;-0.240282;-0.056245;4.5;4.0;3.0;3.25;0.25;1.25;0.0;0.75;0.25;0.25;0.5;0.25;1.0;0.75;0.5;0.25;-0.230957;0.032715;0.981934;-0.84;-0.98;0.63;236.0;-0.212986;-0.08406
0.96;6.0;4.0;3.0;3.25;0.0;0.75;0.0;0.25;0.75;0.25;0.5;0.25;0.5;0.25;0.0;0.25;-0.203125;0.033691;0.995117;-0.77;0.7;0.49;228.0;-0.258835;-0.041691;4.5;3.75;2.75;3.0;0.25;1.25;0.0;0.5;0.25;0.25;0.25;0.25;0.75;0.75;0.5;0.25;-0.229004;0.035645;0.980957;-0.84;-0.98;0.7;218.0;-0.2226;-0.073216
0.97;6.25;4.0;3.0;3.5;0.0;1.0;0.0;0.25;0.75;0.25;0.5;0.25;0.5;0.25;0.0;0.25;-0.202148;0.027832;0.991211;-0.84;0.63;0.49;236.0;-0.259588;-0.045123;4.5;3.75;2.75;3.25;0.25;1.25;0.0;0.5;0.25;0.25;0.25;0.25;1.0;0.75;0.25;0.25;-0.230957;0.035645;0.974609;-0.91;-0.91;0.7;220.0;-0.227495;-0.079316
0.98;7.0;4.5;3.25;3.5;0.0;1.25;0.0;0.5;0.75;0.25;0.5;0.25;0.5;0.5;0.0;0.25;-0.201172;0.028809;0.983398;-0.77;0.56;0.49;262.0;-0.256236;-0.047016;4.5;3.75;2.75;3.25;0.5;1.5;0.0;0.5;0.25;0.25;0.25;0.5;0.75;0.75;0.25;0.5;-0.228027;0.035156;0.972656;-0.63;-0.91;0.63;228.0;-0.219939;-0.080295
0.99;6.25;4.0;3.25;3.5;0.0;1.0;0.0;0.25;0.75;0.25;0.5;0.5;0.5;0.5;0.0;0.5;-0.202637;0.026367;0.987305;-0.7;0.42;0.42;246.0;-0.244098;-0.045905;4.5;3.75;3.0;3.75;0.25;1.5;0.0;0.75;0.25;0.5;0.5;0.25;0.75;0.75;0.25;0.0;-0.232422;0.036621;0.978027;-0.56;-0.98;0.63;238.0;-0.221348;-0.082194
1.0;6.0;4.0;3.25;3.5;0.0;1.0;0.0;0.5;0.75;0.25;0.5;0.25;0.5;0.25;0.0;0.5;-0.204102;0.026367;0.992188;-0.7;0.49;0.49;242.0;-0.249939;-0.05283;4.5;3.75;2.75;3.5;0.5;1.25;0.0;0.5;0.5;0.5;0.25;0.25;0.75;1.0;0.5;0.25;-0.23584;0.039062;0.97998;-0.56;-0.98;0.63;236.0;-0.203894;-0.06596
1.01;6.25;4.0;3.25;3.25;0.0;0.75;0.0;0.25;0.75;0.25;0.25;0.25;0.25;0.25;0.0;0.25;-0.199707;0.022461;0.990723;-0.77;0.35;0.49;228.0;-0.27121;-0.032811;4.5;3.75;3.0;3.5;0.5;1.5;0.0;0.5;0.25;0.5;0.25;0.25;0.75;1.0;0.25;0.25;-0.234863;0.033691;0.978027;-0.49;-0.91;0.63;235.0;-0.218496;-0.071542
1.02;6.75;4.25;3.25;3.25;0.0;0.75;0.0;0.5;0.75;0.0;0.25;0.25;0.25;0.25;0.0;0.25;-0.200684;0.023926;0.992676;-0.77;0.63;0.49;238.0;-0.277481;-0.038296;4.5;3.75;3.0;3.5;0.5;1.5;0.0;0.75;0.25;0.5;0.25;0.5;1.0;1.0;0.25;0.25;-0.22998;0.033691;0.974121;-0.56;-0.91;0.7;245.0;-0.206213;-0.083391
1.03;6.0;4.25;3.25;3.25;0.0;0.75;0.0;0.25;0.75;0.0;0.25;0.25;0.5;0.5;0.0;0.25;-0.204102;0.022949;0.992676;-0.63;0.56;0.42;230.0;-0.266083;-0.039483;4.25;3.75;3.0;3.25;0.5;1.5;0.0;0.75;0.25;0.5;0.25;0.5;1.0;1.0;0.5;0.25;-0.232422;0.033203;0.980469;-0.7;-0.91;0.7;242.0;-0.195612;-0.083872
1.04;6.0;3.75;3.25;3.25;0.0;0.75;0.0;0.25;0.75;0.0;0.25;0.25;0.5;0.25;0.25;0.25;-0.203125;0.024414;0.992188;-0.56;0.49;0.49;225.0;-0.261133;-0.03943;4.5;3.75;3.0;3.25;0.5;1.5;0.0;0.75;0.25;0.5;0.25;0.25;1.0;1.0;0.5;0.25;-0.23291;0.037109;0.979004;-0.7;-0.91;0.7;242.0;-0.202871;-0.079089
1.05;6.0;4.0;3.25;3.5;0.0;1.0;0.0;0.25;0.75;0.25;0.25;0.5;0.5;0.0;0.25;0.25;-0.201172;0.024902;0.990234;-0.7;0.49;0.49;237.0;-0.256623;-0.050052;4.5;3.75;3.0;3.75;0.5;0.75;0.0;0.75;0.25;0.5;0.25;0.25;1.0;1.0;0.75;0.25;-0.236816;0.038574;0.976562;-0.77;-0.91;0.63;241.0;-0.199598;-0.075584
1.06;6.5;4.0;3.25;3.5;0.0;1.0;0.0;0.5;0.75;0.25;0.0;0.5;0.5;0.25;0.0;0.25;-0.20166;0.025879;0.987793;-0.63;0.49;0.49;244.0;-0.262961;-0.04888;4.5;3.75;2.75;3.25;0.25;1.0;0.0;0.5;0.25;0.25;0.0;0.0;1.0;1.0;0.25;0.25;-0.229492;0.038574;0.978516;-0.84;-1.05;0.7;214.0;-0.233539;-0.070432
1.07;6.25;4.25;3.25;3.25;0.0;1.25;0.0;0.5;0.75;0.25;0.0;0.5;0.5;0.5;0.0;0.25;-0.195312;0.02832;0.989746;-0.84;0.77;0.49;246.0;-0.254893;-0.050324;4.5;4.0;2.75;3.5;0.25;1.25;0.0;0.75;0.25;0.25;0.0;0.0;0.75;0.75;0.25;0.25;-0.231445;0.041504;0.978027;-0.91;-0.98;0.7;222.0;-0.242144;-0.080795
1.08;6.25;4.25;3.25;3.5;0.0;1.0;0.0;0.5;1.0;0.25;0.25;0.5;0.5;0.25;0.0;0.25;-0.200684;0.027832;1.001465;-0.77;0.63;0.56;250.0;-0.249882;-0.047989;4.5;4.0;2.75;3.5;0.25;1.5;0.0;0.75;0.25;0.5;0.25;0.25;0.75;0.75;0.25;0.25;-0.232422;0.041016;0.980469;-0.91;-0.91;0.7;233.0;-0.223818;-0.084563
1.09;6.5;4.0;3.25;3.5;0.0;1.0;0.0;0.25;1.0;0.25;0.25;0.5;0.5;0.25;0.25;0.25;-0.201172;0.027344;0.992676;-0.84;0.56;0.56;249.0;-0.246336;-0.039645;4.5;4.0;3.0;3.5;0.25;1.5;0.0;0.75;0.25;0.5;0.25;0.25;1.0;1.0;0.5;0.5;-0.225586;0.03418;0.979492;-0.84;-1.05;0.77;246.0;-0.20365;-0.084894
1.1;6.75;3.75;3.5;3.25;0.0;0.75;0.0;0.25;1.0;0.25;0.25;0.25;0.25;0.5;0.25;0.25;-0.199707;0.021973;0.993164;-0.77;0.63;0.56;243.0;-0.250414;-0.020654;4.5;3.75;3.0;3.25;0.5;1.5;0.0;0.5;0.25;0.5;0.25;0.25;1.0;1.0;0.5;0.25;-0.231445;0.036621;0.976074;-0.7;-1.12;0.63;237.0;-0.206213;-0.073604
1.11;6.75;4.0;3.25;3.25;0.0;1.0;0.0;0.25;1.0;0.25;0.25;0.25;0.5;0.25;0.25;0.25;-0.20166;0.026855;0.985352;-0.77;0.63;0.49;246.0;-0.252985;-0.032669;4.5;4.0;3.0;3.5;0.5;1.25;0.0;0.5;0.25;0.5;0.25;0.25;0.75;1.0;0.5;0.25;-0.228027;0.035156;0.970703;-0.56;-1.12;0.7;238.0;-0.213873;-0.070153
1.12;6.25;4.0;3.25;3.0;0.0;0.75;0.0;0.25;1.0;0.25;0.25;0.5;0.5;0.5;0.0;0.25;-0.203613;0.022461;0.993164;-0.84;0.63;0.56;236.0;-0.246055;-0.031137;4.5;3.75;2.75;3.5;0.5;1.25;0.0;0.5;0.5;0.5;0.25;0.25;0.75;1.25;0.5;0.25;-0.229004;0.039551;0.976562;-0.49;-1.05;0.7;238.0;-0.197878;-0.063582
1.13;6.25;3.75;3.5;3.25;0.25;0.75;0.0;0.5;1.0;0.25;0.25;0.5;0.5;0.5;0.0;0.25;-0.203613;0.033203;0.993652;-0.84;0.77;0.49;247.0;-0.239652;-0.035579;4.75;4.0;2.75;3.5;0.5;1.5;0.0;0.75;0.5;0.5;0.25;0.25;0.75;0.75;0.5;0.25;-0.229004;0.037109;0.98291;-0.49;-1.05;0.7;246.0;-0.210325;-0.075303
1.14;6.75;3.75;3.25;3.0;0.25;0.75;0.0;0.25;0.75;0.25;0.5;0.25;0.5;0.5;0.0;0.25;-0.193848;0.027344;0.992188;-0.91;0.77;0.35;239.0;-0.253826;-0.02763;4.75;4.0;3.0;4.0;0.5;1.25;0.0;0.75;0.5;0.5;0.25;0.25;1.0;0.5;0.25;0.25;-0.237305;0.040527;0.97998;-0.7;-0.98;0.77;249.0;-0.222888;-0.080462
1.15;6.25;4.0;3.25;3.0;0.25;0.75;0.0;0.25;0.75;0.25;0.5;0.25;0.5;0.25;0.0;0.0;-0.20166;0.026855;0.990234;-0.7;0.7;0.35;232.0;-0.262542;-0.032694;4.5;3.75;3.0;3.5;0.5;1.25;0.0;0.75;0.5;0.25;0.25;0.25;1.0;0.75;0.25;0.25;-0.234375;0.039062;0.975586;-0.56;-0.98;0.7;237.0;-0.216372;-0.07736
1.16;6.75;4.0;3.25;3.0;0.0;1.25;0.0;0.25;0.75;0.25;0.5;0.5;0.5;0.25;0.0;0.0;-0.201172;0.024902;0.991699;-0.91;0.63;0.49;243.0;-0.259226;-0.039548;4.25;3.5;3.0;3.25;0.5;1.5;0.0;0.5;0.5;0.25;0.25;0.25;1.0;0.5;0.5;0.25;-0.233398;0.040527;0.97998;-0.7;-1.05;0.7;228.0;-0.212352;-0.076216
1.17;6.75;4.0;3.25;3.25;0.0;1.0;0.0;0.25;0.75;0.25;0.5;0.25;0.5;0.5;0.0;0.25;-0.200195;0.029785;0.998535;-0.84;0.56;0.49;244.0;-0.256261;-0.035557;4.25;4.0;2.75;3.5;0.5;1.5;0.0;0.75;0.5;0.25;0.25;0.25;1.0;0.5;0.5;0.25;-0.233398;0.037598;0.978516;-0.77;-0.84;0.7;237.0;-0.213449;-0.087671
1.18;6.75;4.0;3.25;3.25;0.0;0.75;0.0;0.25;0.75;0.0;0.5;0.5;0.5;0.25;0.0;0.25;-0.201172;0.023438;0.991699;-0.84;0.56;0.42;239.0;-0.264344;-0.038993;4.5;4.0;2.75;3.5;0.25;1.5;0.0;0.75;0.25;0.25;0.0;0.25;0.75;0.75;0.5;0.25;-0.233398;0.034668;0.974121;-0.91;-0.77;0.7;231.0;-0.227269;-0.085974
1.19;6.25;3.75;3.25;3.5;0.25;0.75;0.0;0.25;1.0;0.25;0.5;0.25;0.5;0.25;0.25;0.25;-0.202637;0.025391;0.993164;-0.77;0.49;0.49;243.0;-0.242247;-0.033828;4.5;4.0;2.75;3.25;0.25;1.25;0.0;0.5;0.25;0.5;0.25;0.25;0.75;0.75;0.5;0.25;-0.22998;0.035645;0.979004;-0.98;-0.98;0.7;226.0;-0.219805;-0.07454
1.2;6.25;4.0;3.25;3.25;0.25;0.75;0.0;0.25;1.0;0.25;0.5;0.25;0.25;0.5;0.25;0.25;-0.202637;0.021973;0.993652;-0.84;0.7;0.42;243.0;-0.24123;-0.026672;4.5;4.0;2.75;3.25;0.5;1.25;0.0;0.75;0.25;0.5;0.25;0.25;0.75;0.5;0.5;0.25;-0.233887;0.034668;0.972168;-0.98;-0.98;0.63;231.0;-0.221193;-0.081027
1.21;6.25;4.0;3.25;3.0;0.0;1.0;0.0;0.25;1.0;0.25;0.5;0.25;0.25;0.5;0.0;0.25;-0.205566;0.022949;0.991699;-0.7;0.56;0.56;237.0;-0.248844;-0.027698;4.5;3.5;3.0;3.5;0.5;1.25;0.0;0.75;0.25;0.5;0.25;0.25;1.0;0.5;0.25;0.25;-0.22998;0.030762;0.979492;-0.7;-0.98;0.7;232.0;-0.222193;-0.08265
1.22;6.75;4.0;3.25;2.75;0.0;0.5;0.0;0.25;1.0;0.0;0.5;0.25;0.5;0.5;0.0;0.25;-0.203125;0.023926;0.994629;-0.77;0.77;0.56;233.0;-0.256302;-0.02109;4.5;4.0;3.0;3.5;0.25;1.5;0.0;0.5;0.5;0.25;0.5;0.0;1.0;0.75;0.25;0.25;-0.231445;0.038574;0.975098;-0.7;-1.05;0.63;235.0;-0.222309;-0.074785
1.23;6.75;4.0;3.25;3.25;0.0;0.75;0.0;0.5;0.75;0.0;0.5;0.5;0.5;0.5;0.0;0.25;-0.197754;0.023926;0.990723;-0.7;0.63;0.56;246.0;-0.253673;-0.042925;4.5;4.0;3.0;3.5;0.25;1.5;0.0;0.75;0.5;0.25;0.5;0.25;0.75;0.75;0.5;0.25;-0.230469;0.037598;0.977051;-0.49;-0.98;0.7;243.0;-0.209959;-0.079174
1.24;6.5;4.0;3.25;3.25;0.0;1.0;0.0;0.25;0.75;0.0;0.5;0.5;0.25;0.5;0.0;0.25;-0.20752;0.026855;0.990723;-0.77;0.7;0.56;239.0;-0.259006;-0.037387;4.25;3.75;3.0;3.5;0.5;1.5;0.0;0.5;0.5;0.5;0.5;0.25;0.75;0.75;0.25;0.25;-0.231445;0.033691;0.979004;-0.35;-1.05;0.7;236.0;-0.209921;-0.071452
1.25;6.25;4.25;3.0;3.5;0.0;1.0;0.0;0.25;0.75;0.0;0.5;0.5;0.25;0.25;0.0;0.25;-0.20166;0.022949;0.991211;-0.91;0.56;0.63;237.0;-0.265829;-0.046629;4.25;3.75;3.0;3.5;0.5;1.5;0.0;0.75;0.25;0.25;0.5;0.25;1.0;0.75;0.25;0.25;-0.22998;0.04248;0.978516;-0.49;-1.12;0.77;237.0;-0.215129;-0.087831
1.26;6.75;4.25;3.25;3.5;0.0;1.0;0.0;0.25;1.0;0.25;0.5;0.5;0.5;0.25;0.25;0.25;-0.200195;0.026855;0.999023;-0.98;0.7;0.56;257.0;-0.244478;-0.040099;4.25;3.75;3.0;3.5;0.5;1.5;0.0;0.75;0.25;0.25;0.25;0.25;0.75;0.75;0.25;0.25;-0.226074;0.033691;0.980957;-0.56;-0.98;0.63;231.0;-0.224497;-0.083678
1.27;7.0;4.0;3.25;3.25;0.0;1.0;0.0;0.25;0.75;0.25;0.5;0.25;0.25;0.5;0.0;0.25;-0.199707;0.026855;0.997559;-0.84;0.7;0.49;245.0;-0.262054;-0.02979;4.5;4.0;3.0;3.5;0.5;1.25;0.0;0.75;0.5;0.25;0.5;0.25;1.0;0.75;0.25;0.25;-0.230469;0.033691;0.984863;-0.63;-0.98;0.7;242.0;-0.213236;-0.078738
1.28;7.0;4.0;3.5;3.25;0.0;0.75;0.0;0.25;0.75;0.25;0.5;0.5;0.5;0.25;0.0;0.25;-0.200195;0.027344;0.994141;-0.84;0.56;0.56;248.0;-0.260155;-0.034546;4.5;4.0;2.75;3.5;0.5;1.5;0.0;0.75;0.5;0.25;0.5;0.25;1.0;0.75;0.5;0.25;-0.232422;0.03418;0.978516;-0.63;-0.98;0.63;245.0;-0.20459;-0.083223
1.29;6.25;4.0;3.5;3.25;0.0;0.75;0.0;0.25;1.0;0.25;0.25;0.25;0.5;0.25;0.0;0.25;-0.202148;0.030273;0.989258;-0.84;0.63;0.56;237.0;-0.258806;-0.030866;4.5;3.5;3.0;3.5;0.5;1.5;0.0;0.75;0.5;0.25;0.5;0.25;1.0;0.75;0.25;0.25;-0.233887;0.036133;0.980957;-0.7;-0.98;0.7;240.0;-0.208216;-0.079307
1.3;7.0;4.25;3.25;3.25;0.0;0.75;0.0;0.25;0.75;0.25;0.25;0.25;0.5;0.5;0.25;0.25;-0.199707;0.023926;0.98877;-0.91;0.56;0.56;247.0;-0.258717;-0.031983;4.25;4.0;3.0;3.5;0.5;1.5;0.0;0.75;0.5;0.25;0.25;0.25;1.0;0.5;0.5;0.25;-0.231445;0.035156;0.975586;-0.77;-0.84;0.7;240.0;-0.21411;-0.085425
1.31;6.75;4.25;3.25;3.25;0.0;0.75;0.0;0.25;1.25;0.25;0.25;0.25;0.5;0.25;0.25;0.25;-0.20166;0.027344;0.995605;-0.84;0.63;0.42;249.0;-0.248524;-0.026734;4.25;4.0;2.75;3.5;0.5;1.5;0.0;0.5;0.5;0.25;0.25;0.5;0.75;0.5;0.25;0.25;-0.226074;0.039062;0.976074;-0.84;-0.84;0.63;231.0;-0.223425;-0.081032
1.32;6.75;4.25;3.25;3.25;0.0;0.5;0.0;0.25;0.75;0.25;0.25;0.25;0.25;0.25;0.0;0.25;-0.196289;0.020508;0.994141;-0.91;0.49;0.42;233.0;-0.2775;-0.027755;4.25;3.75;3.0;3.25;0.5;1.25;0.0;0.5;0.25;0.25;0.25;0.5;0.75;0.75;0.0;0.25;-0.231445;0.039551;0.980957;-0.91;-0.98;0.7;221.0;-0.231152;-0.076199
1.33;7.0;4.5;3.25;3.5;0.25;0.75;0.0;0.25;0.75;0.25;0.25;0.25;0.25;0.25;0.25;0.25;-0.196289;0.025391;0.992676;-0.91;0.56;0.35;251.0;-0.269295;-0.032429;4.5;3.75;3.0;3.75;0.5;1.25;0.0;0.75;0.25;0.25;0.5;0.5;0.75;0.75;0.25;0.25;-0.22998;0.037598;0.978027;-0.84;-0.91;0.63;240.0;-0.217713;-0.083756
1.34;7.25;3.75;3.5;3.5;0.0;0.75;0.0;0.25;1.0;0.0;0.5;0.25;0.5;0.25;0.25;0.25;-0.197754;0.026855;0.984863;-0.91;0.42;0.49;252.0;-0.256608;-0.028162;4.5;4.0;3.0;3.5;0.5;1.5;0.0;0.75;0.5;0.5;0.25;0.5;0.75;0.5;0.25;0.25;-0.230957;0.037598;0.984375;-0.91;-0.91;0.63;244.0;-0.217021;-0.080315
1.35;7.0;4.0;3.5;3.5;0.0;0.75;0.0;0.25;1.0;0.25;0.25;0.25;0.5;0.25;0.0;0.0;-0.19873;0.027344;0.999512;-0.91;0.56;0.49;247.0;-0.26783;-0.026727;4.5;4.0;3.25;3.5;0.5;1.25;0.0;0.75;0.5;0.25;0.25;0.5;1.0;0.5;0.5;0.25;-0.230957;0.039062;0.979492;-0.77;-0.98;0.77;246.0;-0.212716;-0.081221
1.36;7.25;4.5;3.5;3.5;0.25;0.75;0.0;0.25;1.0;0.25;0.25;0.25;0.25;0.5;0.25;0.0;-0.202637;0.028809;0.991211;-0.84;0.56;0.49;261.0;-0.261006;-0.021801;4.5;3.75;3.0;3.5;0.5;1.5;0.0;0.5;0.5;0.25;0.25;0.25;1.0;0.75;0.25;0.25;-0.236816;0.040527;0.976562;-0.84;-0.98;0.7;236.0;-0.219164;-0.074276
1.37;7.25;4.5;3.75;3.5;0.25;0.75;0.0;0.25;1.0;0.25;0.25;0.0;0.25;0.25;0.25;0.25;-0.19873;0.023438;0.993164;-0.77;0.56;0.56;260.0;-0.268736;-0.020906;4.25;3.5;3.0;3.25;0.5;1.0;0.0;0.5;0.5;0.25;0.25;0.25;1.0;0.75;0.25;0.25;-0.229492;0.036133;0.981934;-0.7;-0.91;0.63;222.0;-0.215439;-0.068199
1.38;7.25;4.5;3.5;3.5;0.25;0.75;0.0;0.25;1.0;0.25;0.0;0.0;0.5;0.25;0.0;0.25;-0.200195;0.020508;0.99707;-0.84;0.7;0.49;254.0;-0.277925;-0.024557;4.5;3.75;3.0;3.5;0.5;1.25;0.0;0.5;0.5;0.25;0.25;0.25;1.0;0.75;0.5;0.25;-0.228027;0.036621;0.973145;-0.77;-0.98;0.7;236.0;-0.212389;-0.071867
1.39;7.0;4.5;3.5;3.5;0.25;0.5;0.0;0.25;1.0;0.25;0.25;0.25;0.25;0.5;0.0;0.25;-0.196777;0.029297;0.993164;-0.84;0.63;0.49;254.0;-0.264619;-0.021336;4.5;4.0;2.75;3.5;0.5;1.5;0.0;0.75;0.5;0.25;0.25;0.25;1.0;0.5;0.5;0.5;-0.229492;0.037598;0.979004;-0.77;-0.91;0.63;242.0;-0.212154;-0.086754
1.4;7.25;4.5;3.5;3.25;0.0;0.5;0.0;0.25;0.75;0.25;0.25;0.25;0.25;0.25;0.0;0.0;-0.199219;0.021973;0.995117;-0.84;0.63;0.56;243.0;-0.285609;-0.022801;4.5;3.75;3.0;3.5;0.5;1.5;0.0;0.75;0.5;0.5;0.25;0.25;0.75;0.5;0.25;0.25;-0.23291;0.03418;0.97998;-0.91;-0.84;0.63;238.0;-0.220062;-0.076803
1.41;7.25;4.5;3.5;3.25;0.0;0.5;0.0;0.25;0.75;0.25;0.25;0.25;0.5;0.25;0.0;0.25;-0.202637;0.026855;0.985352;-0.77;0.42;0.56;247.0;-0.277395;-0.028728;4.75;3.75;3.0;3.5;0.5;1.5;0.0;0.75;0.5;0.25;0.25;0.25;0.75;0.75;0.25;0.25;-0.226562;0.036621;0.975586;-0.98;-0.77;0.63;241.0;-0.221553;-0.073826
1.42;7.5;4.0;3.5;3.5;0.25;0.75;0.0;0.25;0.75;0.25;0.0;0.5;0.25;0.5;0.25;0.0;-0.204102;0.025391;0.994141;-0.77;0.63;0.49;255.0;-0.26691;-0.023692;4.5;3.75;2.75;3.5;0.5;1.0;0.0;0.5;0.25;0.25;0.25;0.25;1.0;0.75;0.25;0.25;-0.232422;0.036621;0.982422;-1.05;-0.77;0.63;223.0;-0.22793;-0.076802
1.43;7.5;4.25;3.75;3.5;0.25;0.75;0.0;0.25;1.25;0.25;0.0;0.5;0.25;0.5;0.0;0.0;-0.200195;0.025391;0.990723;-0.7;0.63;0.56;265.0;-0.261488;-0.015069;4.5;3.75;2.75;3.5;0.5;1.25;0.0;0.75;0.5;0.5;0.25;0.25;1.0;0.75;0.5;0.25;-0.230469;0.036621;0.98291;-1.26;-0.91;0.63;240.0;-0.20287;-0.077864
1.44;7.25;4.5;3.75;3.75;0.25;0.75;0.0;0.25;1.25;0.0;0.25;0.25;0.25;0.5;0.0;0.0;-0.199219;0.023926;0.993652;-0.91;0.63;0.42;265.0;-0.26699;-0.019088;4.75;4.0;3.0;3.5;0.25;1.0;0.0;0.75;0.5;0.5;0.0;0.25;1.0;0.75;0.5;0.25;-0.232422;0.036621;0.976562;-1.19;-0.84;0.63;239.0;-0.215017;-0.073322
1.45;7.25;4.5;3.75;3.75;0.0;0.75;0.0;0.25;1.25;0.0;0.25;0.5;0.25;0.25;0.0;0.25;-0.201172;0.023926;0.990234;-0.84;0.7;0.42;264.0;-0.265856;-0.026411;4.5;3.5;3.0;3.5;0.25;1.0;0.0;0.75;0.5;0.5;0.25;0.25;0.75;0.75;0.5;0.0;-0.226562;0.037109;0.983398;-1.19;-0.77;0.63;230.0;-0.210449;-0.068546
1.46;7.5;4.5;3.75;3.75;0.0;0.75;0.0;0.25;0.75;0.25;0.25;0.5;0.5;0.25;0.0;0.0;-0.199707;0.024902;0.992188;-0.77;0.56;0.49;263.0;-0.275691;-0.03443;4.25;3.75;3.0;3.25;0.5;1.0;0.0;0.5;0.25;0.5;0.25;0.25;0.75;0.75;0.5;0.25;-0.227051;0.040527;0.981445;-1.19;-0.63;0.63;224.0;-0.215524;-0.069138
1.47;7.25;4.75;3.75;3.75;0.25;0.75;0.0;0.25;1.0;0.0;0.25;0.5;0.25;0.25;0.0;0.25;-0.196289;0.020996;0.990234;-0.7;0.63;0.63;266.0;-0.272727;-0.030791;4.5;3.75;3.0;3.5;0.5;1.25;0.0;0.75;0.25;0.5;0.0;0.5;1.0;0.75;0.25;0.25;-0.233398;0.033203;0.979004;-1.05;-0.84;0.7;236.0;-0.218198;-0.083177
1.48;7.5;4.75;3.75;3.75;0.25;0.75;0.0;0.25;1.0;0.25;0.25;0.5;0.25;0.5;0.25;0.25;-0.204102;0.024414;0.987305;-0.77;0.56;0.63;277.0;-0.255991;-0.027173;4.5;3.75;2.75;3.25;0.5;1.25;0.0;0.75;0.25;0.5;0.25;0.25;1.0;0.75;0.25;0.25;-0.228516;0.039551;0.982422;-0.98;-0.84;0.63;230.0;-0.216498;-0.081365
1.49;7.5;4.5;3.75;3.75;0.25;0.5;0.0;0.25;1.0;0.0;0.25;0.25;0.25;0.5;0.25;0.0;-0.19873;0.022949;0.992188;-0.7;0.56;0.56;264.0;-0.269511;-0.019517;4.5;3.5;2.75;3.25;0.5;1.0;0.0;0.5;0.25;0.25;0.25;0.25;0.75;0.75;0.25;0.25;-0.239746;0.03125;0.971191;-0.77;-0.91;0.56;215.0;-0.229235;-0.06949
1.5;7.5;4.75;3.75;3.75;0.25;0.75;0.0;0.25;1.25;0.0;0.25;0.5;0.5;0.0;0.0;0.25;-0.202148;0.023438;0.993652;-0.77;0.7;0.63;272.0;-0.269152;-0.030836;4.75;3.75;2.75;3.0;0.5;1.25;0.0;0.5;0.5;0.25;0.5;0.25;0.75;0.75;0.25;0.25;-0.234375;0.041504;0.974121;-0.63;-0.77;0.63;227.0;-0.218331;-0.064126
1.51;7.25;4.75;3.75;3.75;0.0;0.75;0.0;0.25;0.75;0.25;0.5;0.5;0.5;0.25;0.0;0.0;-0.201172;0.024902;0.987305;-0.63;0.56;0.63;266.0;-0.270271;-0.038081;4.5;3.75;3.0;3.25;0.5;1.25;0.0;0.75;0.5;0.25;0.25;0.25;0.75;1.0;0.5;0.25;-0.234375;0.033691;0.981445;-0.77;-0.91;0.63;237.0;-0.205593;-0.069234
1.52;7.5;4.5;3.5;3.5;0.0;0.75;0.0;0.25;1.0;0.25;0.5;0.25;0.5;0.25;0.0;0.25;-0.19873;0.025391;0.998047;-0.63;0.63;0.63;262.0;-0.26468;-0.029074;4.25;3.75;2.75;3.25;0.5;1.25;0.0;0.75;0.25;0.5;0.25;0.25;1.0;0.75;0.25;0.25;-0.228516;0.032715;0.975586;-0.63;-0.91;0.7;227.0;-0.214175;-0.083731
1.53;7.5;4.75;3.75;3.5;0.0;0.75;0.0;0.25;1.5;0.0;0.5;0.25;0.25;0.5;0.25;0.25;-0.196777;0.030273;0.992676;-0.63;0.7;0.63;275.0;-0.248736;-0.017187;4.25;4.0;3.0;3.5;0.5;1.0;0.0;0.75;0.25;0.25;0.25;0.25;1.0;0.75;0.0;0.25;-0.229492;0.036133;0.978027;-0.77;-0.91;0.63;227.0;-0.232408;-0.083575
1.54;7.5;4.75;3.75;3.5;0.0;0.75;0.0;0.25;1.25;0.25;0.5;0.25;0.25;0.5;0.25;0.25;-0.206055;0.023438;0.995117;-0.77;0.63;0.56;274.0;-0.250254;-0.020149;4.5;3.75;2.75;3.5;0.5;1.0;0.0;0.5;0.25;0.25;0.25;0.25;1.0;0.75;0.25;0.25;-0.229004;0.038574;0.974121;-0.77;-0.84;0.63;223.0;-0.22793;-0.076802
1.55;7.5;4.75;3.75;4.0;0.0;0.75;0.0;0.25;1.0;0.0;0.5;0.25;0.5;0.5;0.0;0.25;-0.203613;0.021973;0.991211;-0.7;0.56;0.63;273.0;-0.266093;-0.032524;4.25;3.75;2.75;3.25;0.5;1.25;0.0;0.5;0.5;0.5;0.25;0.25;1.0;0.75;0.25;0.25;-0.235352;0.039062;0.975586;-0.91;-0.91;0.77;227.0;-0.210461;-0.072433
1.56;7.5;4.5;3.75;3.75;0.0;0.75;0.0;0.25;1.0;0.25;0.5;0.5;0.25;0.25;0.0;0.25;-0.203125;0.025391;0.994629;-0.77;0.63;0.56;269.0;-0.263666;-0.028985;4.5;3.75;3.0;3.5;0.5;1.25;0.0;0.5;0.25;0.25;0.25;0.25;1.0;0.5;0.25;0.25;-0.230469;0.036621;0.977539;-0.91;-0.91;0.7;227.0;-0.233992;-0.079742
1.57;7.5;4.75;3.5;3.75;0.0;0.75;0.0;0.25;1.0;0.0;0.25;0.5;0.25;0.25;0.0;0.25;-0.195312;0.027832;0.996582;-0.7;0.56;0.49;263.0;-0.275903;-0.031734;4.75;3.75;2.75;3.5;0.5;1.25;0.0;0.5;0.25;0.25;0.0;0.25;0.5;0.5;0.5;0.25;-0.233887;0.035645;0.97998;-1.26;-0.91;0.7;222.0;-0.241912;-0.071129
1.58;7.5;4.75;3.5;3.75;0.0;0.75;0.0;0.25;1.0;0.0;0.25;0.25;0.25;0.25;0.0;0.0;-0.202148;0.025391;0.994629;-0.49;0.42;0.63;258.0;-0.28497;-0.02717;4.75;3.75;2.75;3.5;0.5;1.0;0.0;0.5;0.25;0.25;0.0;0.25;0.75;0.75;0.5;0.25;-0.231934;0.037109;0.972656;-1.19;-0.98;0.77;224.0;-0.231988;-0.069975
1.59;7.75;4.75;3.75;3.75;0.0;0.75;0.0;0.25;1.0;0.25;0.5;0.25;0.5;0.25;0.0;0.25;-0.201172;0.028809;0.992188;-0.56;0.63;0.49;274.0;-0.267773;-0.029736;4.5;3.75;2.5;3.5;0.5;1.0;0.0;0.5;0.25;0.25;0.25;0.25;0.75;0.75;0.25;0.25;-0.233398;0.03418;0.980469;-1.26;-0.7;0.7;218.0;-0.231698;-0.074968
1.6;7.5;5.0;4.0;3.75;0.0;1.0;0.0;0.25;0.75;0.0;0.25;0.5;0.25;0.25;0.0;0.25;-0.205078;0.029785;0.990723;-0.49;0.42;0.63;271.0;-0.282655;-0.036955;4.5;3.75;3.0;3.5;0.5;1.0;0.0;0.5;0.25;0.25;0.25;0.25;0.75;0.75;0.25;0.25;-0.227051;0.037598;0.975098;-1.26;-0.77;0.63;224.0;-0.232618;-0.070496
1.61;7.5;5.0;3.75;3.5;0.0;1.0;0.0;0.25;1.0;0.0;0.0;0.25;0.25;0.0;0.0;0.0;-0.194336;0.020508;0.992188;-0.63;0.56;0.63;259.0;-0.29638;-0.028544;5.0;3.75;3.0;3.5;0.5;1.25;0.0;0.5;0.25;0.25;0.25;0.25;0.75;0.75;0.25;0.25;-0.233398;0.035156;0.977051;-1.26;-0.84;0.63;233.0;-0.235742;-0.068722
1.62;7.75;4.75;3.75;3.75;0.0;0.75;0.0;0.25;0.75;0.25;0.25;0.25;0.25;0.0;0.0;0.0;-0.200195;0.022461;0.993164;-0.77;0.63;0.63;261.0;-0.293926;-0.029297;4.75;3.75;3.25;3.5;0.25;1.25;0.0;0.5;0.25;0.25;0.25;0.25;0.75;0.75;0.0;0.25;-0.231934;0.036133;0.980469;-1.12;-0.84;0.7;227.0;-0.243636;-0.070361
1.63;7.75;4.75;3.75;3.75;0.25;0.75;0.0;0.25;0.75;0.25;0.25;0.5;0.25;0.25;0.0;0.0;-0.20166;0.026367;0.993164;-0.91;0.7;0.7;269.0;-0.280568;-0.029354;4.5;4.0;3.0;3.25;0.25;1.25;0.0;0.5;0.25;0.5;0.25;0.5;1.0;0.5;0.25;0.25;-0.233887;0.034668;0.975586;-0.98;-0.63;0.63;229.0;-0.225273;-0.081572
1.64;7.5;5.0;4.0;4.0;0.25;0.75;0.0;0.25;0.5;0.25;0.25;0.25;0.25;0.25;0.0;0.25;-0.202148;0.026367;0.994141;-0.84;0.63;0.7;270.0;-0.289283;-0.035649;4.5;3.75;2.75;3.25;0.25;1.0;0.0;0.5;0.5;0.25;0.25;0.5;1.0;0.75;0.25;0.25;-0.234375;0.037109;0.972656;-1.05;-0.63;0.56;224.0;-0.215142;-0.073875
1.65;7.75;5.5;3.75;4.25;0.25;0.75;0.0;0.25;0.5;0.0;0.0;0.25;0.25;0.25;0.0;0.25;-0.203613;0.021973;0.991211;-0.91;0.77;0.63;272.0;-0.304026;-0.040246;4.5;3.75;2.75;3.25;0.5;1.25;0.0;0.5;0.25;0.5;0.25;0.25;1.0;0.5;0.25;0.5;-0.230957;0.037598;0.974121;-1.05;-0.77;0.63;225.0;-0.22296;-0.079823
1.66;7.5;5.5;3.75;4.0;0.0;0.75;0.0;0.25;0.5;0.0;0.25;0.25;0.25;0.0;0.0;0.25;-0.201172;0.025879;0.992676;-0.77;0.63;0.63;264.0;-0.30574;-0.04364;4.5;3.75;3.0;3.0;0.5;1.25;0.0;0.5;0.25;0.5;0.25;0.25;0.75;0.5;0.5;0.25;-0.22998;0.035156;0.973633;-0.91;-0.77;0.7;224.0;-0.222588;-0.070067
1.67;7.5;5.25;4.0;4.0;0.0;1.0;0.0;0.25;0.5;0.25;0.25;0.0;0.25;0.0;0.0;0.25;-0.201172;0.024902;0.989258;-0.77;0.7;0.77;267.0;-0.302271;-0.039658;4.25;3.75;2.75;3.0;0.5;1.0;0.0;0.5;0.5;0.25;0.5;0.25;0.75;0.75;0.25;0.25;-0.233887;0.032715;0.976074;-1.05;-0.77;0.7;219.0;-0.214442;-0.065763
1.68;7.5;5.5;3.75;4.0;0.0;0.75;0.0;0.25;0.5;0.0;0.0;0.25;0.25;0.25;0.25;0.25;-0.197754;0.026367;0.991211;-0.63;0.63;0.77;266.0;-0.297506;-0.041348;4.5;3.75;2.75;3.25;0.5;1.0;0.0;0.5;0.5;0.25;0.25;0.25;0.75;0.5;0.75;0.25;-0.238281;0.036133;0.980957;-0.98;-0.84;0.7;225.0;-0.214008;-0.06798
1.69;7.5;5.5;3.75;4.25;0.0;0.75;0.0;0.25;0.5;0.0;0.0;0.25;0.25;0.25;0.0;0.5;-0.19873;0.023438;0.987793;-0.49;0.56;0.7;268.0;-0.301302;-0.044472;4.5;3.5;2.75;3.5;0.5;1.0;0.0;0.5;0.5;0.25;0.25;0.25;1.0;0.5;0.5;0.25;-0.230957;0.040527;0.97998;-1.12;-0.77;0.63;225.0;-0.216626;-0.072912
1.7;7.75;5.5;4.0;4.25;0.0;0.75;0.0;0.25;0.5;0.25;0.25;0.0;0.25;0.0;0.0;0.25;-0.199707;0.02002;0.994141;-0.28;0.49;0.77;273.0;-0.305854;-0.038778;4.5;3.75;3.0;3.5;0.5;1.25;0.0;0.5;0.5;0.25;0.25;0.25;0.75;0.75;0.5;0.25;-0.233398;0.036133;0.975586;-1.33;-0.77;0.63;233.0;-0.21624;-0.067935
1.71;7.75;5.5;4.0;4.5;0.0;1.0;0.0;0.25;0.5;0.0;0.0;0.0;0.5;0.0;0.0;0.25;-0.198242;0.022461;0.991211;-0.35;0.42;0.77;275.0;-0.311096;-0.047211;4.5;4.0;2.75;3.25;0.5;1.25;0.0;0.5;0.25;0.25;0.25;0.25;0.75;0.75;0.25;0.25;-0.230469;0.03418;0.980469;-1.33;-0.63;0.63;223.0;-0.232438;-0.074378
1.72;7.75;5.5;4.0;4.25;0.0;0.75;0.0;0.25;0.5;0.0;0.0;0.25;0.5;0.0;0.0;0.0;-0.203125;0.026855;0.995117;-0.42;0.42;0.7;271.0;-0.311237;-0.043951;4.25;3.75;2.75;3.0;0.5;1.25;0.0;0.5;0.5;0.25;0.25;0.25;0.75;0.75;0.0;0.25;-0.233398;0.03125;0.988281;-1.33;-0.42;0.63;216.0;-0.227681;-0.067735
1.73;7.5;5.5;4.0;4.25;0.0;0.75;0.0;0.25;0.5;0.25;0.0;0.25;0.25;0.0;0.0;0.25;-0.197266;0.025879;0.991699;-0.49;0.49;0.7;270.0;-0.304965;-0.042253;4.5;3.5;2.75;3.25;0.5;1.0;0.0;0.5;0.5;0.25;0.5;0.25;0.75;0.75;0.25;0.25;-0.226562;0.040527;0.976074;-1.26;-0.49;0.63;222.0;-0.215541;-0.064546
1.74;7.75;5.5;4.0;4.25;0.0;0.75;0.0;0.25;0.5;0.0;0.25;0.25;0.25;0.0;0.0;0.25;-0.204102;0.026367;0.986816;-0.49;0.49;0.7;273.0;-0.306103;-0.042564;4.5;3.75;2.75;3.25;0.5;1.0;0.0;0.5;0.5;0.25;0.5;0.25;0.75;0.75;0.25;0.25;-0.230469;0.036621;0.97168;-1.47;-0.49;0.56;224.0;-0.2178;-0.065687
1.75;7.75;5.5;3.75;4.25;0.0;0.75;0.0;0.25;0.5;0.0;0.25;0.5;0.25;0.25;0.0;0.25;-0.200195;0.024414;0.991699;-0.35;0.49;0.7;275.0;-0.29508;-0.044821;4.5;3.75;2.75;3.25;0.5;1.0;0.0;0.5;0.5;0.5;0.0;0.25;0.75;0.5;0.25;0.25;-0.232422;0.033203;0.981445;-1.26;-0.63;0.63;219.0;-0.230113;-0.065274
1.76;7.5;5.5;3.75;4.25;0.0;0.75;0.0;0.25;0.5;0.0;0.25;0.25;0.25;0.25;0.0;0.25;-0.198242;0.024414;0.987793;-0.42;0.56;0.63;269.0;-0.299342;-0.04375;4.5;3.75;2.75;3.25;0.5;1.25;0.0;0.5;0.5;0.25;0.25;0.25;0.75;0.25;0.25;0.25;-0.234375;0.03418;0.977051;-0.98;-0.63;0.56;220.0;-0.235995;-0.072976
1.77;7.5;5.5;4.0;4.25;0.25;1.0;0.0;0.25;0.75;0.25;0.25;0.25;0.5;0.25;0.0;0.25;-0.201172;0.025879;0.989258;-0.56;0.63;0.56;287.0;-0.279516;-0.042011;4.5;4.0;2.75;3.25;0.5;1.25;0.0;0.5;0.5;0.25;0.25;0.25;0.75;0.5;0.5;0.25;-0.233398;0.033691;0.977539;-0.91;-0.56;0.63;228.0;-0.223274;-0.071567
1.78;8.0;5.5;4.0;4.25;0.25;0.75;0.0;0.25;0.75;0.25;0.25;0.25;0.25;0.0;0.0;0.25;-0.19873;0.028809;0.990234;-0.42;0.63;0.56;285.0;-0.292652;-0.034926;4.5;3.75;2.75;3.25;0.25;1.25;0.0;0.5;0.5;0.5;0.25;0.25;0.75;0.75;0.5;0.25;-0.23291;0.035156;0.977051;-0.84;-0.84;0.77;227.0;-0.210127;-0.068033
1.79;7.75;5.5;4.0;4.25;0.0;0.75;0.0;0.25;0.75;0.25;0.25;0.25;0.25;0.0;0.0;0.25;-0.199219;0.030762;0.992188;-0.42;0.63;0.56;279.0;-0.293329;-0.037419;4.25;3.75;2.75;3.5;0.5;1.25;0.0;0.5;0.25;0.5;0.0;0.25;0.75;0.5;0.5;0.25;-0.230469;0.031738;0.980957;-0.84;-0.84;0.77;222.0;-0.227236;-0.078141
1.8;7.5;5.5;4.0;4.25;0.0;0.75;0.0;0.25;0.5;0.25;0.25;0.25;0.25;0.0;0.0;0.25;-0.20166;0.026855;0.98877;-0.56;0.56;0.56;273.0;-0.299397;-0.043025;4.25;3.25;2.75;3.5;0.5;1.0;0.0;0.5;0.25;0.5;0.0;0.25;0.75;0.75;0.25;0.25;-0.23291;0.036621;0.974121;-0.84;-0.84;0.77;213.0;-0.225372;-0.070499
1.81;7.75;5.5;4.0;4.25;0.0;0.75;0.0;0.5;0.25;0.25;0.25;0.5;0.5;0.0;0.0;0.25;-0.199219;0.022461;0.994629;-0.7;0.56;0.56;281.0;-0.294127;-0.056785;4.25;3.25;2.5;3.25;0.5;0.75;0.0;0.5;0.5;0.25;0.25;0.25;0.75;0.75;0.25;0.25;-0.228027;0.037109;0.977051;-0.91;-0.63;0.7;208.0;-0.216796;-0.064243
1.82;8.0;5.5;4.0;4.25;0.0;1.0;0.0;0.25;0.5;0.25;0.0;0.25;0.25;0.25;0.0;0.25;-0.200195;0.019043;0.991211;-0.63;0.56;0.49;281.0;-0.299398;-0.039833;4.5;3.75;2.5;3.5;0.5;1.0;0.0;0.5;0.25;0.5;0.25;0.25;1.0;0.5;0.5;0.25;-0.234863;0.034668;0.977539;-0.98;-0.84;0.7;224.0;-0.219969;-0.079989
1.83;7.75;5.5;3.75;4.25;0.0;0.75;0.0;0.25;0.5;0.25;0.25;0.25;0.25;0.0;0.0;0.25;-0.202637;0.022949;0.991211;-0.49;0.63;0.56;272.0;-0.300857;-0.042929;4.5;4.25;2.5;3.5;0.5;1.0;0.0;0.5;0.5;0.5;0.25;0.25;0.75;0.5;0.25;0.25;-0.232422;0.036133;0.979492;-0.91;-0.7;0.7;227.0;-0.228793;-0.072335
1.84;7.75;5.5;3.75;4.25;0.0;0.75;0.0;0.25;0.5;0.25;0.0;0.25;0.25;0.0;0.0;0.0;-0.20752;0.026855;0.995117;-0.63;0.49;0.63;268.0;-0.310131;-0.040656;4.25;4.0;2.75;3.5;0.5;1.0;0.0;0.5;0.25;0.5;0.25;0.25;0.75;0.75;0.25;0.25;-0.23291;0.037598;0.978027;-0.98;-0.77;0.7;223.0;-0.226068;-0.074316
1.85;7.75;5.5;3.75;4.25;0.25;0.75;0.0;0.25;0.5;0.25;0.0;0.25;0.25;0.25;0.0;0.25;-0.201172;0.026855;0.990723;-0.42;0.63;0.56;275.0;-0.298398;-0.039169;4.5;3.5;2.75;3.0;0.5;1.25;0.0;0.5;0.25;0.5;0.25;0.25;0.75;0.75;0.25;0.25;-0.230469;0.038574;0.977051;-0.98;-0.91;0.7;218.0;-0.221269;-0.068391
1.86;7.75;5.5;4.0;4.25;0.0;1.0;0.0;0.25;0.5;0.25;0.0;0.5;0.25;0.0;0.25;0.25;-0.205078;0.029297;0.995605;-0.56;0.56;0.49;281.0;-0.291815;-0.046174;4.25;3.75;2.75;3.0;0.25;1.0;0.0;0.5;0.25;0.5;0.25;0.25;0.75;0.5;0.5;0.5;-0.22998;0.035156;0.978027;-1.12;-0.7;0.63;214.0;-0.217894;-0.075411
1.87;7.75;5.5;4.0;4.5;0.0;1.0;0.0;0.25;0.5;0.25;0.0;0.5;0.25;0.0;0.25;0.25;-0.205078;0.024414;0.994629;-0.56;0.56;0.49;284.0;-0.29177;-0.048058;4.5;3.75;2.75;3.25;0.25;1.0;0.0;0.5;0.5;0.5;0.0;0.0;0.75;0.5;0.5;0.25;-0.232422;0.03418;0.978516;-1.19;-0.49;0.56;216.0;-0.228965;-0.064185
1.88;7.75;5.5;3.75;4.25;0.25;0.75;0.0;0.25;0.5;0.25;0.25;0.5;0.25;0.0;0.0;0.25;-0.20166;0.025391;0.993652;-0.49;0.56;0.56;278.0;-0.293683;-0.044422;4.5;3.75;3.0;3.25;0.5;1.0;0.0;0.5;0.5;0.75;0.25;0.25;0.75;0.5;0.5;0.25;-0.230469;0.031738;0.975098;-1.05;-0.21;0.63;231.0;-0.211216;-0.062479
1.89;7.75;5.5;4.0;4.25;0.25;0.75;0.0;0.25;0.5;0.0;0.25;0.25;0.25;0.25;0.0;0.25;-0.198242;0.022461;0.995117;-0.56;0.63;0.56;278.0;-0.298151;-0.039603;4.5;4.0;3.0;3.0;0.5;1.0;0.0;0.5;0.5;0.5;0.0;0.0;0.75;0.5;0.5;0.25;-0.229492;0.033203;0.976074;-0.77;0.0;0.63;222.0;-0.229406;-0.059362
1.9;7.75;5.5;3.75;4.25;0.25;0.75;0.0;0.25;0.5;0.0;0.0;0.25;0.25;0.0;0.0;0.25;-0.200684;0.026855;0.987305;-0.56;0.56;0.49;270.0;-0.310192;-0.042121;4.5;3.75;3.0;3.5;0.5;1.25;0.0;0.5;0.5;0.5;0.0;0.0;0.75;0.5;0.25;0.0;-0.231445;0.035156;0.97998;-0.91;0.07;0.63;224.0;-0.23989;-0.063457
1.91;7.5;5.5;4.0;4.25;0.25;0.75;0.0;0.25;0.75;0.0;0.0;0.25;0.25;0.0;0.0;0.25;-0.20166;0.024414;0.995117;-0.91;0.84;0.42;274.0;-0.301322;-0.038081;4.25;3.75;2.75;3.25;0.5;1.5;0.0;0.5;0.5;0.5;0.25;0.25;0.75;0.25;0.25;0.0;-0.232422;0.033203;0.978027;-0.84;-0.21;0.63;221.0;-0.230605;-0.074619
1.92;7.75;5.5;4.0;4.25;0.0;1.0;0.0;0.25;0.75;0.25;0.25;0.25;0.25;0.0;0.0;0.25;-0.20166;0.025391;0.992188;-0.77;0.77;0.49;282.0;-0.291841;-0.039902;4.25;4.0;2.5;3.0;0.5;1.0;0.0;0.5;0.5;0.5;0.25;0.25;0.75;0.25;0.25;0.0;-0.233398;0.038086;0.979492;-0.7;-0.49;0.7;212.0;-0.233711;-0.070374
1.93;7.75;5.5;4.0;4.25;0.0;0.75;0.0;0.25;0.5;0.25;0.0;0.25;0.25;0.25;0.0;0.25;-0.20166;0.022461;0.996582;-0.84;0.77;0.49;275.0;-0.299921;-0.038841;4.25;3.5;2.75;3.5;0.5;0.75;0.0;0.5;0.5;0.75;0.25;0.25;0.75;0.25;0.25;0.0;-0.230957;0.037598;0.978516;-0.7;-0.56;0.77;216.0;-0.226261;-0.065614
1.94;7.5;5.5;3.5;4.25;0.0;0.75;0.0;0.25;0.5;0.25;0.0;0.25;0.25;0.0;0.0;0.0;-0.193848;0.029785;0.989746;-0.84;0.77;0.42;262.0;-0.309644;-0.04378;4.25;3.5;2.75;3.5;0.5;1.0;0.0;0.5;0.75;0.75;0.25;0.25;0.75;0.5;0.25;0.25;-0.233398;0.039062;0.977051;-0.63;-0.7;0.84;226.0;-0.207253;-0.06209
1.95;7.5;5.5;3.75;4.25;0.0;1.0;0.0;0.25;0.5;0.25;0.0;0.25;0.25;0.0;0.0;0.25;-0.204102;0.023438;0.991211;-0.91;0.84;0.42;270.0;-0.303728;-0.046283;4.25;3.75;2.75;3.5;0.5;1.25;0.0;0.5;0.5;0.75;0.25;0.25;0.5;0.5;0.25;0.25;-0.230469;0.029785;0.977539;-0.77;-0.7;0.77;226.0;-0.220142;-0.067193
1.96;7.5;5.5;4.0;4.25;0.0;0.75;0.0;0.25;0.5;0.25;0.0;0.5;0.5;0.0;0.25;0.0;-0.198242;0.023438;0.990234;-0.98;0.84;0.49;276.0;-0.291743;-0.047427;4.25;3.5;2.75;3.5;0.25;1.25;0.0;0.5;0.5;0.75;0.25;0.25;0.5;0.25;0.25;0.25;-0.237793;0.035156;0.977051;-0.77;-0.7;0.7;218.0;-0.225917;-0.070428
1.97;7.5;5.25;3.75;4.0;0.0;1.0;0.0;0.25;0.75;0.25;0.25;0.5;0.25;0.0;0.0;0.0;-0.205566;0.023438;0.993164;-0.84;0.84;0.35;272.0;-0.288112;-0.040909;4.5;3.5;2.75;3.0;0.25;1.25;0.0;0.5;0.5;0.75;0.25;0.0;0.75;0.25;0.25;0.25;-0.232422;0.029297;0.97998;-0.91;-0.77;0.63;214.0;-0.22804;-0.065006
1.98;7.75;5.5;3.75;3.75;0.0;1.0;0.0;0.25;0.75;0.25;0.25;0.5;0.25;0.0;0.0;0.25;-0.202148;0.020996;0.992188;-0.98;0.77;0.35;276.0;-0.286991;-0.039982;4.25;3.5;2.75;3.25;0.25;1.0;0.0;0.5;0.5;0.5;0.25;0.25;0.75;0.25;0.5;0.25;-0.233887;0.035645;0.980469;-0.84;-0.84;0.77;214.0;-0.219444;-0.071694
1.99;7.5;5.0;3.75;4.25;0.0;1.0;0.0;0.25;0.75;0.25;0.25;0.25;0.25;0.25;0.0;0.25;-0.205078;0.027344;0.988281;-0.91;0.84;0.35;273.0;-0.282702;-0.038708;4.25;3.75;2.75;3.5;0.25;1.0;0.0;0.5;0.5;0.75;0.25;0.25;0.75;0.25;0.5;0.25;-0.238281;0.036133;0.981934;-0.91;-0.91;0.77;223.0;-0.216723;-0.073095
2.0;7.5;5.5;3.75;4.0;0.0;1.0;0.0;0.25;0.75;0.25;0.25;0.25;0.25;0.25;0.0;0.25;-0.194824;0.023438;0.992676;-0.91;0.77;0.42;276.0;-0.2851;-0.039013;4.5;4.0;2.75;3.5;0.25;1.25;0.0;0.5;0.5;0.75;0.25;0.25;0.75;0.5;0.5;0.25;-0.236328;0.031738;0.974121;-0.91;-0.98;0.84;233.0;-0.21406;-0.071946
2.01;7.75;5.5;3.75;4.0;0.0;0.75;0.0;0.25;0.75;0.25;0.25;0.25;0.25;0.25;0.0;0.25;-0.206543;0.027344;0.993164;-0.77;0.63;0.42;275.0;-0.28775;-0.034968;4.5;4.0;2.75;3.25;0.5;1.25;0.0;0.5;0.5;0.75;0.25;0.25;0.75;0.5;0.5;0.25;-0.229492;0.035645;0.974121;-0.77;-0.98;0.7;233.0;-0.211974;-0.068266
2.02;7.5;5.0;3.75;4.0;0.0;0.5;0.0;0.25;0.75;0.0;0.25;0.25;0.25;0.0;0.0;0.25;-0.207031;0.025391;0.989746;-0.7;0.7;0.42;259.0;-0.297593;-0.034245;4.5;3.75;3.0;3.25;0.5;1.0;0.0;0.5;0.25;0.75;0.0;0.25;0.75;0.25;0.5;0.0;-0.238281;0.030273;0.975586;-0.77;-1.12;0.7;221.0;-0.234869;-0.068089
2.03;7.75;5.0;3.75;4.25;0.0;1.0;0.0;0.25;0.5;0.0;0.25;0.25;0.25;0.25;0.0;0.0;-0.202148;0.02002;0.993652;-0.63;0.63;0.49;268.0;-0.300247;-0.040893;4.25;3.75;2.75;3.5;0.5;1.0;0.0;0.5;0.25;0.75;0.25;0.25;0.75;0.25;0.5;0.0;-0.230957;0.037109;0.977539;-0.84;-1.19;0.84;221.0;-0.227026;-0.075286
2.04;7.5;5.0;3.75;3.75;0.0;0.75;0.0;0.25;0.5;0.0;0.25;0.25;0.25;0.25;0.0;0.25;-0.200684;0.023926;0.989258;-0.63;0.49;0.49;258.0;-0.297324;-0.037151;4.5;3.75;3.0;3.25;0.5;1.25;0.0;0.5;0.5;0.75;0.25;0.25;0.75;0.25;0.5;0.25;-0.233887;0.031738;0.978027;-0.7;-1.12;0.7;231.0;-0.216714;-0.067591
2.05;7.5;5.0;3.75;3.75;0.0;0.75;0.0;0.25;0.5;0.25;0.25;0.25;0.25;0.25;0.0;0.25;-0.20459;0.025391;0.989746;-0.7;0.77;0.42;261.0;-0.291467;-0.03605;4.75;3.75;3.0;3.25;0.5;1.0;0.0;0.5;0.5;0.75;0.0;0.25;0.75;0.5;0.5;0.25;-0.23584;0.03418;0.977051;-0.63;-1.12;0.77;231.0;-0.218988;-0.059717
2.06;7.75;5.0;3.5;3.5;0.0;0.75;0.0;0.25;0.75;0.25;0.25;0.0;0.25;0.25;0.0;0.0;-0.202148;0.022461;0.986816;-0.77;0.63;0.49;257.0;-0.294803;-0.024904;4.75;3.75;2.75;3.25;0.25;1.25;0.0;0.5;0.25;0.5;0.25;0.25;0.75;0.25;0.25;0.25;-0.23291;0.036133;0.973145;-0.63;-1.33;0.77;219.0;-0.241531;-0.076363
2.07;7.5;5.0;3.5;3.75;0.0;0.75;0.0;0.25;0.75;0.25;0.25;0.25;0.25;0.25;0.0;0.0;-0.201172;0.025879;0.988281;-0.77;0.7;0.49;260.0;-0.28795;-0.031669;4.5;3.5;3.0;3.25;0.5;1.0;0.0;0.5;0.25;0.25;0.25;0.25;0.75;0.25;0.25;0.25;-0.235352;0.033691;0.974609;-0.49;-1.19;0.77;214.0;-0.243685;-0.072591
2.08;7.5;4.75;3.5;3.75;0.0;0.75;0.0;0.25;0.75;0.25;0.25;0.25;0.5;0.25;0.0;0.25;-0.195801;0.026367;0.991699;-0.7;0.77;0.56;261.0;-0.278911;-0.035845;4.5;3.75;3.0;3.5;0.5;1.0;0.0;0.5;0.5;0.5;0.25;0.25;1.0;0.25;0.25;0.25;-0.234863;0.035156;0.977051;-0.49;-1.33;0.77;228.0;-0.22804;-0.072503
2.09;7.5;5.0;4.0;3.75;0.0;0.75;0.0;0.25;0.75;0.25;0.0;0.25;0.25;0.0;0.0;0.25;-0.202637;0.023438;0.996582;-0.7;0.63;0.49;262.0;-0.295564;-0.031384;4.5;3.75;3.0;3.5;0.5;1.0;0.0;0.5;0.5;0.5;0.25;0.25;1.0;0.25;0.0;0.25;-0.23291;0.034668;0.973145;-0.42;-1.19;0.77;225.0;-0.236127;-0.072379
2.1;7.5;5.0;3.75;3.5;0.0;0.75;0.0;0.25;0.5;0.25;0.25;0.25;0.5;0.0;0.0;0.25;-0.197266;0.023438;0.993164;-0.63;0.56;0.56;258.0;-0.293641;-0.039664;4.5;3.5;2.75;3.5;0.5;1.25;0.0;0.5;0.5;0.5;0.25;0.25;0.75;0.25;0.25;0.25;-0.236328;0.036621;0.975098;-0.63;-1.26;0.84;223.0;-0.228581;-0.072221
2.11;7.25;4.5;3.75;3.75;0.0;0.75;0.0;0.25;0.5;0.25;0.25;0.25;0.25;0.25;0.25;0.25;-0.207031;0.029297;0.991699;-0.77;0.7;0.42;256.0;-0.279934;-0.035607;4.75;4.0;2.75;3.5;0.5;1.5;0.0;0.5;0.5;0.5;0.25;0.25;0.75;0.25;0.25;0.25;-0.229492;0.032227;0.978516;-0.49;-1.33;0.7;234.0;-0.233773;-0.074606
2.12;7.5;4.5;3.75;3.75;0.0;0.75;0.0;0.25;0.75;0.0;0.25;0.25;0.25;0.25;0.0;0.25;-0.199707;0.03125;0.994141;-0.77;0.77;0.49;257.0;-0.287263;-0.030277;4.75;4.0;2.75;3.5;0.5;1.0;0.0;0.5;0.5;0.5;0.25;0.25;1.0;0.25;0.25;0.5;-0.231934;0.041504;0.979492;-0.56;-1.4;0.77;232.0;-0.227976;-0.074975
2.13;7.5;4.75;3.75;3.75;0.25;0.75;0.0;0.25;0.75;0.25;0.0;0.25;0.25;0.25;0.0;0.25;-0.202637;0.022461;0.993652;-0.7;0.7;0.49;262.0;-0.286531;-0.028579;4.75;4.0;3.0;3.75;0.5;1.0;0.0;0.5;0.5;0.5;0.25;0.25;0.75;0.5;0.25;0.5;-0.234375;0.037109;0.979492;-0.49;-1.4;0.77;238.0;-0.226891;-0.068467
2.14;7.5;4.5;3.75;3.75;0.0;0.75;0.0;0.25;0.75;0.0;0.25;0.25;0.25;0.25;0.0;0.25;-0.19873;0.022461;0.993652;-0.7;0.63;0.49;257.0;-0.287263;-0.030277;4.5;4.0;3.0;3.5;0.5;1.0;0.0;0.5;0.5;0.5;0.25;0.25;0.75;0.25;0.25;0.5;-0.22998;0.03125;0.976562;-0.49;-1.54;0.91;230.0;-0.230387;-0.071096
2.15;7.5;4.5;3.75;3.75;0.0;0.5;0.0;0.25;0.75;0.0;0.25;0.25;0.25;0.0;0.25;0.25;-0.201172;0.022461;0.991699;-0.7;0.7;0.42;254.0;-0.287398;-0.029922;4.75;4.0;3.0;3.75;0.5;1.0;0.0;0.5;0.5;0.5;0.25;0.25;0.75;0.25;0.25;0.25;-0.228516;0.035645;0.974609;-0.35;-1.75;0.84;234.0;-0.236947;-0.069357
2.16;7.5;4.5;3.75;3.75;0.0;0.5;0.0;0.25;0.75;0.25;0.0;0.5;0.25;0.25;0.25;0.25;-0.20459;0.027344;0.994141;-0.7;0.7;0.49;259.0;-0.275493;-0.029041;4.75;4.0;2.75;3.75;0.5;1.25;0.0;0.5;0.5;0.5;0.0;0.25;0.75;0.25;0.5;0.25;-0.233398;0.035156;0.977539;-0.14;-1.89;0.77;234.0;-0.233261;-0.073599
2.17;7.5;4.75;3.75;3.75;0.0;0.75;0.0;0.25;1.0;0.0;0.0;0.5;0.25;0.25;0.0;0.0;-0.196777;0.032715;0.990234;-0.56;0.63;0.42;261.0;-0.284883;-0.027802;4.75;3.75;3.0;3.5;0.5;1.25;0.0;0.5;0.5;0.5;0.25;0.25;0.75;0.25;0.25;0.25;-0.229004;0.035156;0.974609;-0.14;-2.03;0.91;232.0;-0.233248;-0.068905
2.18;7.5;4.5;3.75;3.5;0.25;0.5;0.0;0.25;0.5;0.0;0.0;0.5;0.5;0.0;0.0;0.25;-0.201172;0.023926;0.991699;-0.63;0.77;0.49;250.0;-0.297039;-0.036385;4.75;4.0;3.0;3.75;0.5;1.25;0.0;0.75;0.5;0.5;0.25;0.25;1.0;0.25;0.25;0.25;-0.23291;0.039551;0.979004;0.07;-1.96;0.77;244.0;-0.228147;-0.081144
2.19;7.5;4.5;3.75;3.75;0.0;0.5;0.0;0.25;0.5;0.25;0.25;0.5;0.25;0.25;0.0;0.25;-0.200195;0.022949;0.991211;-0.63;0.63;0.56;256.0;-0.284977;-0.033659;4.25;4.25;2.75;3.75;0.5;1.5;0.0;0.75;0.5;0.5;0.25;0.25;0.75;0.5;0.25;0.25;-0.236328;0.034668;0.976562;-0.0;-1.89;0.84;240.0;-0.222293;-0.084816
2.2;7.25;4.5;3.75;3.75;0.0;0.5;0.0;0.25;0.5;0.25;0.25;0.5;0.25;0.0;0.0;0.0;-0.197266;0.025879;0.988281;-0.7;0.7;0.56;249.0;-0.293969;-0.035582;4.25;4.0;2.75;3.5;0.5;1.5;0.0;0.75;0.25;0.5;0.25;0.25;0.75;0.5;0.5;0.25;-0.227539;0.039551;0.978516;-0.0;-1.68;0.77;234.0;-0.218966;-0.0876
2.21;7.25;4.75;3.75;3.75;0.0;0.75;0.0;0.25;0.75;0.25;0.25;0.5;0.25;0.25;0.0;0.0;-0.20166;0.02832;0.991699;-0.56;0.7;0.56;261.0;-0.27969;-0.0334;4.75;4.0;3.0;3.5;0.5;1.25;0.0;0.75;0.25;0.5;0.25;0.25;0.75;0.5;0.25;0.5;-0.22998;0.035645;0.977051;-0.35;-1.54;0.7;239.0;-0.228698;-0.079835
2.22;7.25;4.5;3.75;3.5;0.0;0.75;0.0;0.25;0.75;0.25;0.25;0.5;0.5;0.25;0.0;0.25;-0.20752;0.02832;0.991699;-0.7;0.7;0.56;259.0;-0.270517;-0.035388;4.5;4.0;3.0;3.5;0.5;1.5;0.0;0.5;0.5;0.5;0.25;0.25;0.5;0.75;0.25;0.5;-0.22998;0.03418;0.978516;-0.35;-1.33;0.7;238.0;-0.219848;-0.067424
2.23;7.25;4.5;3.75;3.25;0.0;0.75;0.0;0.25;0.75;0.25;0.25;0.5;0.5;0.25;0.0;0.0;-0.205078;0.020508;0.995605;-0.56;0.63;0.49;254.0;-0.273991;-0.031535;4.5;4.0;3.0;3.5;0.5;1.5;0.0;0.75;0.25;0.5;0.25;0.25;0.75;0.5;0.25;0.25;-0.231445;0.039551;0.981445;-0.42;-1.19;0.77;237.0;-0.229336;-0.083048
2.24;7.5;4.5;2.5;3.5;0.0;0.75;0.0;0.25;0.5;0.25;0.25;0.5;0.5;0.0;0.0;0.0;-0.197754;0.024414;0.995605;-0.77;0.63;0.42;239.0;-0.290837;-0.046611;4.5;4.0;3.0;3.5;0.5;1.5;0.0;0.75;0.25;0.5;0.5;0.0;1.0;0.25;0.25;0.25;-0.232422;0.039551;0.971191;-0.49;-1.12;0.7;237.0;-0.231496;-0.087173
2.25;7.5;4.5;3.5;3.5;0.25;0.75;0.0;0.25;0.75;0.25;0.25;0.5;0.25;0.0;0.0;0.25;-0.201172;0.026855;0.990723;-0.7;0.56;0.49;257.0;-0.280544;-0.032169;4.0;4.0;3.0;3.5;0.5;1.5;0.0;0.75;0.5;0.5;0.25;0.25;0.75;0.75;0.0;0.25;-0.233398;0.036133;0.977051;-0.7;-1.12;0.7;235.0;-0.219164;-0.079658
2.26;7.5;4.75;3.75;3.5;0.25;0.75;0.0;0.25;0.75;0.25;0.25;0.5;0.25;0.25;0.0;0.25;-0.208496;0.029297;0.992188;-0.63;0.63;0.42;265.0;-0.275592;-0.030206;4.5;4.0;2.75;3.75;0.5;1.5;0.0;0.5;0.25;0.5;0.25;0.0;0.75;0.25;0.25;0.25;-0.231445;0.04248;0.974121;-0.7;-1.12;0.77;228.0;-0.245675;-0.081547
2.27;7.25;4.25;3.75;3.5;0.25;0.5;0.0;0.25;0.75;0.25;0.25;0.5;0.25;0.5;0.0;0.25;-0.195312;0.02832;0.992188;-0.7;0.56;0.49;256.0;-0.266608;-0.02437;4.5;4.0;3.0;3.75;0.5;1.5;0.0;0.5;0.25;0.5;0.25;0.25;0.75;0.25;0.25;0.5;-0.229004;0.037109;0.985352;-0.7;-1.05;0.84;235.0;-0.236541;-0.083415
2.28;7.25;4.5;3.5;3.5;0.0;0.5;0.0;0.25;0.5;0.25;0.25;0.25;0.25;0.25;0.0;0.25;-0.204102;0.023926;0.992188;-0.77;0.63;0.35;244.0;-0.289654;-0.031403;4.25;4.0;3.0;3.75;0.5;1.5;0.0;0.5;0.0;0.5;0.25;0.25;1.0;0.5;0.25;0.5;-0.229004;0.037109;0.976562;-0.7;-1.12;0.77;233.0;-0.231522;-0.092445
2.29;7.25;4.5;3.5;3.5;0.0;0.5;0.0;0.25;0.5;0.0;0.25;0.5;0.5;0.0;0.0;0.25;-0.197754;0.025391;0.98877;-0.77;0.56;0.42;244.0;-0.292185;-0.041771;4.75;4.0;3.0;3.5;0.5;1.25;0.0;0.5;0.0;0.5;0.25;0.25;0.75;0.75;0.25;0.25;-0.231445;0.03125;0.978516;-0.49;-1.26;0.77;232.0;-0.237419;-0.075621
2.3;7.25;4.5;3.5;3.25;0.0;0.5;0.0;0.25;0.25;0.25;0.25;0.5;0.25;0.0;0.0;0.25;-0.203613;0.024902;0.993652;-0.84;0.56;0.49;238.0;-0.298691;-0.038799;4.75;4.0;3.0;3.75;0.5;1.25;0.0;0.5;0.25;0.5;0.25;0.5;0.75;0.5;0.0;0.25;-0.228516;0.033203;0.977051;-0.35;-1.19;0.77;236.0;-0.23935;-0.077312
2.31;7.25;4.5;3.5;3.5;0.0;0.5;0.0;0.25;0.5;0.25;0.25;0.5;0.25;0.25;0.0;0.25;-0.20166;0.026367;0.991211;-0.7;0.63;0.56;247.0;-0.283831;-0.034488;4.75;4.0;3.0;3.75;0.5;1.5;0.0;0.75;0.5;0.25;0.25;0.25;0.75;0.5;0.25;0.25;-0.230469;0.037109;0.978516;-0.28;-1.26;0.77;244.0;-0.230422;-0.079035
2.32;7.0;4.5;3.5;3.5;0.0;0.5;0.0;0.25;0.75;0.25;0.25;0.5;0.25;0.25;0.25;0.25;-0.197754;0.028809;0.994141;-0.77;0.56;0.49;251.0;-0.266859;-0.032244;4.75;4.0;3.0;3.5;0.5;1.5;0.0;0.5;0.5;0.25;0.25;0.0;0.75;0.5;0.25;0.25;-0.231934;0.037598;0.977539;-0.28;-1.4;0.56;234.0;-0.238994;-0.06892
2.33;6.75;4.0;3.25;3.5;0.0;0.5;0.0;0.0;0.75;0.25;0.25;0.5;0.25;0.25;0.0;0.25;-0.203125;0.022949;0.990234;-0.63;0.49;0.49;233.0;-0.274838;-0.025602;4.75;3.75;3.0;3.75;0.5;1.5;0.0;0.75;0.0;0.25;0.25;0.0;0.75;0.5;0.25;0.5;-0.226562;0.035645;0.975586;-0.28;-1.4;0.77;233.0;-0.245053;-0.087766
2.34;7.5;4.25;3.5;3.5;0.0;0.5;0.0;0.25;0.75;0.25;0.25;0.5;0.25;0.25;0.25;0.25;-0.20166;0.024414;0.993164;-0.7;0.56;0.56;254.0;-0.268415;-0.027766;4.5;3.75;3.0;3.5;0.5;1.5;0.0;0.5;0.25;0.25;0.25;0.25;1.0;0.5;0.5;0.5;-0.234863;0.042969;0.981934;-0.28;-1.26;0.7;234.0;-0.221349;-0.083701
2.35;7.5;4.5;3.75;3.5;0.0;0.5;0.0;0.25;0.75;0.25;0.0;0.5;0.25;0.25;0.0;0.25;-0.199707;0.025391;0.999023;-0.63;0.56;0.49;254.0;-0.283073;-0.026125;4.5;4.0;3.0;3.75;0.5;1.25;0.0;0.5;0.25;0.5;0.25;0.25;0.75;0.5;0.5;0.25;-0.228516;0.036133;0.979492;-0.49;-1.19;0.77;236.0;-0.227139;-0.076997
2.36;7.25;4.5;3.75;3.25;0.25;0.5;0.0;0.25;0.75;0.25;0.25;0.5;0.25;0.25;0.0;0.25;-0.19873;0.023926;0.991211;-0.7;0.49;0.56;254.0;-0.27407;-0.025258;4.75;4.0;3.0;3.75;0.5;1.5;0.0;0.5;0.25;0.5;0.25;0.5;1.0;0.5;0.25;0.25;-0.227051;0.037109;0.979492;-0.63;-1.05;0.7;244.0;-0.226747;-0.083461
2.37;7.5;4.5;3.75;3.25;0.0;0.5;0.0;0.25;0.75;0.25;0.25;0.25;0.25;0.25;0.0;0.25;-0.19873;0.020508;0.991699;-0.77;0.63;0.49;250.0;-0.282872;-0.021668;4.75;4.0;3.0;3.75;0.25;1.25;0.0;0.5;0.25;0.5;0.0;0.25;1.0;0.25;0.25;0.25;-0.231934;0.037109;0.975098;-0.56;-0.98;0.77;230.0;-0.246573;-0.082474
2.38;7.5;4.25;3.75;3.5;0.0;0.5;0.0;0.25;0.75;0.0;0.0;0.5;0.25;0.25;0.0;0.25;-0.200195;0.023926;0.986328;-0.7;0.56;0.42;248.0;-0.287712;-0.025734;4.5;3.75;3.0;3.5;0.25;0.75;0.0;0.5;0.25;0.25;0.25;0.25;0.75;0.5;0.25;0.25;-0.230957;0.035156;0.97998;-0.56;-1.12;0.7;216.0;-0.242162;-0.072209
2.39;7.25;4.5;3.75;3.25;0.0;0.5;0.0;0.25;0.75;0.25;0.25;0.25;0.25;0.25;0.25;0.25;-0.203125;0.029297;0.991211;-0.7;0.63;0.49;251.0;-0.273611;-0.023835;5.0;4.25;3.0;3.5;0.25;1.0;0.0;0.5;0.25;0.25;0.25;0.25;0.75;0.5;0.25;0.25;-0.227539;0.036621;0.979004;-0.63;-1.19;0.77;229.0;-0.248805;-0.072409
2.4;7.25;4.5;3.75;3.25;0.0;0.5;0.0;0.25;0.75;0.25;0.25;0.25;0.25;0.25;0.0;0.25;-0.200684;0.026367;0.991211;-0.7;0.56;0.49;248.0;-0.281495;-0.02316;5.0;4.25;3.0;3.5;0.25;0.75;0.0;0.5;0.25;0.25;0.25;0.25;0.75;0.5;0.5;0.25;-0.227051;0.037598;0.978027;-0.56;-1.33;0.63;229.0;-0.241852;-0.069931
2.41;7.25;4.5;3.5;3.25;0.25;0.75;0.0;0.25;0.75;0.25;0.25;0.25;0.25;0.25;0.0;0.25;-0.197754;0.020996;0.993164;-0.63;0.56;0.56;251.0;-0.278286;-0.026481;5.0;4.0;3.0;3.75;0.25;1.0;0.0;0.5;0.25;0.25;0.25;0.5;0.75;0.5;0.5;0.25;-0.23291;0.039062;0.984863;-0.56;-1.33;0.7;236.0;-0.233918;-0.076195
2.42;7.25;3.5;3.75;3.25;0.25;0.5;0.0;0.25;0.75;0.0;0.25;0.5;0.5;0.25;0.25;0.25;-0.205566;0.019531;0.993164;-0.63;0.56;0.49;246.0;-0.261976;-0.025355;5.0;4.0;3.25;3.75;0.25;1.0;0.0;0.5;0.25;0.25;0.25;0.25;1.0;0.5;0.25;0.25;-0.231445;0.036133;0.974609;-0.35;-1.26;0.7;235.0;-0.243532;-0.075148
2.43;7.0;4.0;3.75;3.5;0.0;0.5;0.0;0.25;0.75;0.25;0.0;0.25;0.25;0.25;0.25;0.25;-0.197754;0.024414;0.991699;-0.63;0.63;0.49;243.0;-0.275186;-0.023825;4.75;4.0;3.25;3.75;0.25;1.0;0.0;0.5;0.25;0.25;0.0;0.25;0.75;0.5;0.25;0.25;-0.233398;0.041504;0.978027;-0.56;-1.33;0.7;227.0;-0.25173;-0.07292
2.44;7.0;4.5;3.75;3.5;0.0;0.75;0.0;0.25;1.0;0.0;0.0;0.25;0.25;0.25;0.25;0.25;-0.203125;0.027344;0.987793;-0.77;0.63;0.56;252.0;-0.274835;-0.026374;5.0;4.0;3.25;3.75;0.5;1.0;0.0;0.5;0.25;0.25;0.25;0.25;0.5;0.5;0.25;0.25;-0.228027;0.037598;0.981445;-0.42;-1.26;0.7;234.0;-0.250338;-0.065602
2.45;7.25;4.25;3.5;3.25;0.25;0.5;0.0;0.25;1.0;0.25;0.0;0.25;0.25;0.0;0.0;0.25;-0.199707;0.023438;0.989258;-0.7;0.56;0.63;243.0;-0.283048;-0.018503;5.0;4.0;3.25;3.75;0.25;1.0;0.0;0.5;0.25;0.25;0.25;0.25;0.75;0.75;0.25;0.25;-0.227051;0.034668;0.975586;-0.49;-1.12;0.7;235.0;-0.241191;-0.068784
2.46;7.25;4.25;3.5;3.25;0.0;0.5;0.0;0.25;1.0;0.25;0.25;0.25;0.25;0.0;0.0;0.25;-0.199707;0.025391;0.98877;-0.63;0.63;0.56;243.0;-0.279012;-0.020632;4.75;4.0;3.0;3.75;0.25;1.0;0.0;0.75;0.25;0.25;0.25;0.25;0.75;0.75;0.25;0.25;-0.228516;0.035156;0.98291;-0.35;-1.26;0.63;234.0;-0.234829;-0.07876
2.47;7.5;4.25;3.5;3.5;0.0;0.5;0.0;0.25;1.0;0.25;0.25;0.25;0.25;0.25;0.0;0.25;-0.202148;0.023438;0.994629;-0.77;0.63;0.56;251.0;-0.274129;-0.019779;4.75;4.0;3.0;3.75;0.25;1.0;0.0;0.5;0.25;0.5;0.25;0.25;1.0;0.75;0.25;0.25;-0.23291;0.039062;0.977051;-0.56;-1.19;0.77;235.0;-0.228962;-0.075318
2.48;7.25;4.5;3.5;3.25;0.0;0.5;0.0;0.25;1.0;0.0;0.25;0.25;0.25;0.25;0.0;0.25;-0.20459;0.030273;0.989746;-0.7;0.84;0.49;245.0;-0.2799;-0.021229;4.5;4.0;3.0;3.75;0.25;1.25;0.0;0.75;0.25;0.25;0.25;0.25;0.5;0.5;0.25;0.25;-0.228027;0.032227;0.981445;-0.56;-1.12;0.7;229.0;-0.242394;-0.082261
2.49;7.25;4.75;3.5;3.25;0.0;0.5;0.0;0.25;0.75;0.0;0.5;0.25;0.25;0.25;0.0;0.25;-0.202148;0.026367;0.990723;-0.63;0.7;0.56;247.0;-0.283202;-0.028079;4.75;4.0;3.25;3.75;0.25;1.0;0.0;0.75;0.25;0.0;0.25;0.25;0.75;0.25;0.25;0.25;-0.22998;0.038574;0.979004;-0.49;-0.98;0.84;229.0;-0.254253;-0.083488
2.5;7.25;4.5;3.5;3.25;0.0;0.5;0.0;0.25;0.75;0.25;0.25;0.25;0.25;0.25;0.0;0.25;-0.200684;0.027832;0.996582;-0.63;0.63;0.63;245.0;-0.281695;-0.024562;4.75;4.25;3.25;3.75;0.25;1.0;0.0;0.5;0.0;0.25;0.25;0.25;1.0;0.25;0.25;0.25;-0.231934;0.040527;0.980957;-0.63;-1.05;0.63;229.0;-0.257917;-0.08644
2.51;7.25;4.0;3.5;3.25;0.0;0.75;0.0;0.25;1.0;0.25;0.0;0.25;0.25;0.25;0.0;0.25;-0.203613;0.027344;0.993652;-0.63;0.7;0.49;243.0;-0.275372;-0.019197;5.0;4.25;3.25;3.75;0.25;1.0;0.0;0.5;0.0;0.25;0.25;0.25;0.75;0.5;0.0;0.25;-0.230957;0.040039;0.977051;-0.7;-0.98;0.63;229.0;-0.265641;-0.077545
2.52;7.25;4.5;3.5;3.5;0.0;0.5;0.0;0.25;1.0;0.25;0.25;0.25;0.5;0.5;0.0;0.25;-0.208496;0.020508;0.995117;-0.7;0.7;0.42;256.0;-0.263793;-0.024918;5.25;4.25;3.25;3.75;0.5;1.25;0.0;0.5;0.0;0.25;0.25;0.25;1.0;0.5;0.25;0.25;-0.23291;0.032715;0.978516;-0.77;-0.91;0.7;243.0;-0.251968;-0.079828
2.53;7.25;4.5;3.5;3.5;0.25;0.5;0.0;0.25;1.0;0.0;0.25;0.25;0.25;0.25;0.0;0.25;-0.200684;0.030273;0.988281;-0.7;0.63;0.56;251.0;-0.278146;-0.022673;5.0;4.25;3.0;3.75;0.25;1.25;0.0;0.75;0.0;0.25;0.25;0.25;1.0;0.5;0.25;0.25;-0.230957;0.033691;0.972656;-0.77;-0.91;0.7;238.0;-0.247406;-0.091461
2.54;7.5;4.25;3.5;3.5;0.25;0.5;0.0;0.25;0.75;0.25;0.25;0.25;0.25;0.25;0.0;0.25;-0.19873;0.022949;0.994141;-0.63;0.7;0.56;251.0;-0.279912;-0.023001;4.75;4.25;3.25;3.75;0.25;1.25;0.0;0.75;0.25;0.25;0.25;0.25;0.75;0.5;0.25;0.25;-0.227539;0.040039;0.979492;-0.77;-0.91;0.7;240.0;-0.242374;-0.082432
2.55;7.5;4.25;3.75;3.5;0.0;0.5;0.0;0.25;0.75;0.25;0.25;0.25;0.25;0.0;0.0;0.25;-0.19873;0.01709;0.990234;-0.63;0.63;0.56;249.0;-0.288064;-0.024516;5.0;4.25;3.25;3.5;0.25;1.25;0.0;0.5;0.0;0.25;0.25;0.25;0.75;0.5;0.25;0.5;-0.228516;0.037598;0.977539;-0.7;-0.98;0.77;233.0;-0.251667;-0.079697
2.56;7.25;4.5;3.75;3.5;0.0;0.5;0.0;0.25;1.0;0.25;0.25;0.5;0.25;0.0;0.0;0.5;-0.20166;0.022949;0.996582;-0.63;0.7;0.63;256.0;-0.271118;-0.027932;5.0;4.25;3.0;3.75;0.25;1.25;0.0;0.5;0.25;0.25;0.25;0.25;0.75;0.25;0.25;0.5;-0.22998;0.040527;0.977539;-0.63;-0.98;0.63;235.0;-0.250774;-0.080899
2.57;7.5;4.5;3.5;3.5;0.0;0.5;0.0;0.25;0.75;0.25;0.25;0.5;0.0;0.25;0.0;0.25;-0.200195;0.024414;0.991211;-0.7;0.7;0.56;251.0;-0.281732;-0.024464;5.0;4.0;3.0;4.0;0.5;1.25;0.0;0.5;0.25;0.25;0.25;0.25;0.75;0.25;0.0;0.25;-0.231934;0.03418;0.975586;-0.49;-0.98;0.63;234.0;-0.259797;-0.078511
2.58;7.25;4.5;3.75;3.5;0.25;0.5;0.0;0.25;0.75;0.25;0.25;0.5;0.25;0.25;0.25;0.25;-0.204102;0.025879;0.993652;-0.56;0.63;0.63;259.0;-0.266694;-0.028194;4.75;4.25;3.0;3.5;0.5;1.25;0.0;0.5;0.25;0.0;0.25;0.25;1.0;0.5;0.0;0.0;-0.231445;0.04248;0.977051;-0.35;-1.05;0.63;228.0;-0.258006;-0.079553
2.59;7.25;4.25;3.75;3.5;0.0;0.75;0.0;0.25;0.75;0.25;0.25;0.25;0.25;0.25;0.25;0.25;-0.197266;0.026855;0.998047;-0.63;0.63;0.63;254.0;-0.270935;-0.027713;4.75;4.25;3.0;3.5;0.5;1.25;0.0;0.75;0.0;0.25;0.25;0.25;1.0;0.5;0.25;0.0;-0.234375;0.033691;0.975586;-0.56;-0.98;0.77;234.0;-0.247289;-0.088808
2.6;7.25;3.5;3.75;3.5;0.0;0.75;0.0;0.25;0.75;0.0;0.25;0.25;0.0;0.0;0.0;0.25;-0.197754;0.025879;0.983398;-0.7;0.77;0.49;236.0;-0.291777;-0.021413;4.75;4.25;3.0;3.5;0.25;1.25;0.0;0.5;0.0;0.25;0.25;0.25;0.75;0.5;0.25;0.25;-0.233887;0.034668;0.978027;-0.63;-0.91;0.7;226.0;-0.253595;-0.082806
2.61;7.25;4.25;3.75;3.25;0.0;0.5;0.0;0.25;0.75;0.25;0.25;0.25;0.25;0.25;0.0;0.25;-0.20459;0.022461;0.991211;-0.63;0.56;0.63;245.0;-0.280106;-0.02169;5.25;4.0;3.0;3.5;0.25;1.25;0.0;0.75;0.25;0.25;0.25;0.25;0.75;0.5;0.25;0.25;-0.232422;0.036133;0.979004;-0.77;-0.91;0.63;237.0;-0.243495;-0.077379
2.62;7.5;4.5;3.5;3.25;0.0;0.5;0.0;0.25;1.0;0.25;0.25;0.25;0.25;0.25;0.0;0.25;-0.197754;0.021484;0.991699;-0.63;0.63;0.56;251.0;-0.2754;-0.018799;4.75;4.0;3.25;4.0;0.25;1.25;0.0;0.75;0.25;0.25;0.25;0.25;0.75;0.5;0.0;0.25;-0.230469;0.039062;0.973633;-0.77;-0.91;0.63;237.0;-0.248943;-0.083345
2.63;7.5;4.5;3.5;3.375;0.0;0.5;0.0;0.25;0.875;0.125;0.25;0.25;0.25;0.25;0.0;0.25;-0.19702150000000002;0.024413999999999998;0.989746;-0.665;0.56;0.56;249.5;-0.282275;-0.0226385;4.75;4.0;3.25;3.75;0.25;1.25;0.0;0.75;0.0;0.25;0.0;0.25;0.75;0.75;0.25;0.0;-0.225586;0.034668;0.979004;-0.91;-1.05;0.63;232.0;-0.251253;-0.082533
2.64;7.5;4.5;3.5;3.5;0.0;0.5;0.0;0.25;0.75;0.0;0.25;0.25;0.25;0.25;0.0;0.25;-0.196289;0.027344;0.987793;-0.7;0.49;0.56;248.0;-0.28915;-0.026478;4.75;4.0;3.25;3.75;0.25;1.25;0.0;0.5;0.25;0.25;0.25;0.25;0.75;0.75;0.25;0.25;-0.23291;0.041992;0.977539;-0.84;-0.91;0.63;235.0;-0.238118;-0.073499
2.65;7.5;4.75;3.75;3.5;0.0;0.5;0.0;0.25;0.75;0.0;0.25;0.25;0.0;0.25;0.0;0.25;-0.204102;0.023438;0.991699;-0.7;0.7;0.49;251.0;-0.294447;-0.022389;4.75;4.0;3.0;3.75;0.5;1.0;0.0;0.5;0.0;0.25;0.25;0.25;0.75;0.5;0.25;0.25;-0.23291;0.035645;0.978027;-0.98;-0.98;0.77;226.0;-0.251862;-0.079353
2.66;7.5;4.75;3.75;3.25;0.0;0.5;0.0;0.25;0.75;0.25;0.25;0.25;0.0;0.25;0.0;0.25;-0.202148;0.026367;0.993164;-0.7;0.49;0.63;251.0;-0.288465;-0.018988;4.75;4.25;3.0;3.75;0.25;1.0;0.0;0.75;0.0;0.25;0.25;0.25;0.75;0.5;0.25;0.0;-0.224609;0.039551;0.98584;-0.91;-0.98;0.63;229.0;-0.254945;-0.086328
2.67;7.5;4.5;3.75;3.0;0.0;0.75;0.0;0.25;0.75;0.25;0.25;0.5;0.25;0.0;0.0;0.25;-0.203125;0.025391;0.994141;-0.63;0.63;0.49;251.0;-0.282049;-0.027209;5.0;4.25;3.0;3.75;0.25;1.0;0.0;0.75;0.0;0.25;0.25;0.25;0.75;0.5;0.5;0.25;-0.22998;0.041016;0.977539;-0.91;-0.98;0.63;236.0;-0.244807;-0.085363
2.68;7.5;4.5;3.75;3.25;0.0;0.75;0.0;0.25;0.75;0.25;0.25;0.5;0.25;0.25;0.0;0.25;-0.202148;0.025391;0.988281;-0.63;0.56;0.56;256.0;-0.275824;-0.027665;4.75;4.25;3.0;3.5;0.25;1.0;0.0;0.5;0.25;0.25;0.25;0.25;0.75;0.75;0.25;0.25;-0.226562;0.041016;0.982422;-0.84;-0.91;0.63;229.0;-0.240188;-0.072114
2.69;7.25;4.5;3.75;3.25;0.0;0.75;0.0;0.25;0.75;0.0;0.25;0.5;0.0;0.25;0.25;0.25;-0.204102;0.022949;0.991211;-0.56;0.42;0.56;251.0;-0.276603;-0.026793;5.25;4.0;3.25;3.75;0.25;1.0;0.0;0.5;0.25;0.25;0.25;0.25;0.75;0.75;0.25;0.25;-0.234863;0.038086;0.981445;-0.77;-0.98;0.63;238.0;-0.243118;-0.066673
2.7;7.5;4.25;3.5;3.5;0.0;0.75;0.0;0.25;1.0;0.0;0.25;0.5;0.0;0.25;0.0;0.25;-0.199219;0.022949;0.992676;-0.63;0.56;0.49;252.0;-0.277108;-0.022737;5.25;4.25;3.0;3.75;0.5;1.0;0.0;0.5;0.25;0.0;0.25;0.25;0.75;0.5;0.25;0.25;-0.232422;0.038574;0.979492;-0.63;-0.98;0.7;235.0;-0.25549;-0.072114
2.71;7.5;4.25;3.5;3.5;0.0;0.75;0.0;0.25;1.0;0.0;0.25;0.5;0.25;0.25;0.0;0.0;-0.200684;0.024902;0.999023;-0.56;0.56;0.63;253.0;-0.276687;-0.025118;4.75;4.25;3.0;3.5;0.25;1.0;0.0;0.5;0.0;0.25;0.0;0.25;0.75;0.5;0.0;0.25;-0.232422;0.037598;0.975586;-0.63;-0.91;0.7;217.0;-0.270019;-0.079776
2.72;7.5;4.25;3.5;3.5;0.0;0.5;0.0;0.25;0.75;0.25;0.25;0.25;0.25;0.25;0.0;0.25;-0.207031;0.024902;0.990723;-0.49;0.63;0.63;248.0;-0.281783;-0.024022;4.75;4.25;3.25;3.5;0.25;1.0;0.0;0.5;0.0;0.0;0.25;0.25;0.75;0.25;0.25;0.25;-0.231934;0.041504;0.980957;-0.7;-0.98;0.63;221.0;-0.268482;-0.082495
2.73;7.25;4.5;3.75;3.25;0.0;0.75;0.0;0.25;0.75;0.25;0.25;0.25;0.25;0.25;0.25;0.25;-0.203125;0.022461;0.994629;-0.42;0.56;0.56;254.0;-0.272187;-0.026757;4.75;4.0;2.75;3.75;0.5;1.0;0.0;0.75;0.0;0.25;0.25;0.25;0.75;0.25;0.0;0.25;-0.227051;0.036133;0.977539;-0.7;-0.98;0.63;222.0;-0.262626;-0.090162
2.74;7.25;4.5;3.75;3.5;0.0;0.5;0.0;0.25;0.75;0.25;0.25;0.5;0.25;0.25;0.25;0.0;-0.197754;0.021973;0.987793;-0.35;0.56;0.63;255.0;-0.272003;-0.02759;4.75;4.0;3.0;3.5;0.5;1.25;0.0;0.5;0.0;0.0;0.25;0.25;1.0;0.25;0.0;0.25;-0.22998;0.037598;0.982422;-0.7;-0.98;0.7;221.0;-0.267428;-0.088571
2.75;7.25;4.5;3.5;3.5;0.0;0.75;0.0;0.25;0.75;0.25;0.25;0.25;0.25;0.25;0.25;0.25;-0.200684;0.025879;0.990234;-0.14;0.56;0.63;253.0;-0.27245;-0.030497;4.75;3.75;3.0;3.5;0.25;1.0;0.0;0.5;0.25;0.0;0.25;0.25;1.0;0.25;0.25;0.25;-0.229004;0.036133;0.977539;-0.77;-0.98;0.63;219.0;-0.251813;-0.081209
2.76;7.5;4.5;3.5;3.5;0.0;0.5;0.0;0.25;0.75;0.0;0.25;0.25;0.25;0.25;0.0;0.25;-0.201172;0.021484;0.990723;-0.0;0.56;0.7;248.0;-0.28915;-0.026478;4.75;4.0;3.0;3.75;0.25;1.0;0.0;0.75;0.25;0.0;0.25;0.0;0.75;0.25;0.25;0.25;-0.226074;0.037598;0.974609;-0.77;-0.98;0.63;223.0;-0.260084;-0.083112
2.77;7.5;4.5;3.75;3.5;0.0;0.5;0.0;0.25;0.75;0.0;0.25;0.25;0.25;0.25;0.0;0.25;-0.200195;0.024902;0.995605;-0.07;0.49;0.7;251.0;-0.288862;-0.02507;4.75;4.0;3.25;4.0;0.25;1.0;0.0;0.75;0.25;0.25;0.25;0.0;0.75;0.5;0.25;0.25;-0.232422;0.038086;0.982422;-0.91;-0.84;0.56;234.0;-0.247773;-0.078316
2.78;7.5;4.5;3.75;3.5;0.0;0.75;0.0;0.25;0.5;0.25;0.25;0.25;0.25;0.25;0.25;0.25;-0.19873;0.023926;0.987305;-0.0;0.56;0.77;256.0;-0.28121;-0.03179;5.0;4.0;3.0;3.75;0.25;1.5;0.0;0.5;0.25;0.25;0.25;0.25;0.75;0.5;0.5;0.25;-0.230957;0.033691;0.980469;-0.91;-0.91;0.63;239.0;-0.23723;-0.078449
2.79;7.25;4.5;3.75;3.5;0.25;0.75;0.0;0.25;0.5;0.0;0.25;0.25;0.25;0.5;0.25;0.25;-0.199707;0.026855;0.991211;-0.0;0.49;0.77;255.0;-0.277525;-0.031414;4.75;4.0;3.0;3.5;0.25;1.5;0.0;0.5;0.25;0.25;0.25;0.25;0.75;0.5;0.25;0.25;-0.230469;0.037598;0.978027;-0.91;-0.91;0.63;230.0;-0.242567;-0.078798
2.8;7.0;4.5;3.75;3.75;0.25;0.75;0.0;0.25;0.75;0.0;0.25;0.25;0.25;0.5;0.0;0.25;-0.199707;0.027832;0.990234;-0.0;0.49;0.7;256.0;-0.276465;-0.030392;4.75;4.25;3.0;3.5;0.25;1.25;0.0;0.5;0.25;0.0;0.25;0.25;0.75;0.5;0.25;0.25;-0.234863;0.030273;0.978516;-0.84;-0.84;0.63;227.0;-0.251743;-0.079011
2.81;7.25;4.5;3.75;3.75;0.0;0.75;0.0;0.25;0.75;0.0;0.5;0.25;0.25;0.5;0.0;0.25;-0.206543;0.020508;0.989258;0.07;0.63;0.63;259.0;-0.274054;-0.030878;4.75;4.0;3.0;3.5;0.25;1.0;0.0;0.75;0.25;0.0;0.25;0.25;0.75;0.25;0.25;0.25;-0.228516;0.037109;0.974121;-0.84;-0.77;0.63;223.0;-0.253652;-0.08395
2.82;7.25;4.5;3.75;3.75;0.0;1.0;0.0;0.25;0.5;0.0;0.5;0.25;0.25;0.5;0.0;0.25;-0.202637;0.02832;0.987793;-0.07;0.49;0.7;258.0;-0.279994;-0.037889;4.75;4.0;3.0;3.5;0.25;1.25;0.0;0.5;0.25;0.25;0.25;0.25;0.75;0.5;0.0;0.5;-0.229004;0.043457;0.980957;-0.63;-0.84;0.7;226.0;-0.248058;-0.077736
2.83;7.25;4.5;3.5;3.75;0.0;1.0;0.0;0.25;0.75;0.25;0.5;0.5;0.0;0.25;0.25;0.25;-0.200195;0.023926;0.997559;-0.14;0.56;0.63;263.0;-0.264516;-0.035434;4.75;4.25;3.0;3.75;0.25;1.0;0.0;0.5;0.0;0.25;0.5;0.25;0.75;0.25;0.0;0.25;-0.23291;0.036133;0.979004;-0.77;-0.91;0.7;224.0;-0.264655;-0.085317
2.84;7.0;4.5;3.5;3.5;0.0;1.0;0.0;0.5;0.5;0.25;0.25;0.5;0.0;0.25;0.0;0.25;-0.200684;0.024902;0.991699;-0.14;0.56;0.7;252.0;-0.279128;-0.043643;4.75;3.75;3.0;3.5;0.25;1.0;0.0;0.5;0.0;0.25;0.5;0.25;0.75;0.25;0.25;0.25;-0.231934;0.037109;0.979004;-0.63;-0.84;0.63;218.0;-0.252014;-0.081496
2.85;7.25;4.5;3.5;3.5;0.0;1.0;0.0;0.5;0.75;0.25;0.25;0.25;0.25;0.5;0.25;0.25;-0.202148;0.024902;0.996582;-0.07;0.56;0.63;263.0;-0.260922;-0.037123;4.75;3.75;3.0;3.25;0.25;1.25;0.0;0.75;0.25;0.25;0.25;0.25;0.75;0.5;0.25;0.25;-0.22998;0.035156;0.982422;-0.77;-0.77;0.56;226.0;-0.236968;-0.079097
2.86;7.0;4.5;3.5;3.5;0.0;0.75;0.0;0.25;0.75;0.25;0.25;0.25;0.0;0.25;0.25;0.25;-0.195801;0.023438;0.993164;-0.0;0.42;0.7;248.0;-0.275148;-0.027997;4.5;3.75;3.0;3.5;0.25;1.0;0.0;0.75;0.25;0.0;0.25;0.25;0.75;0.5;0.25;0.25;-0.231934;0.035156;0.984375;-0.84;-0.7;0.63;220.0;-0.242831;-0.082728
2.87;7.0;4.5;3.75;3.75;0.0;0.75;0.0;0.25;0.75;0.25;0.5;0.5;0.25;0.25;0.25;0.25;-0.204102;0.022949;0.996094;0.21;0.56;0.7;262.0;-0.26041;-0.036672;4.5;3.75;3.0;3.75;0.25;1.0;0.0;0.75;0.25;0.0;0.25;0.25;1.0;0.5;0.25;0.25;-0.23291;0.039062;0.980957;-0.91;-0.91;0.7;225.0;-0.23912;-0.088578
2.88;7.25;4.25;3.75;3.75;0.0;1.0;0.0;0.25;0.5;0.25;0.5;0.25;0.25;0.25;0.25;0.25;-0.199707;0.021973;0.993652;0.28;0.42;0.77;259.0;-0.271559;-0.037946;4.5;4.0;3.0;3.5;0.25;1.0;0.0;0.5;0.25;0.25;0.25;0.0;0.75;0.25;0.25;0.25;-0.234375;0.039551;0.974609;-0.91;-0.77;0.56;216.0;-0.256016;-0.075774
2.89;6.75;4.5;3.5;3.5;0.25;1.25;0.0;0.5;0.5;0.25;0.25;0.25;0.5;0.5;0.25;0.25;-0.205078;0.025879;0.994629;0.35;0.49;0.77;262.0;-0.258254;-0.049891;4.5;3.75;3.0;3.5;0.25;1.0;0.0;0.5;0.25;0.25;0.25;0.0;0.75;0.25;0.25;0.25;-0.230957;0.034668;0.982422;-0.91;-0.84;0.63;213.0;-0.254119;-0.074707
2.9;6.5;4.5;3.5;3.75;0.25;1.25;0.0;0.5;0.75;0.5;0.25;0.5;0.25;0.5;0.0;0.25;-0.202148;0.024902;0.989746;0.28;0.56;0.7;266.0;-0.250698;-0.04665;4.5;3.75;3.0;3.5;0.25;1.0;0.0;0.5;0.25;0.25;0.25;0.25;1.0;0.25;0.25;0.25;-0.226074;0.035645;0.976562;-0.98;-0.91;0.63;219.0;-0.243457;-0.081782
2.91;7.0;4.25;3.25;3.5;0.0;1.25;0.0;0.5;0.75;0.25;0.25;0.5;0.25;0.5;0.0;0.25;-0.201172;0.027832;0.98877;0.28;0.56;0.7;258.0;-0.258705;-0.044077;4.75;3.75;3.0;3.5;0.25;1.0;0.0;0.5;0.25;0.25;0.25;0.25;0.75;0.5;0.25;0.5;-0.228027;0.035645;0.981934;-1.05;-0.91;0.63;223.0;-0.239004;-0.074191
2.92;6.25;4.0;3.5;3.5;0.0;1.0;0.0;0.5;0.5;0.25;0.5;0.25;0.5;0.25;0.0;0.25;-0.203613;0.03125;0.993652;0.14;0.49;0.7;243.0;-0.263093;-0.05239;4.75;4.0;3.0;3.5;0.25;1.0;0.0;0.5;0.0;0.25;0.25;0.25;0.75;0.5;0.25;0.25;-0.230957;0.03418;0.976562;-0.91;-0.77;0.56;220.0;-0.253099;-0.079289
2.93;6.25;4.25;3.5;3.5;0.25;1.25;0.0;0.5;0.5;0.25;0.5;0.25;0.5;0.25;0.0;0.25;-0.204102;0.033203;0.989258;0.07;0.63;0.77;252.0;-0.261677;-0.054781;4.75;4.0;3.25;3.5;0.25;1.0;0.0;0.5;0.25;0.25;0.25;0.25;0.75;0.5;0.25;0.25;-0.228516;0.038574;0.975098;-0.98;-0.91;0.56;227.0;-0.245241;-0.071455
2.94;6.75;4.25;3.25;3.75;0.25;1.25;0.0;0.5;0.75;0.25;0.5;0.25;0.5;0.25;0.0;0.25;-0.202637;0.029785;0.992188;-0.0;0.49;0.77;261.0;-0.257898;-0.050356;4.5;3.75;3.0;3.5;0.25;1.25;0.0;0.5;0.25;0.25;0.5;0.25;0.75;0.75;0.25;0.25;-0.22998;0.041016;0.980957;-0.91;-0.84;0.63;227.0;-0.227202;-0.075466
2.95;7.0;4.0;3.25;3.75;0.0;1.25;0.0;0.5;0.75;0.25;0.5;0.5;0.75;0.25;0.0;0.25;-0.20166;0.026367;0.986816;0.07;0.56;0.63;263.0;-0.250517;-0.055174;4.5;3.75;3.0;3.5;0.25;1.25;0.0;0.5;0.25;0.5;0.5;0.25;0.75;0.5;0.25;0.25;-0.231934;0.040527;0.980957;-1.05;-0.77;0.63;227.0;-0.227889;-0.076308
2.96;6.25;4.25;3.25;3.5;0.0;1.25;0.0;0.5;0.75;0.0;0.25;0.25;0.5;0.25;0.25;0.25;-0.19873;0.02832;0.990234;-0.14;0.56;0.63;246.0;-0.259435;-0.054179;4.5;3.75;3.0;3.5;0.25;1.0;0.0;0.5;0.25;0.25;0.25;0.25;0.75;0.5;0.25;0.25;-0.231934;0.030762;0.978516;-0.98;-0.77;0.63;219.0;-0.240939;-0.074938
2.97;6.25;4.25;3.25;3.5;0.0;1.25;0.0;0.5;0.75;0.0;0.5;0.25;0.5;0.25;0.25;0.5;-0.202637;0.02832;0.99707;-0.28;0.7;0.7;251.0;-0.250229;-0.056417;4.5;3.75;3.0;3.5;0.25;1.0;0.0;0.5;0.25;0.25;0.0;0.25;0.75;0.5;0.25;0.25;-0.227051;0.044434;0.974121;-0.98;-0.63;0.63;216.0;-0.247125;-0.074396
2.98;6.25;4.25;3.5;3.75;0.25;1.25;0.0;0.5;0.5;0.25;0.5;0.25;0.5;0.25;0.25;0.5;-0.203125;0.031738;0.990234;-0.42;0.7;0.7;259.0;-0.251005;-0.058535;4.25;4.0;3.0;3.5;0.25;1.25;0.0;0.5;0.25;0.25;0.25;0.25;0.75;0.5;0.25;0.25;-0.226562;0.038086;0.977051;-0.98;-0.77;0.63;221.0;-0.239672;-0.080986
2.99;6.5;3.75;3.25;3.75;0.25;1.25;0.0;0.5;0.5;0.25;0.5;0.25;0.5;0.5;0.0;0.5;-0.197754;0.022461;0.98877;-0.42;0.56;0.7;253.0;-0.250607;-0.053867;4.25;3.75;3.0;3.5;0.5;1.0;0.0;0.75;0.25;0.25;0.25;0.25;0.75;0.5;0.25;0.25;-0.22998;0.034668;0.976562;-0.91;-0.7;0.63;223.0;-0.233056;-0.081351
3.0;6.0;3.75;3.25;3.5;0.0;1.25;0.0;0.5;0.25;0.25;0.5;0.25;0.5;0.25;0.0;0.5;-0.199707;0.027344;0.996582;-0.56;0.7;0.63;235.0;-0.2623;-0.064334;4.5;3.75;3.0;3.5;0.25;1.0;0.0;0.5;0.25;0.25;0.25;0.25;0.75;0.5;0.0;0.25;-0.22998;0.038574;0.977051;-0.98;-0.7;0.7;216.0;-0.249552;-0.074842
3.01;6.0;4.0;3.25;3.5;0.0;1.25;0.0;0.5;0.25;0.5;0.5;0.25;0.5;0.25;0.0;0.25;-0.204102;0.026367;0.984375;-0.49;0.42;0.56;239.0;-0.261811;-0.062342;4.75;3.5;2.75;3.5;0.25;1.0;0.0;0.5;0.25;0.25;0.25;0.25;0.75;0.5;0.25;0.25;-0.231934;0.038574;0.976074;-1.05;-0.7;0.56;216.0;-0.240669;-0.073786
3.02;6.25;4.0;3.25;3.5;0.0;1.25;0.0;0.5;0.25;0.25;0.5;0.25;0.5;0.5;0.0;0.25;-0.196777;0.022949;0.994629;-0.7;0.56;0.56;242.0;-0.262896;-0.059517;4.5;3.75;3.0;3.5;0.25;1.0;0.0;0.5;0.25;0.5;0.25;0.0;0.75;0.5;0.0;0.5;-0.229492;0.04248;0.974121;-0.98;-0.84;0.77;217.0;-0.245066;-0.071727
3.03;6.25;4.25;3.25;3.5;0.0;1.25;0.0;0.5;0.25;0.0;0.5;0.25;0.5;0.25;0.0;0.25;-0.20166;0.028809;0.990723;-0.84;0.63;0.35;239.0;-0.277062;-0.064412;4.25;3.75;3.0;3.5;0.25;1.0;0.0;0.5;0.25;0.25;0.25;0.0;1.0;0.5;0.0;0.5;-0.233398;0.038086;0.983887;-1.05;-0.91;0.7;214.0;-0.244862;-0.080207
3.04;6.0;4.5;3.25;3.75;0.0;1.25;0.0;0.5;0.5;0.25;0.5;0.5;0.5;0.25;0.0;0.25;-0.206055;0.029297;0.993164;-0.77;0.77;0.49;251.0;-0.258125;-0.065678;4.25;3.75;3.0;3.5;0.25;1.0;0.0;0.75;0.25;0.25;0.25;0.25;0.75;0.75;0.25;0.25;-0.234863;0.036621;0.974609;-0.91;-0.84;0.63;222.0;-0.22777;-0.080573
3.05;6.25;4.0;3.25;3.5;0.0;1.25;0.0;0.5;0.5;0.25;0.25;0.5;0.5;0.25;0.0;0.5;-0.200684;0.025879;0.989258;-0.77;0.7;0.42;244.0;-0.258089;-0.060548;4.5;4.0;3.0;3.5;0.25;1.0;0.0;0.5;0.25;0.25;0.25;0.25;0.75;0.5;0.25;0.5;-0.231934;0.035645;0.979004;-0.91;-0.91;0.63;223.0;-0.238927;-0.077557
3.06;6.25;4.0;3.25;3.5;0.0;1.25;0.0;0.5;0.5;0.25;0.25;0.25;0.5;0.5;0.25;0.25;-0.203613;0.025391;0.992188;-0.77;0.56;0.49;245.0;-0.253188;-0.054256;4.0;3.75;3.0;3.5;0.25;1.0;0.0;0.5;0.25;0.25;0.25;0.25;0.75;0.5;0.0;0.5;-0.228027;0.036621;0.977051;-0.84;-1.12;0.77;212.0;-0.241172;-0.081422
3.07;6.75;4.5;3.5;3.5;0.25;1.25;0.0;0.5;0.75;0.25;0.5;0.25;0.5;0.25;0.0;0.25;-0.202148;0.025879;0.985352;-0.84;0.63;0.49;263.0;-0.259167;-0.047859;4.25;3.75;3.0;3.5;0.25;1.0;0.0;0.5;0.25;0.25;0.25;0.25;0.75;0.5;0.25;0.5;-0.231445;0.041504;0.97998;-0.77;-1.12;0.63;217.0;-0.234726;-0.078956
3.08;6.5;4.5;3.5;3.5;0.25;1.25;0.0;0.5;0.75;0.0;0.5;0.25;0.5;0.0;0.0;0.25;-0.202637;0.02832;0.988281;-0.84;0.63;0.56;255.0;-0.26924;-0.052891;4.25;3.75;2.75;3.5;0.25;1.0;0.0;0.5;0.25;0.25;0.25;0.0;0.5;0.5;0.25;0.5;-0.235352;0.03418;0.978516;-0.63;-0.91;0.7;209.0;-0.244946;-0.074115
3.09;7.0;4.5;3.25;3.75;0.25;1.0;0.0;0.5;0.5;0.0;0.5;0.25;0.5;0.25;0.0;0.25;-0.202148;0.029297;0.98877;-0.77;0.49;0.56;257.0;-0.274971;-0.052948;4.25;3.5;2.75;3.25;0.25;1.0;0.0;0.5;0.25;0.25;0.25;0.25;0.75;0.5;0.25;0.25;-0.234863;0.041992;0.976562;-0.56;-1.05;0.7;207.0;-0.235551;-0.076585
3.1;6.75;4.5;3.5;3.75;0.0;1.0;0.0;0.5;0.5;0.25;0.5;0.25;0.5;0.25;0.0;0.25;-0.199219;0.026855;0.993652;-0.77;0.63;0.42;257.0;-0.269486;-0.053084;4.5;3.75;3.0;3.25;0.25;1.0;0.0;0.5;0.25;0.25;0.0;0.25;0.75;0.5;0.25;0.25;-0.230469;0.038086;0.977051;-0.63;-1.05;0.7;213.0;-0.246555;-0.072276
3.11;6.75;4.5;3.5;3.75;0.0;1.25;0.0;0.5;0.5;0.25;0.5;0.5;0.5;0.25;0.0;0.25;-0.203613;0.030273;0.993652;-0.77;0.63;0.49;263.0;-0.262904;-0.058237;4.75;4.0;3.0;3.5;0.25;1.0;0.0;0.5;0.25;0.25;0.0;0.5;0.75;0.75;0.5;0.25;-0.231445;0.033691;0.980469;-0.63;-1.05;0.63;229.0;-0.230317;-0.073468
3.12;7.0;4.5;3.5;3.75;0.0;1.0;0.0;0.5;0.75;0.0;0.5;0.25;0.5;0.25;0.0;0.0;-0.203125;0.03125;0.992676;-0.91;0.63;0.49;259.0;-0.272888;-0.046582;4.75;3.5;3.0;3.0;0.25;1.0;0.0;0.5;0.0;0.25;0.0;0.25;0.75;0.5;0.25;0.25;-0.230469;0.039551;0.983398;-0.91;-0.91;0.7;207.0;-0.254739;-0.072436
3.13;6.75;4.5;3.25;3.75;0.0;1.0;0.0;0.25;0.75;0.25;0.25;0.25;0.25;0.25;0.0;0.25;-0.199219;0.020508;0.995605;-0.84;0.49;0.49;248.0;-0.276152;-0.039816;4.75;3.75;3.0;3.5;0.25;1.0;0.0;0.75;0.0;0.25;0.25;0.25;0.75;0.5;0.25;0.25;-0.234863;0.035645;0.976562;-0.84;-0.91;0.63;222.0;-0.24673;-0.084161
3.14;6.5;4.0;3.25;3.5;0.0;1.25;0.0;0.5;0.75;0.25;0.5;0.5;0.25;0.25;0.25;0.25;-0.20166;0.023438;0.996094;-0.84;0.63;0.56;253.0;-0.247017;-0.049566;4.5;4.0;3.0;3.75;0.25;1.25;0.0;0.5;0.25;0.0;0.25;0.25;0.75;0.5;0.0;0.25;-0.233398;0.040527;0.974609;-0.91;-0.91;0.7;221.0;-0.256948;-0.082352
3.15;6.0;4.0;3.25;3.5;0.25;1.25;0.0;0.5;0.75;0.25;0.25;0.5;0.5;0.25;0.0;0.25;-0.20166;0.024414;0.996582;-0.98;0.7;0.56;247.0;-0.251065;-0.054635;4.5;3.75;3.0;3.75;0.25;1.0;0.0;0.5;0.25;0.25;0.25;0.25;0.75;0.5;0.0;0.25;-0.22998;0.036621;0.975098;-0.91;-0.98;0.77;219.0;-0.250073;-0.076898
3.16;6.25;4.25;3.25;3.75;0.0;1.25;0.0;0.5;0.75;0.5;0.25;0.25;0.5;0.0;0.0;0.25;-0.202148;0.023438;0.987793;-0.98;0.7;0.42;250.0;-0.262298;-0.055375;4.5;3.75;3.0;3.5;0.25;1.0;0.0;0.5;0.25;0.25;0.25;0.25;0.75;0.5;0.25;0.5;-0.231445;0.034668;0.975586;-0.77;-0.98;0.7;220.0;-0.236893;-0.076543
3.17;6.5;4.25;3.5;3.5;0.0;1.0;0.0;0.5;0.75;0.25;0.5;0.25;0.5;0.25;0.0;0.0;-0.199219;0.027832;0.992676;-0.91;0.63;0.49;250.0;-0.262493;-0.045503;4.5;3.75;2.75;3.5;0.25;1.0;0.0;0.5;0.25;0.25;0.25;0.25;0.75;0.5;0.25;0.25;-0.22998;0.03418;0.977539;-0.7;-0.98;0.7;216.0;-0.240592;-0.077261
3.18;6.75;4.0;3.5;3.75;0.0;0.75;0.0;0.5;0.75;0.0;0.5;0.5;0.5;0.25;0.0;0.25;-0.202637;0.033691;0.993164;-0.91;0.56;0.49;252.0;-0.260751;-0.047681;4.75;3.75;3.0;3.5;0.25;1.0;0.0;0.5;0.0;0.25;0.25;0.25;0.75;0.75;0.0;0.25;-0.234863;0.034668;0.976562;-0.56;-0.91;0.63;217.0;-0.252806;-0.0755
3.19;7.0;4.0;3.5;3.5;0.0;1.25;0.0;0.5;0.75;0.0;0.5;0.25;0.5;0.5;0.0;0.25;-0.197754;0.025879;0.995605;-0.91;0.42;0.49;258.0;-0.258687;-0.044294;4.5;3.75;3.0;3.5;0.25;1.25;0.0;0.5;0.25;0.25;0.25;0.25;0.75;0.75;0.0;0.5;-0.22998;0.038086;0.977051;-0.7;-0.98;0.7;223.0;-0.237287;-0.076443
3.2;6.75;4.25;3.5;3.5;0.25;1.25;0.0;0.5;0.75;0.25;0.5;0.5;0.25;0.25;0.0;0.25;-0.197266;0.023926;0.992676;-0.84;0.56;0.56;261.0;-0.256345;-0.045722;4.5;3.75;3.0;3.5;0.25;1.0;0.0;0.5;0.25;0.5;0.25;0.25;0.75;0.75;0.25;0.25;-0.233398;0.037598;0.978027;-0.49;-0.84;0.7;224.0;-0.22805;-0.070556
3.21;7.25;4.0;3.75;3.5;0.25;1.25;0.0;0.5;1.25;0.0;0.5;0.25;0.5;0.25;0.0;0.25;-0.199219;0.026367;0.987793;-0.98;0.7;0.56;271.0;-0.250958;-0.033524;4.5;3.75;3.0;3.5;0.25;1.0;0.0;0.5;0.0;0.5;0.25;0.25;0.75;0.5;0.25;0.25;-0.22998;0.041504;0.979004;-0.7;-0.77;0.7;218.0;-0.242822;-0.078859
3.22;6.75;4.0;3.5;3.5;0.25;1.0;0.0;0.25;1.25;0.0;0.25;0.25;0.5;0.25;0.0;0.25;-0.20459;0.024902;0.994141;-0.84;0.63;0.49;253.0;-0.257866;-0.028538;4.5;3.75;3.0;3.5;0.25;1.0;0.0;0.75;0.25;0.5;0.25;0.25;0.75;0.5;0.25;0.5;-0.229492;0.037598;0.976562;-0.7;-0.98;0.7;227.0;-0.226806;-0.080564
3.23;6.5;4.5;3.5;3.25;0.25;1.0;0.0;0.25;1.0;0.25;0.25;0.5;0.5;0.25;0.0;0.25;-0.203125;0.022461;0.990723;-0.84;0.63;0.42;254.0;-0.255413;-0.036747;4.5;4.0;3.0;3.5;0.25;1.0;0.0;0.5;0.25;0.5;0.25;0.25;0.75;0.5;0.25;0.5;-0.231934;0.037598;0.984863;-0.7;-0.98;0.77;226.0;-0.232886;-0.075775
3.24;6.75;3.75;3.5;3.25;0.25;0.75;0.0;0.5;0.75;0.25;0.25;0.25;0.5;0.25;0.25;0.25;-0.200195;0.022949;0.988281;-0.77;0.49;0.49;247.0;-0.254452;-0.036268;4.5;3.75;3.0;3.5;0.25;1.0;0.0;0.5;0.25;0.5;0.25;0.5;1.0;0.5;0.25;0.25;-0.236816;0.039551;0.98584;-0.77;-0.98;0.63;227.0;-0.224928;-0.080017
3.25;6.25;3.75;3.5;3.5;0.25;0.75;0.0;0.5;0.75;0.25;0.5;0.25;0.5;0.5;0.0;0.25;-0.199707;0.032715;0.990723;-0.84;0.49;0.49;246.0;-0.247278;-0.04027;4.5;3.75;3.0;3.5;0.25;1.0;0.0;0.5;0.25;0.25;0.0;0.25;0.75;0.75;0.0;0.25;-0.237793;0.044922;0.978516;-0.84;-0.91;0.7;215.0;-0.248729;-0.071574
3.26;6.5;4.25;3.25;3.75;0.0;1.0;0.0;0.25;0.75;0.5;0.25;0.25;0.5;0.5;0.0;0.25;-0.200684;0.026367;0.992676;-0.84;0.49;0.49;250.0;-0.256834;-0.040999;4.5;3.75;3.0;3.5;0.25;1.0;0.0;0.5;0.25;0.25;0.0;0.25;0.75;0.5;0.25;0.25;-0.23584;0.036621;0.980469;-0.91;-1.05;0.7;216.0;-0.247125;-0.074396
3.27;7.0;4.0;3.25;3.5;0.0;1.0;0.0;0.25;0.75;0.25;0.0;0.25;0.5;0.5;0.25;0.25;-0.199707;0.028809;0.992188;-0.84;0.63;0.49;247.0;-0.261781;-0.034882;4.75;3.75;3.0;3.5;0.25;1.25;0.0;0.5;0.0;0.25;0.25;0.25;0.75;0.5;0.0;0.25;-0.227539;0.038086;0.976562;-0.91;-0.91;0.63;218.0;-0.258517;-0.080888
3.28;6.75;4.0;3.5;3.5;0.0;1.0;0.0;0.25;0.75;0.25;0.25;0.25;0.5;0.25;0.0;0.25;-0.204102;0.023926;0.995605;-0.7;0.49;0.49;245.0;-0.268713;-0.037401;5.0;4.0;3.0;3.5;0.25;1.5;0.0;0.75;0.0;0.25;0.25;0.25;0.75;0.75;0.25;0.5;-0.228516;0.035156;0.979004;-0.91;-0.84;0.77;237.0;-0.237789;-0.086333
3.29;6.25;4.0;3.5;3.5;0.25;1.0;0.0;0.25;0.75;0.25;0.25;0.5;0.25;0.25;0.0;0.25;-0.199707;0.021973;0.992188;-0.77;0.63;0.56;243.0;-0.262388;-0.03854;4.75;4.0;3.0;3.75;0.25;1.0;0.0;0.5;0.25;0.25;0.25;0.25;0.75;0.75;0.25;0.25;-0.228516;0.041504;0.980957;-0.84;-0.91;0.84;229.0;-0.238868;-0.073077
3.3;7.0;4.0;3.5;3.5;0.0;1.25;0.0;0.5;1.0;0.25;0.25;0.25;0.5;0.25;0.25;0.5;-0.203125;0.026367;0.992188;-0.7;0.56;0.49;263.0;-0.246739;-0.041903;4.75;4.0;3.0;3.75;0.25;1.0;0.0;0.5;0.25;0.25;0.25;0.25;0.75;0.75;0.25;0.25;-0.231934;0.037109;0.983887;-0.63;-1.12;0.7;229.0;-0.238868;-0.073077
3.31;6.75;3.75;3.5;3.5;0.0;0.75;0.0;0.25;1.0;0.25;0.25;0.25;0.5;0.25;0.0;0.25;-0.20166;0.02832;0.986816;-0.63;0.77;0.56;243.0;-0.260886;-0.028606;4.75;4.0;3.0;3.5;0.25;1.0;0.0;0.5;0.25;0.25;0.5;0.25;0.75;0.75;0.0;0.25;-0.233887;0.037598;0.979004;-0.63;-1.12;0.63;226.0;-0.240537;-0.071492
3.32;6.5;4.0;3.5;3.75;0.0;0.75;0.0;0.25;1.0;0.25;0.25;0.25;0.5;0.25;0.0;0.0;-0.205566;0.024414;0.993164;-0.84;0.77;0.56;245.0;-0.264936;-0.032295;4.75;3.75;3.0;3.5;0.25;1.0;0.0;0.75;0.0;0.25;0.5;0.25;0.75;0.5;0.0;0.25;-0.23584;0.037109;0.978516;-0.56;-1.05;0.7;222.0;-0.249088;-0.084595
3.33;6.75;3.75;3.25;3.5;0.0;1.0;0.0;0.25;1.0;0.25;0.25;0.25;0.5;0.25;0.0;0.25;-0.197754;0.027832;0.994141;-0.77;0.63;0.56;243.0;-0.2595;-0.033072;4.75;3.75;3.0;3.5;0.25;1.0;0.0;0.5;0.0;0.25;0.25;0.25;1.0;0.5;0.25;0.25;-0.230469;0.036133;0.979492;-0.56;-1.05;0.63;220.0;-0.246712;-0.082382
3.34;7.0;4.0;3.5;3.25;0.0;1.0;0.0;0.25;1.0;0.25;0.5;0.25;0.5;0.5;0.0;0.25;-0.205078;0.023438;0.990723;-0.7;0.63;0.49;254.0;-0.250787;-0.02808;4.5;4.0;3.0;3.5;0.25;1.25;0.0;0.5;0.0;0.0;0.25;0.25;1.0;0.5;0.25;0.25;-0.227539;0.035645;0.980469;-0.63;-1.05;0.7;220.0;-0.251658;-0.090261
3.35;6.75;3.75;3.5;3.25;0.0;0.75;0.0;0.25;1.0;0.25;0.5;0.25;0.5;0.25;0.0;0.0;-0.202148;0.027832;0.993652;-0.63;0.63;0.56;242.0;-0.258603;-0.025457;4.5;3.75;3.0;3.5;0.25;1.25;0.0;0.5;0.0;0.25;0.25;0.25;0.75;0.75;0.25;0.25;-0.232422;0.038086;0.974609;-0.63;-1.05;0.77;220.0;-0.240928;-0.080617
3.36;6.75;4.0;3.5;3.25;0.0;1.0;0.0;0.25;0.75;0.25;0.25;0.25;0.5;0.25;0.0;0.0;-0.200195;0.023926;0.98877;-0.63;0.56;0.56;241.0;-0.272351;-0.033367;4.25;3.75;3.0;3.5;0.25;1.25;0.0;0.75;0.25;0.25;0.25;0.25;0.75;0.5;0.5;0.25;-0.235352;0.041016;0.979004;-0.7;-0.84;0.7;226.0;-0.225293;-0.08578
3.37;6.5;4.0;3.75;3.25;0.0;0.75;0.0;0.25;1.0;0.5;0.25;0.0;0.5;0.25;0.0;0.25;-0.202637;0.026855;0.987793;-0.7;0.49;0.49;243.0;-0.260282;-0.023481;4.5;4.0;3.0;3.5;0.25;1.25;0.0;0.5;0.25;0.25;0.25;0.25;0.75;0.5;0.5;0.25;-0.232422;0.035645;0.978516;-0.84;-0.91;0.7;227.0;-0.23354;-0.078636
3.38;6.25;3.75;3.75;3.5;0.0;1.0;0.0;0.25;1.25;0.25;0.25;0.25;0.25;0.0;0.0;0.25;-0.20166;0.024902;0.989258;-0.7;0.7;0.56;243.0;-0.259283;-0.026632;4.75;4.0;3.0;3.5;0.25;1.0;0.0;0.75;0.25;0.25;0.25;0.25;0.75;0.5;0.25;0.25;-0.234375;0.04248;0.977051;-0.77;-0.91;0.7;228.0;-0.240722;-0.079448
3.39;6.75;3.75;3.25;3.25;0.0;1.0;0.0;0.5;1.0;0.5;0.25;0.25;0.5;0.25;0.0;0.25;-0.199707;0.025391;0.994141;-0.63;0.7;0.49;247.0;-0.24925;-0.035672;4.5;4.0;3.0;3.5;0.25;1.0;0.0;0.5;0.0;0.25;0.25;0.25;0.75;0.75;0.25;0.25;-0.234375;0.036133;0.979492;-0.91;-0.91;0.7;220.0;-0.244142;-0.078997
3.4;6.25;3.75;3.25;3.25;0.25;1.0;0.0;0.25;0.75;0.5;0.25;0.25;0.25;0.25;0.0;0.25;-0.20459;0.032227;0.992188;-0.7;0.49;0.56;234.0;-0.260068;-0.032046;4.5;4.0;3.0;3.75;0.25;1.0;0.0;0.5;0.25;0.5;0.25;0.25;0.75;0.75;0.25;0.25;-0.227539;0.041016;0.979004;-0.84;-0.91;0.77;229.0;-0.230901;-0.073624
3.41;6.25;4.0;3.25;3.0;0.25;1.0;0.0;0.25;1.0;0.5;0.25;0.25;0.25;0.5;0.0;0.25;-0.203125;0.022461;0.989258;-0.7;0.7;0.49;240.0;-0.247162;-0.024448;4.75;3.5;3.25;3.75;0.25;1.0;0.0;0.5;0.25;0.25;0.25;0.25;0.75;0.75;0.5;0.25;-0.230469;0.037598;0.974609;-0.7;-0.98;0.7;230.0;-0.22728;-0.069002
3.42;6.25;3.75;3.25;3.25;0.25;0.75;0.0;0.25;0.75;0.25;0.25;0.25;0.25;0.5;0.0;0.25;-0.204102;0.025879;0.988281;-0.63;0.7;0.42;231.0;-0.260856;-0.028017;4.75;3.75;3.0;3.5;0.25;1.0;0.0;0.5;0.25;0.25;0.5;0.25;0.5;0.75;0.25;0.25;-0.228516;0.035156;0.973633;-0.77;-0.98;0.77;224.0;-0.23458;-0.066471
3.43;6.25;4.0;3.5;3.0;0.25;0.75;0.0;0.25;0.75;0.25;0.25;0.5;0.5;0.25;0.25;0.0;-0.20166;0.029785;0.989258;-0.56;0.56;0.56;238.0;-0.254663;-0.033913;4.75;3.75;3.0;3.5;0.25;1.0;0.0;0.5;0.25;0.5;0.5;0.25;0.75;0.5;0.25;0.25;-0.230957;0.039551;0.978027;-0.63;-1.05;0.7;227.0;-0.231063;-0.071429
3.44;6.25;3.75;3.25;3.25;0.0;1.0;0.0;0.25;1.0;0.25;0.25;0.25;0.5;0.25;0.0;0.25;-0.196777;0.025879;0.998047;-0.7;0.49;0.42;235.0;-0.255672;-0.034044;4.5;4.0;3.0;3.5;0.25;1.0;0.0;0.5;0.25;0.25;0.25;0.25;1.0;0.5;0.25;0.25;-0.230469;0.041992;0.986328;-0.56;-0.91;0.7;224.0;-0.238598;-0.080039
3.45;6.75;4.0;3.25;3.25;0.0;1.0;0.0;0.25;1.0;0.25;0.0;0.25;0.5;0.25;0.0;0.0;-0.199707;0.026367;0.990234;-0.7;0.56;0.49;238.0;-0.270484;-0.02933;4.75;3.75;3.0;3.75;0.25;1.25;0.0;0.75;0.25;0.25;0.25;0.25;1.0;0.25;0.5;0.25;-0.235352;0.04248;0.975586;-0.63;-1.05;0.7;235.0;-0.232734;-0.089244
3.46;6.75;4.0;3.5;3.25;0.0;1.0;0.0;0.25;1.0;0.25;0.25;0.25;0.5;0.0;0.0;0.25;-0.200195;0.021484;0.992676;-0.77;0.7;0.49;243.0;-0.267263;-0.032564;4.75;4.0;2.75;3.5;0.25;1.25;0.0;0.75;0.25;0.25;0.25;0.25;1.0;0.25;0.25;0.25;-0.22998;0.037109;0.977539;-0.63;-1.05;0.7;228.0;-0.241652;-0.090786
3.47;6.75;3.75;3.5;3.5;0.0;1.0;0.0;0.25;1.0;0.25;0.25;0.25;0.5;0.25;0.0;0.25;-0.203613;0.025879;0.980469;-0.63;0.77;0.56;246.0;-0.259574;-0.031557;4.25;4.0;3.0;3.5;0.25;1.5;0.0;0.5;0.25;0.25;0.25;0.25;0.75;0.5;0.25;0.25;-0.231934;0.039551;0.977539;-0.63;-0.98;0.7;224.0;-0.238512;-0.08353
3.48;6.25;4.0;3.5;3.25;0.25;1.0;0.0;0.25;1.0;0.25;0.5;0.25;0.5;0.5;0.0;0.25;-0.196289;0.029785;0.987793;-0.63;0.63;0.56;248.0;-0.244057;-0.031681;4.5;3.75;3.0;3.75;0.25;1.0;0.0;0.5;0.25;0.25;0.25;0.25;0.75;0.5;0.25;0.25;-0.227539;0.039551;0.977539;-0.7;-0.91;0.77;222.0;-0.241569;-0.076966
3.49;6.25;3.75;3.5;3.25;0.25;1.0;0.0;0.25;0.75;0.5;0.5;0.25;0.5;0.5;0.0;0.0;-0.203613;0.026367;0.987305;-0.56;0.56;0.56;244.0;-0.247643;-0.031953;4.75;3.75;3.0;3.5;0.25;1.25;0.0;0.5;0.25;0.25;0.25;0.5;0.75;0.75;0.25;0.25;-0.224609;0.03418;0.982422;-0.77;-0.91;0.7;230.0;-0.229541;-0.075453
3.5;6.5;3.75;3.25;3.0;0.25;0.75;0.0;0.25;1.0;0.5;0.5;0.25;0.5;0.5;0.0;0.0;-0.199219;0.025879;0.992676;-0.7;0.56;0.56;241.0;-0.242445;-0.021913;4.5;3.75;3.0;3.5;0.25;1.5;0.0;0.75;0.25;0.25;0.0;0.25;0.75;0.5;0.5;0.25;-0.233398;0.035645;0.973145;-0.98;-0.91;0.7;229.0;-0.232184;-0.085429
3.51;6.75;4.0;3.75;3.0;0.25;0.75;0.0;0.25;1.0;0.5;0.25;0.5;0.5;0.5;0.0;0.25;-0.203613;0.02002;0.991699;-0.7;0.56;0.56;254.0;-0.243154;-0.022968;4.5;4.0;2.75;3.5;0.25;1.25;0.0;0.5;0.0;0.25;0.0;0.25;0.75;0.5;0.25;0.25;-0.230469;0.037598;0.975586;-1.05;-0.77;0.77;215.0;-0.255927;-0.086357
3.52;6.75;4.0;3.5;3.0;0.25;1.0;0.0;0.5;1.0;0.5;0.5;0.5;0.5;0.5;0.0;0.25;-0.20459;0.018555;0.992188;-0.7;0.7;0.63;261.0;-0.23303;-0.034035;4.5;3.75;3.0;3.5;0.25;1.0;0.0;0.5;0.25;0.5;0.25;0.25;0.75;0.25;0.25;0.25;-0.22998;0.041016;0.983398;-0.98;-0.84;0.63;219.0;-0.241618;-0.075813
3.53;6.5;3.75;3.25;3.25;0.0;0.75;0.0;0.25;1.0;0.25;0.25;0.5;0.5;0.75;0.0;0.25;-0.203613;0.026855;0.994141;-0.63;0.56;0.63;242.0;-0.240312;-0.028491;4.5;3.75;3.0;3.75;0.25;1.0;0.0;0.5;0.25;0.25;0.25;0.25;0.75;0.25;0.25;0.25;-0.230469;0.04248;0.974609;-0.98;-0.98;0.7;219.0;-0.248491;-0.079661
3.54;7.25;3.75;3.5;3.25;0.0;0.75;0.0;0.25;1.0;0.25;0.25;0.5;0.25;0.5;0.0;0.25;-0.202637;0.022949;0.989746;-0.7;0.56;0.49;249.0;-0.256149;-0.020187;4.5;4.0;3.0;3.5;0.25;1.0;0.0;0.5;0.25;0.0;0.25;0.25;0.75;0.25;0.25;0.5;-0.22998;0.04248;0.975586;-0.98;-0.91;0.63;218.0;-0.252142;-0.082128
3.55;6.75;4.0;3.5;3.5;0.0;0.75;0.0;0.25;1.0;0.25;0.25;0.25;0.5;0.5;0.25;0.25;-0.201172;0.026855;0.991211;-0.7;0.56;0.49;251.0;-0.248589;-0.02869;4.5;3.75;3.0;3.5;0.25;1.0;0.0;0.5;0.25;0.25;0.25;0.25;0.75;0.5;0.25;0.25;-0.230469;0.039062;0.979004;-0.84;-0.91;0.7;219.0;-0.240939;-0.074938
3.56;6.5;3.75;3.25;3.5;0.0;0.75;0.0;0.25;1.0;0.25;0.25;0.25;0.5;0.5;0.0;0.25;-0.200195;0.022461;0.98584;-0.77;0.7;0.49;240.0;-0.252626;-0.02973;4.5;4.0;3.0;3.75;0.25;1.25;0.0;0.5;0.25;0.25;0.5;0.25;0.75;0.25;0.25;0.25;-0.233887;0.035156;0.97998;-0.84;-0.91;0.63;228.0;-0.243137;-0.083597
3.57;6.5;3.75;3.25;3.5;0.0;1.0;0.0;0.25;1.0;0.25;0.0;0.5;0.5;0.25;0.0;0.0;-0.202148;0.023926;0.995117;-0.63;0.56;0.56;239.0;-0.261799;-0.03519;4.75;4.0;3.0;3.5;0.25;1.5;0.0;0.5;0.25;0.0;0.25;0.25;0.75;0.25;0.25;0.25;-0.230957;0.040527;0.98291;-0.77;-0.91;0.63;225.0;-0.255437;-0.083249
3.58;6.75;4.0;3.25;3.5;0.25;1.0;0.0;0.25;1.0;0.0;0.0;0.25;0.5;0.25;0.0;0.0;-0.200684;0.020996;0.999512;-0.7;0.63;0.56;242.0;-0.274904;-0.031727;4.5;3.75;3.0;3.5;0.5;1.25;0.0;0.5;0.25;0.0;0.0;0.25;1.0;0.5;0.5;0.25;-0.23291;0.038086;0.974609;-0.77;-0.91;0.7;224.0;-0.237671;-0.081133
3.59;6.75;4.0;3.5;3.25;0.0;1.25;0.0;0.25;1.0;0.25;0.25;0.25;0.5;0.25;0.0;0.25;-0.202637;0.021973;0.989746;-0.77;0.7;0.42;249.0;-0.259544;-0.033476;4.5;4.0;3.0;3.5;0.5;1.5;0.0;0.5;0.25;0.0;0.25;0.25;0.75;0.25;0.25;0.25;-0.229004;0.039551;0.981445;-0.63;-0.98;0.7;225.0;-0.251842;-0.083736
3.6;6.25;3.75;3.5;3.25;0.0;0.75;0.0;0.25;1.0;0.25;0.25;0.5;0.5;0.25;0.0;0.25;-0.207031;0.021973;0.996582;-0.7;0.7;0.49;238.0;-0.251454;-0.032645;4.75;4.0;3.0;3.5;0.25;1.25;0.0;0.5;0.25;0.25;0.25;0.25;0.75;0.25;0.0;0.25;-0.227051;0.040039;0.979004;-0.63;-1.05;0.63;222.0;-0.259035;-0.078835
3.61;6.0;3.75;3.5;3.25;0.0;1.0;0.0;0.25;1.25;0.25;0.5;0.5;0.5;0.5;0.0;0.0;-0.197754;0.024902;0.993164;-0.77;0.56;0.56;245.0;-0.232916;-0.029995;4.75;3.75;3.0;3.5;0.25;1.0;0.0;0.5;0.25;0.25;0.25;0.25;0.75;0.5;0.25;0.25;-0.231445;0.039551;0.977539;-0.7;-1.05;0.7;222.0;-0.243013;-0.072591
3.62;6.5;3.75;3.5;3.25;0.0;1.0;0.0;0.25;1.0;0.25;0.25;0.5;0.5;0.5;0.0;0.25;-0.19873;0.024414;0.991211;-0.84;0.77;0.56;246.0;-0.245727;-0.031936;4.5;3.75;3.0;3.5;0.25;1.0;0.0;0.5;0.0;0.25;0.5;0.25;0.75;0.5;0.25;0.25;-0.233398;0.03418;0.979004;-0.77;-1.05;0.7;218.0;-0.242973;-0.081206
3.63;7.0;4.0;3.5;3.25;0.25;1.0;0.0;0.25;1.0;0.25;0.25;0.5;0.5;0.5;0.0;0.0;-0.198242;0.026367;0.993652;-0.77;0.7;0.56;255.0;-0.253008;-0.027411;4.5;3.75;3.0;3.5;0.25;1.0;0.0;0.5;0.0;0.25;0.25;0.5;0.75;0.5;0.5;0.25;-0.23291;0.041992;0.97998;-0.84;-0.98;0.63;221.0;-0.234704;-0.083566
3.64;6.75;4.0;3.5;3.5;0.25;1.0;0.0;0.25;1.0;0.25;0.25;0.25;0.5;0.5;0.0;0.25;-0.202148;0.024902;0.989258;-0.84;0.63;0.49;254.0;-0.253407;-0.029883;4.5;4.0;3.0;3.75;0.5;1.0;0.0;0.5;0.25;0.25;0.0;0.25;0.75;0.5;0.25;0.25;-0.230469;0.04248;0.98291;-0.77;-0.98;0.56;224.0;-0.24794;-0.075622
3.65;6.5;4.0;3.5;3.5;0.25;0.75;0.0;0.25;1.0;0.25;0.25;0.0;0.5;0.5;0.0;0.25;-0.199707;0.021484;0.986816;-0.7;0.63;0.56;245.0;-0.258336;-0.025415;4.75;3.75;3.0;3.5;0.5;1.0;0.0;0.5;0.25;0.25;0.25;0.25;0.75;0.75;0.0;0.25;-0.229004;0.040527;0.977539;-0.91;-1.05;0.63;224.0;-0.242967;-0.068081
3.66;6.75;4.0;3.5;3.5;0.25;0.75;0.0;0.25;1.0;0.25;0.5;0.25;0.5;0.5;0.0;0.25;-0.20166;0.023438;0.98877;-0.84;0.7;0.56;254.0;-0.249194;-0.028005;4.5;4.0;3.0;3.5;0.5;1.0;0.0;0.5;0.0;0.25;0.25;0.25;0.75;0.5;0.25;0.25;-0.231445;0.036621;0.973633;-0.91;-0.98;0.63;221.0;-0.249435;-0.079789
3.67;7.0;4.0;3.5;3.5;0.25;0.75;0.0;0.25;1.0;0.25;0.25;0.5;0.5;0.25;0.0;0.25;-0.198242;0.025391;0.989258;-0.77;0.63;0.42;255.0;-0.257092;-0.030404;4.5;3.75;3.0;3.5;0.5;1.0;0.0;0.75;0.0;0.25;0.25;0.25;0.75;0.5;0.25;0.5;-0.229492;0.03125;0.97998;-0.84;-0.84;0.63;224.0;-0.239102;-0.086168
3.68;6.75;4.0;3.5;3.5;0.25;0.75;0.0;0.25;1.0;0.25;0.25;0.5;0.5;0.0;0.0;0.25;-0.199219;0.022461;0.993164;-0.7;0.63;0.49;249.0;-0.261666;-0.033921;4.75;4.0;3.0;3.25;0.25;0.75;0.0;0.75;0.0;0.25;0.25;0.25;0.75;0.5;0.0;0.25;-0.22998;0.034668;0.972168;-0.84;-0.84;0.63;216.0;-0.258142;-0.080588
3.69;7.0;4.0;3.5;3.25;0.25;1.0;0.0;0.25;1.0;0.5;0.25;0.25;0.5;0.25;0.0;0.25;-0.20459;0.025879;0.986328;-0.77;0.63;0.49;254.0;-0.25523;-0.026889;4.75;4.0;3.0;3.5;0.25;1.25;0.0;0.5;0.25;0.5;0.25;0.25;0.75;0.5;0.0;0.25;-0.225586;0.041504;0.97998;-0.77;-0.98;0.77;227.0;-0.245913;-0.074425
3.7;6.75;4.0;3.5;3.5;0.0;1.0;0.0;0.25;1.0;0.5;0.25;0.25;0.5;0.5;0.0;0.25;-0.203125;0.026855;0.98877;-0.63;0.56;0.49;254.0;-0.249393;-0.029911;4.75;4.0;3.0;3.5;0.25;1.5;0.0;0.5;0.25;0.25;0.25;0.5;0.75;0.75;0.25;0.25;-0.229004;0.038086;0.977051;-0.63;-0.98;0.7;235.0;-0.230568;-0.078922
3.71;7.25;4.0;3.5;3.25;0.0;0.75;0.0;0.5;1.0;0.25;0.25;0.5;0.5;0.5;0.0;0.25;-0.198242;0.030273;0.996582;-0.63;0.63;0.49;258.0;-0.249896;-0.031644;4.75;3.75;3.0;3.5;0.25;1.25;0.0;0.5;0.25;0.25;0.25;0.5;0.75;0.75;0.25;0.25;-0.235352;0.035645;0.980957;-0.7;-0.84;0.63;230.0;-0.229541;-0.075453
3.72;7.25;4.0;3.5;3.25;0.0;0.75;0.0;0.5;1.0;0.25;0.25;0.5;0.5;0.5;0.0;0.25;-0.203125;0.025391;0.986328;-0.63;0.56;0.56;258.0;-0.249896;-0.031644;4.75;4.0;3.0;3.5;0.25;1.0;0.0;0.75;0.25;0.25;0.25;0.25;0.75;0.75;0.25;0.25;-0.228027;0.039551;0.981445;-0.7;-0.91;0.7;231.0;-0.234143;-0.076859
3.73;7.25;4.0;3.5;3.25;0.0;1.0;0.0;0.5;1.0;0.25;0.25;0.5;0.5;0.5;0.0;0.25;-0.19873;0.026367;0.995117;-0.49;0.42;0.56;261.0;-0.248782;-0.034395;4.75;4.0;3.0;3.5;0.25;1.5;0.0;0.75;0.25;0.25;0.25;0.25;0.75;0.5;0.5;0.25;-0.233887;0.039551;0.972656;-0.7;-0.84;0.7;237.0;-0.23066;-0.084337
3.74;7.0;4.0;3.5;3.25;0.25;1.0;0.0;0.5;1.0;0.25;0.25;0.5;0.5;0.5;0.25;0.25;-0.202148;0.022461;0.995117;-0.63;0.63;0.49;264.0;-0.23859;-0.035361;4.5;3.75;3.0;3.5;0.25;1.0;0.0;0.75;0.0;0.25;0.25;0.5;0.75;0.5;0.25;0.25;-0.227051;0.038574;0.975586;-0.7;-0.98;0.7;222.0;-0.238824;-0.08936
3.75;7.0;4.0;3.5;3.5;0.0;0.75;0.0;0.5;1.0;0.25;0.25;0.5;0.5;0.75;0.25;0.5;-0.20166;0.02002;0.994629;-0.63;0.49;0.56;265.0;-0.232337;-0.035623;4.5;3.75;2.75;3.25;0.25;1.0;0.0;0.5;0.25;0.25;0.25;0.5;0.75;0.75;0.0;0.25;-0.233398;0.036133;0.980469;-0.77;-0.91;0.7;215.0;-0.2355;-0.07531
3.76;7.0;4.0;3.5;3.5;0.0;1.0;0.0;0.5;1.0;0.0;0.25;0.25;0.5;0.75;0.25;0.25;-0.204102;0.02832;0.997559;-0.63;0.56;0.56;260.0;-0.244836;-0.03496;4.5;3.75;3.0;3.5;0.5;1.0;0.0;0.5;0.5;0.25;0.5;0.5;1.0;0.75;0.25;0.25;-0.231934;0.041016;0.976074;-0.77;-0.91;0.7;236.0;-0.210218;-0.072474
3.77;7.0;4.0;3.5;3.5;0.25;0.75;0.0;0.25;1.25;0.0;0.25;0.25;0.5;0.75;0.0;0.25;-0.208496;0.029297;0.995117;-0.7;0.63;0.56;257.0;-0.24858;-0.020472;4.5;3.75;3.0;3.5;0.25;1.0;0.0;0.5;0.25;0.25;0.5;0.25;0.75;0.75;0.25;0.5;-0.23877;0.033203;0.976562;-0.91;-0.84;0.7;225.0;-0.224329;-0.074424
3.78;6.75;4.0;3.5;3.25;0.0;0.5;0.0;0.5;1.25;0.25;0.5;0.25;0.5;0.5;0.0;0.25;-0.199707;0.021973;0.990723;-0.63;0.42;0.49;253.0;-0.240296;-0.025563;4.75;3.75;3.0;3.5;0.25;1.25;0.0;0.75;0.25;0.25;0.25;0.25;0.75;0.5;0.25;0.25;-0.231445;0.033203;0.980957;-0.98;-0.91;0.7;229.0;-0.237632;-0.081009
3.79;7.25;3.75;3.5;3.5;0.0;1.0;0.0;0.5;1.25;0.25;0.25;0.25;0.5;0.5;0.0;0.25;-0.197754;0.024414;0.990723;-0.77;0.63;0.56;262.0;-0.245751;-0.028218;4.5;4.0;3.0;3.5;0.25;1.25;0.0;0.75;0.0;0.25;0.25;0.25;0.75;0.5;0.25;0.25;-0.22998;0.040527;0.977051;-0.91;-0.91;0.7;225.0;-0.245414;-0.090007
3.8;6.75;3.75;3.25;3.25;0.0;1.0;0.0;0.25;1.25;0.25;0.25;0.5;0.5;0.75;0.0;0.25;-0.197754;0.02832;0.996094;-0.49;0.49;0.63;251.0;-0.234037;-0.025528;4.5;3.75;3.0;3.5;0.25;1.25;0.0;0.5;0.0;0.25;0.5;0.5;0.75;0.5;0.25;0.25;-0.22998;0.036621;0.969238;-0.91;-0.91;0.63;224.0;-0.235948;-0.086513
3.81;6.25;4.0;3.5;3.5;0.0;0.75;0.0;0.25;1.25;0.25;0.25;0.5;0.5;0.25;0.0;0.25;-0.196289;0.021973;0.992188;-0.56;0.49;0.56;247.0;-0.246217;-0.031894;4.5;3.75;3.0;3.5;0.25;1.25;0.0;0.5;0.25;0.25;0.25;0.5;0.75;0.75;0.25;0.25;-0.233398;0.030273;0.976074;-0.84;-0.91;0.7;227.0;-0.227374;-0.077751
3.82;6.5;3.75;3.5;3.5;0.0;1.0;0.0;0.25;1.0;0.5;0.5;0.5;0.5;0.25;0.0;0.25;-0.203125;0.023926;0.990723;-0.63;0.49;0.56;252.0;-0.241454;-0.036034;4.5;3.75;3.0;3.5;0.25;1.0;0.0;0.5;0.25;0.25;0.5;0.5;0.5;0.75;0.25;0.25;-0.231445;0.034668;0.979492;-0.77;-0.98;0.7;224.0;-0.226756;-0.071623
3.83;6.75;4.0;3.5;3.25;0.0;0.75;0.0;0.25;0.75;0.25;0.5;0.5;0.5;0.5;0.0;0.5;-0.201172;0.02832;0.990234;-0.63;0.56;0.56;249.0;-0.248555;-0.035858;4.5;3.75;3.0;3.5;0.25;1.0;0.0;0.5;0.25;0.25;0.5;0.25;0.75;0.75;0.25;0.25;-0.232422;0.033203;0.974609;-0.7;-0.91;0.7;224.0;-0.228199;-0.072843
3.84;6.75;3.75;3.5;3.25;0.0;0.75;0.0;0.25;1.0;0.0;0.5;0.5;0.5;0.5;0.0;0.25;-0.196289;0.024902;0.992676;-0.56;0.63;0.49;246.0;-0.24881;-0.029482;4.25;3.75;3.0;3.5;0.25;1.0;0.0;0.5;0.25;0.25;0.25;0.25;1.0;0.5;0.25;0.25;-0.232422;0.037598;0.974121;-0.7;-0.91;0.7;218.0;-0.234406;-0.081493
3.85;6.75;4.0;3.5;3.5;0.25;0.75;0.0;0.25;1.0;0.0;0.25;0.5;0.5;0.5;0.0;0.25;-0.206055;0.023926;0.98877;-0.56;0.56;0.56;251.0;-0.254886;-0.031116;4.5;3.75;3.0;3.5;0.25;1.0;0.0;0.75;0.0;0.25;0.25;0.25;1.0;0.5;0.25;0.25;-0.228516;0.039551;0.976562;-0.77;-0.98;0.7;222.0;-0.24031;-0.090635
3.86;6.75;4.0;3.5;3.25;0.25;1.0;0.0;0.25;1.25;0.25;0.25;0.5;0.5;0.25;0.0;0.25;-0.198242;0.024414;0.995605;-0.56;0.49;0.49;255.0;-0.246698;-0.02822;4.5;3.75;3.0;3.5;0.25;1.25;0.0;0.75;0.0;0.25;0.5;0.25;1.0;0.5;0.25;0.25;-0.228516;0.031738;0.977051;-0.7;-0.98;0.7;227.0;-0.233296;-0.093336
3.87;6.75;3.75;3.5;3.5;0.25;1.0;0.0;0.25;1.0;0.25;0.25;0.5;0.5;0.25;0.0;0.25;-0.200684;0.024902;0.992676;-0.49;0.49;0.56;252.0;-0.25262;-0.03347;4.75;3.75;3.0;3.5;0.25;1.0;0.0;0.75;0.25;0.25;0.25;0.25;1.0;0.75;0.0;0.25;-0.229492;0.038086;0.978516;-0.7;-0.98;0.7;227.0;-0.236031;-0.079785
3.88;7.0;4.0;3.5;3.5;0.0;0.75;0.0;0.25;1.0;0.25;0.25;0.5;0.5;0.25;0.0;0.25;-0.200684;0.022949;0.990723;-0.63;0.56;0.56;252.0;-0.258664;-0.031498;4.5;3.75;3.0;3.5;0.25;1.0;0.0;0.5;0.25;0.25;0.25;0.5;0.75;0.75;0.25;0.25;-0.229004;0.037598;0.978516;-0.77;-0.98;0.7;224.0;-0.228372;-0.075159
3.89;7.25;4.0;3.75;3.5;0.0;0.75;0.0;0.25;1.0;0.25;0.25;0.5;0.5;0.25;0.25;0.25;-0.201172;0.024902;0.991211;-0.56;0.56;0.56;260.0;-0.252979;-0.029115;4.5;3.75;3.0;3.5;0.25;1.0;0.0;0.5;0.0;0.25;0.25;0.25;0.75;0.5;0.25;0.25;-0.232422;0.039062;0.975098;-0.84;-0.91;0.7;215.0;-0.249207;-0.080745
3.9;6.75;4.0;3.5;3.5;0.25;0.75;0.0;0.5;1.25;0.25;0.25;0.5;0.5;0.5;0.0;0.25;-0.197266;0.025879;0.993652;-0.7;0.7;0.49;262.0;-0.238666;-0.031648;4.5;4.0;3.0;3.5;0.25;1.0;0.0;0.5;0.0;0.25;0.25;0.25;0.75;0.5;0.25;0.25;-0.234863;0.039062;0.978027;-0.84;-1.05;0.7;218.0;-0.251146;-0.081734
3.91;6.25;3.75;3.5;3.25;0.0;1.0;0.0;0.25;1.0;0.25;0.5;0.5;0.5;0.5;0.0;0.25;-0.199707;0.020996;0.990723;-0.7;0.56;0.56;246.0;-0.238423;-0.034535;4.5;4.0;3.0;3.5;0.25;1.0;0.0;0.5;0.25;0.25;0.25;0.25;1.0;0.5;0.25;0.25;-0.230469;0.038086;0.979492;-0.84;-0.98;0.7;224.0;-0.238598;-0.080039
3.92;6.5;4.0;3.25;3.0;0.0;1.25;0.0;0.25;0.75;0.0;0.5;0.5;0.5;0.5;0.0;0.25;-0.205078;0.022949;0.992676;-0.7;0.7;0.56;242.0;-0.253161;-0.042096;4.5;4.0;3.25;3.5;0.25;1.0;0.0;0.5;0.0;0.25;0.25;0.25;0.75;0.75;0.25;0.5;-0.229004;0.041992;0.976074;-0.77;-0.98;0.7;224.0;-0.240442;-0.078257
3.93;6.75;4.0;3.25;3.25;0.0;1.0;0.0;0.25;1.25;0.25;0.25;0.5;0.5;0.75;0.0;0.25;-0.199707;0.027344;0.993164;-0.77;0.7;0.56;254.0;-0.23585;-0.026924;4.75;3.75;3.0;3.5;0.25;1.0;0.0;0.5;0.0;0.25;0.25;0.25;0.75;0.75;0.25;0.25;-0.231934;0.033203;0.983887;-0.91;-1.05;0.7;220.0;-0.244212;-0.075587
3.94;7.0;4.0;3.5;3.5;0.0;0.75;0.0;0.25;1.5;0.25;0.25;0.5;0.5;0.5;0.0;0.25;-0.20752;0.021973;0.992676;-0.7;0.63;0.49;261.0;-0.238581;-0.021257;4.5;3.75;3.0;3.5;0.25;1.25;0.0;0.5;0.25;0.25;0.25;0.25;0.75;0.75;0.25;0.25;-0.22998;0.035156;0.977539;-0.91;-1.05;0.7;224.0;-0.232988;-0.074949
3.95;7.0;3.75;3.5;3.25;0.25;0.75;0.0;0.25;1.5;0.25;0.25;0.5;0.5;0.5;0.0;0.25;-0.204102;0.028809;0.994629;-0.63;0.49;0.42;258.0;-0.234961;-0.016524;4.75;4.0;3.0;3.5;0.25;1.25;0.0;0.75;0.0;0.25;0.25;0.25;0.75;0.75;0.0;0.25;-0.227051;0.037598;0.979492;-0.84;-0.98;0.77;227.0;-0.248898;-0.084892
3.96;6.5;4.0;3.5;3.0;0.0;1.0;0.0;0.25;1.0;0.5;0.5;0.5;0.5;0.5;0.0;0.25;-0.199707;0.028809;0.994141;-0.49;0.63;0.56;251.0;-0.236061;-0.03085;4.5;4.0;3.0;3.5;0.25;1.0;0.0;0.75;0.0;0.25;0.5;0.25;0.75;0.5;0.25;0.25;-0.232422;0.039062;0.978516;-0.77;-0.98;0.63;225.0;-0.240647;-0.087915
3.97;6.25;4.0;3.5;3.0;0.0;0.75;0.0;0.25;1.0;0.5;0.5;0.5;0.5;0.5;0.0;0.25;-0.200195;0.022461;0.986816;-0.7;0.56;0.56;245.0;-0.235147;-0.029525;4.5;3.75;3.0;3.5;0.25;1.0;0.0;0.5;0.0;0.25;0.5;0.25;0.75;0.5;0.25;0.25;-0.230469;0.041992;0.980469;-0.7;-0.98;0.7;218.0;-0.242973;-0.081206
3.98;6.5;3.75;3.25;3.25;0.0;0.75;0.0;0.25;1.0;0.25;0.5;0.5;0.5;0.75;0.0;0.25;-0.202148;0.025879;0.992188;-0.7;0.63;0.49;245.0;-0.234866;-0.029512;4.5;3.75;2.75;3.75;0.25;1.0;0.0;0.5;0.25;0.25;0.5;0.25;0.75;0.75;0.0;0.25;-0.227051;0.03125;0.97998;-0.7;-1.12;0.7;221.0;-0.236738;-0.077022
3.99;6.75;3.75;3.25;3.25;0.0;1.0;0.0;0.25;1.0;0.0;0.5;0.25;0.5;0.5;0.0;0.25;-0.203613;0.021973;0.992676;-0.84;0.7;0.56;243.0;-0.252856;-0.030797;5.0;4.0;3.25;3.75;0.25;1.25;0.0;0.5;0.25;0.0;0.5;0.25;0.75;0.75;0.25;0.25;-0.232422;0.038086;0.981445;-0.77;-1.05;0.7;238.0;-0.240218;-0.073481
4.0;6.25;4.0;3.5;3.5;0.0;0.75;0.0;0.25;1.0;0.25;0.25;0.25;0.5;0.25;0.0;0.25;-0.202637;0.026367;0.990234;-0.63;0.7;0.56;240.0;-0.259165;-0.033288;4.5;3.75;3.0;3.5;0.25;1.25;0.0;0.75;0.25;0.25;0.25;0.25;1.0;0.75;0.25;0.25;-0.237793;0.035645;0.978516;-0.77;-1.05;0.7;231.0;-0.224892;-0.084622
4.01;6.25;4.0;3.5;3.0;0.0;0.75;0.0;0.25;1.0;0.25;0.25;0.25;0.5;0.5;0.0;0.5;-0.202148;0.027832;0.992676;-0.63;0.63;0.63;238.0;-0.24804;-0.028147;4.5;3.75;3.0;3.5;0.25;1.25;0.0;0.5;0.25;0.25;0.5;0.25;1.0;0.5;0.25;0.25;-0.231445;0.041992;0.977539;-0.7;-1.05;0.77;227.0;-0.229632;-0.082063
4.02;6.25;4.0;3.5;3.0;0.0;0.75;0.0;0.25;1.25;0.0;0.25;0.25;0.5;0.5;0.25;0.5;-0.20166;0.025879;0.986328;-0.63;0.63;0.63;242.0;-0.238539;-0.025393;4.5;3.75;3.0;3.5;0.25;1.0;0.0;0.5;0.25;0.25;0.25;0.25;0.75;0.5;0.25;0.25;-0.230957;0.037109;0.974121;-0.7;-0.98;0.7;219.0;-0.240939;-0.074938
4.03;7.0;4.0;3.5;3.0;0.0;0.75;0.0;0.25;1.0;0.25;0.25;0.25;0.5;0.5;0.0;0.5;-0.195312;0.029297;0.994629;-0.63;0.49;0.49;246.0;-0.253387;-0.023428;4.75;3.75;3.0;3.5;0.25;1.0;0.0;0.5;0.25;0.0;0.25;0.25;1.0;0.5;0.25;0.25;-0.227539;0.038086;0.98291;-0.91;-0.98;0.77;221.0;-0.244836;-0.078491
4.04;6.75;4.0;3.25;3.0;0.0;0.75;0.0;0.25;1.0;0.25;0.25;0.5;0.5;0.75;0.0;0.5;-0.202637;0.023438;0.990234;-0.63;0.63;0.42;246.0;-0.2398;-0.027643;4.5;4.0;2.75;3.25;0.25;1.25;0.0;0.5;0.25;0.25;0.25;0.25;0.75;0.5;0.25;0.25;-0.237305;0.040039;0.976562;-0.7;-0.98;0.7;218.0;-0.240775;-0.078927
4.05;6.25;4.0;3.25;3.25;0.0;0.75;0.0;0.25;1.0;0.5;0.25;0.5;0.5;0.5;0.0;0.25;-0.204102;0.023438;0.991211;-0.77;0.63;0.56;242.0;-0.240859;-0.03242;4.5;4.0;3.0;3.5;0.25;1.25;0.0;0.5;0.25;0.25;0.25;0.5;0.75;0.25;0.5;0.25;-0.233398;0.039062;0.980957;-0.77;-1.05;0.56;228.0;-0.234526;-0.083995
4.06;6.5;4.0;3.5;3.0;0.0;0.75;0.0;0.25;1.0;0.25;0.25;0.25;0.5;0.5;0.0;0.5;-0.197266;0.027344;0.990234;-0.77;0.56;0.49;241.0;-0.249864;-0.026537;4.75;3.75;3.0;3.5;0.25;1.0;0.0;0.5;0.0;0.25;0.5;0.25;0.75;0.25;0.25;0.25;-0.228027;0.039062;0.981934;-0.7;-0.98;0.63;218.0;-0.252014;-0.081496
4.07;6.75;3.75;3.5;3.25;0.25;0.75;0.0;0.25;1.0;0.25;0.25;0.25;0.5;0.5;0.25;0.25;-0.203125;0.022949;0.991699;-0.7;0.49;0.56;248.0;-0.244925;-0.023842;4.5;3.75;3.0;3.5;0.25;1.0;0.0;0.5;0.25;0.25;0.25;0.25;0.75;0.5;0.0;0.25;-0.229492;0.036621;0.975586;-0.7;-0.91;0.63;216.0;-0.249552;-0.074842
4.08;7.0;4.0;3.5;3.25;0.25;0.75;0.0;0.25;1.25;0.5;0.25;0.25;0.5;0.5;0.0;0.25;-0.196289;0.022949;0.98877;-0.7;0.42;0.49;257.0;-0.243289;-0.018015;4.5;3.75;3.0;3.75;0.25;1.0;0.0;0.75;0.25;0.25;0.0;0.25;0.75;0.5;0.25;0.25;-0.229004;0.039062;0.980469;-0.7;-0.84;0.7;223.0;-0.243285;-0.082345
4.09;7.0;4.0;3.5;3.25;0.25;1.0;0.0;0.5;1.5;0.5;0.5;0.25;0.5;0.5;0.0;0.25;-0.20459;0.027344;0.987793;-0.84;0.77;0.49;271.0;-0.227193;-0.023731;4.5;3.75;3.25;3.75;0.25;1.25;0.0;0.75;0.0;0.25;0.25;0.25;0.75;0.5;0.0;0.25;-0.231934;0.039551;0.983398;-0.63;-1.05;0.63;225.0;-0.252634;-0.088623
4.1;6.75;4.0;3.75;3.25;0.25;0.75;0.0;0.5;1.5;0.25;0.5;0.25;0.5;0.5;0.0;0.25;-0.201172;0.027832;0.988281;-0.63;0.56;0.49;265.0;-0.231604;-0.021991;4.75;3.75;3.0;4.0;0.25;1.5;0.0;0.75;0.0;0.25;0.25;0.5;0.75;0.5;0.25;0.5;-0.22998;0.037109;0.981445;-0.7;-1.19;0.77;238.0;-0.236117;-0.096388
4.11;6.75;4.0;3.25;3.0;0.0;0.75;0.0;0.25;1.25;0.25;0.5;0.25;0.5;0.75;0.25;0.25;-0.200684;0.024902;0.986816;-0.7;0.7;0.56;251.0;-0.228713;-0.020194;4.5;4.0;3.0;3.75;0.25;1.0;0.0;0.75;0.25;0.25;0.25;0.5;0.75;0.25;0.25;0.5;-0.231445;0.032715;0.972168;-0.63;-1.12;0.7;230.0;-0.236427;-0.090449
