Time;left pressure 1[N/cm²];left pressure 2[N/cm²];left pressure 3[N/cm²];left pressure 4[N/cm²];left pressure 5[N/cm²];left pressure 6[N/cm²];left pressure 7[N/cm²];left pressure 8[N/cm²];left pressure 9[N/cm²];left pressure 10[N/cm²];left pressure 11[N/cm²];left pressure 12[N/cm²];left pressure 13[N/cm²];left pressure 14[N/cm²];left pressure 15[N/cm²];left pressure 16[N/cm²];left acceleration X[g];left acceleration Y[g];left acceleration Z[g];left angular X[dps];left angular Y[dps];left angular Z[dps];left total force[N];left center of pressure X[-0.5...+0.5];left center of pressure Y[-0.5...+0.5];right pressure 1[N/cm²];right pressure 2[N/cm²];right pressure 3[N/cm²];right pressure 4[N/cm²];right pressure 5[N/cm²];right pressure 6[N/cm²];right pressure 7[N/cm²];right pressure 8[N/cm²];right pressure 9[N/cm²];right pressure 10[N/cm²];right pressure 11[N/cm²];right pressure 12[N/cm²];right pressure 13[N/cm²];right pressure 14[N/cm²];right pressure 15[N/cm²];right pressure 16[N/cm²];right acceleration X[g];right acceleration Y[g];right acceleration Z[g];right angular X[dps];right angular Y[dps];right angular Z[dps];right total force[N];right center of pressure X[-0.5...+0.5];right center of pressure Y[-0.5...+0.5]
0.0;4.25;3.75;2.0;3.0;1.0;1.25;0.25;1.0;0.5;1.75;1.25;1.5;1.0;1.0;0.5;1.0;-0.202637;0.028809;0.986328;-1.12;2.59;1.12;237.0;-0.11353;-0.086157;4.5;4.5;4.0;3.0;2.0;1.25;0.25;1.0;0.0;0.5;0.75;0.5;0.5;0.0;0.0;0.0;-0.229004;-0.007324;0.989746;-0.7;0.0;0.63;222.0;-0.235558;-0.069065
0.01;4.25;3.5;2.25;3.5;1.25;1.25;0.25;0.5;0.5;1.5;1.25;1.5;1.0;0.75;0.25;1.25;-0.198242;0.035156;0.993652;-1.26;2.52;1.12;232.0;-0.130273;-0.080778;4.5;4.5;4.0;3.0;2.0;1.25;0.25;1.0;0.0;0.5;0.75;0.5;0.5;0.0;0.0;0.0;-0.229004;-0.007324;0.989746;-0.7;0.0;0.63;222.0;-0.235558;-0.069065
0.02;4.25;3.5;2.25;3.5;1.25;1.25;0.25;0.25;0.5;1.5;1.5;1.0;1.0;0.75;0.0;1.0;-0.206055;0.033203;0.98877;-1.12;2.52;1.12;223.0;-0.1442;-0.070332;4.5;4.5;4.0;3.0;2.0;1.25;0.25;1.0;0.0;0.5;0.75;0.5;0.5;0.0;0.0;0.0;-0.229004;-0.007324;0.989746;-0.7;0.0;0.63;222.0;-0.235558;-0.069065
0.03;4.25;3.5;2.25;3.25;1.25;1.0;0.25;0.25;0.5;1.5;0.5;0.75;0.75;1.0;0.0;1.0;-0.20166;0.035156;0.983398;-1.26;2.45;1.19;206.0;-0.161471;-0.055095;4.5;4.5;3.75;3.0;2.0;1.0;0.25;0.75;0.0;0.5;1.0;0.75;0.5;0.0;0.0;0.0;-0.230469;-0.006836;0.987793;-0.7;-0.14;0.7;218.0;-0.229739;-0.066473
0.04;4.0;3.5;2.0;2.5;0.75;0.75;0.25;0.5;0.25;1.75;0.5;1.0;0.75;0.75;0.0;1.0;-0.20166;0.036133;0.98584;-1.19;2.45;1.12;189.0;-0.153129;-0.067941;4.5;4.5;3.5;2.5;1.25;1.0;0.25;0.75;0.25;0.5;0.25;0.25;0.5;0.0;0.0;0.0;-0.230469;-0.004883;0.990234;-0.7;-0.14;0.63;194.0;-0.252087;-0.056613
0.05;4.0;4.0;1.75;2.5;0.5;1.0;0.25;0.5;0.0;2.0;0.75;1.25;1.0;0.25;0.25;0.5;-0.205078;0.032715;0.985352;-1.26;2.59;1.05;193.0;-0.15776;-0.089645;4.5;4.25;3.5;2.5;1.25;1.0;0.25;1.0;0.5;0.25;0.25;0.0;0.5;0.0;0.0;0.0;-0.231934;-0.012695;0.984863;-0.63;-0.14;0.63;194.0;-0.249935;-0.054827
0.06;4.0;4.0;1.75;2.75;0.75;1.25;0.25;0.5;0.25;2.0;1.25;0.75;1.0;0.5;0.25;0.5;-0.202637;0.02832;0.986328;-1.26;2.45;1.05;205.0;-0.147093;-0.079601;4.5;4.25;3.75;2.25;1.75;1.0;0.25;0.75;0.25;0.25;0.5;0.0;0.25;0.0;0.0;0.0;-0.22998;-0.011719;0.98584;-0.63;-0.14;0.7;193.0;-0.256976;-0.043266
0.07;4.0;4.0;2.25;2.5;0.75;1.25;0.25;0.5;0.5;1.25;1.25;0.75;1.0;0.5;0.0;0.75;-0.203125;0.03418;0.986816;-1.19;2.52;1.05;203.0;-0.159501;-0.074785;4.0;4.5;3.75;2.0;1.75;1.0;0.5;0.75;0.0;0.25;0.5;0.0;0.5;0.0;0.0;0.0;-0.230957;-0.007812;0.988281;-0.63;-0.14;0.63;190.0;-0.252122;-0.050163
0.08;4.0;3.5;2.25;2.75;1.0;1.25;0.25;0.5;0.5;1.0;1.25;0.75;1.0;0.25;0.25;0.75;-0.200684;0.036621;0.991699;-1.05;2.66;1.12;202.0;-0.158769;-0.077219;4.0;4.5;3.25;2.75;1.75;1.0;0.25;0.75;0.25;0.25;0.75;0.25;0.25;0.0;0.0;0.0;-0.230957;-0.008301;0.988281;-0.56;-0.07;0.63;195.0;-0.244007;-0.060452
0.09;4.0;3.5;2.0;3.0;1.25;1.25;0.25;0.75;0.25;0.75;1.5;0.75;0.75;0.5;0.25;0.75;-0.204102;0.032227;0.989746;-1.19;2.45;1.19;205.0;-0.160075;-0.085811;4.0;4.5;3.5;2.75;1.25;1.0;0.25;1.0;0.25;0.25;0.5;0.0;0.25;0.0;0.0;0.0;-0.22998;-0.009766;0.987305;-0.63;-0.28;0.63;191.0;-0.254808;-0.064016
0.1;4.0;3.75;2.0;3.25;0.75;1.25;0.0;0.75;0.25;1.0;1.75;0.5;0.75;0.75;0.25;0.75;-0.199219;0.029297;0.992188;-1.05;2.45;1.26;205.0;-0.158941;-0.091164;4.25;4.5;3.25;2.25;1.25;1.0;0.25;0.5;0.0;0.5;0.5;0.25;0.5;0.0;0.0;0.0;-0.227051;-0.007324;0.989746;-0.7;-0.28;0.77;183.0;-0.25608;-0.058305
0.11;3.75;3.5;2.0;3.25;0.5;1.25;0.0;0.5;0.5;1.25;0.75;0.75;0.75;0.5;0.25;0.75;-0.199707;0.034668;0.984863;-1.05;2.59;1.19;191.0;-0.165206;-0.085773;4.25;4.25;3.25;2.0;1.5;1.0;0.5;0.5;0.0;0.5;0.5;0.5;0.25;0.0;0.0;0.0;-0.230469;-0.009766;0.983887;-0.77;-0.21;0.63;185.0;-0.244202;-0.046246
0.12;4.0;3.5;2.0;2.5;0.5;1.25;0.25;0.5;0.5;0.75;0.25;0.5;0.75;0.25;0.25;0.75;-0.205078;0.031738;0.98291;-0.91;2.45;1.12;175.0;-0.191583;-0.073919;4.25;4.5;3.25;2.25;1.75;0.5;0.25;0.75;0.25;0.5;0.75;0.5;0.25;0.0;0.0;0.0;-0.233398;-0.012695;0.987793;-0.7;-0.14;0.77;192.0;-0.235519;-0.049984
0.13;4.25;3.5;1.75;2.25;0.5;1.25;0.25;0.75;0.25;1.0;0.5;0.5;1.0;0.5;0.0;1.0;-0.203613;0.030762;0.984375;-0.7;2.38;1.26;181.0;-0.178393;-0.085479;4.5;4.5;3.5;2.25;1.5;0.5;0.25;0.75;0.25;0.5;0.75;0.25;0.25;0.0;0.0;0.0;-0.226562;-0.006348;0.983398;-0.63;-0.28;0.77;192.0;-0.245013;-0.044543
0.14;4.25;3.25;2.0;2.25;0.5;1.25;0.0;0.75;0.5;1.25;1.0;0.5;0.5;1.0;0.0;0.5;-0.203125;0.03418;0.987305;-0.7;2.59;1.12;185.0;-0.161178;-0.064641;4.5;4.5;3.25;2.5;1.5;0.75;0.25;0.75;0.25;0.5;0.5;0.25;0.25;0.0;0.0;0.0;-0.236328;-0.009277;0.989258;-0.77;-0.28;0.7;192.0;-0.249963;-0.050744
0.15;4.0;3.5;1.75;2.25;0.5;1.25;0.0;0.75;0.25;1.25;0.75;0.75;0.5;1.0;0.0;0.5;-0.203613;0.036133;0.98584;-0.77;2.59;1.12;179.0;-0.166656;-0.0784;4.5;4.5;3.25;2.5;1.75;0.75;0.25;0.75;0.0;0.5;0.5;0.0;0.0;0.0;0.0;0.0;-0.232422;-0.011719;0.985352;-0.7;-0.28;0.7;187.0;-0.266771;-0.046903
0.16;4.25;3.5;1.75;2.25;0.5;1.25;0.0;0.5;0.25;1.25;0.75;1.0;0.5;0.5;0.5;0.5;-0.200195;0.032715;0.988281;-0.77;2.59;1.26;181.0;-0.164898;-0.078452;4.5;4.5;3.5;3.25;1.5;0.5;0.25;0.75;0.0;0.5;0.5;0.5;0.0;0.0;0.0;0.0;-0.22998;-0.010742;0.983887;-0.7;-0.21;0.63;197.0;-0.259141;-0.056552
0.17;4.25;3.5;2.25;2.25;0.5;1.25;0.0;0.5;0.25;1.25;1.0;1.25;0.5;0.5;0.0;1.0;-0.198242;0.030273;0.986816;-0.77;2.52;1.12;189.0;-0.165574;-0.080177;4.0;4.5;3.75;2.75;1.5;0.5;0.25;0.75;0.0;0.5;0.5;0.0;0.0;0.0;0.0;0.0;-0.231445;-0.009766;0.980957;-0.63;-0.28;0.56;185.0;-0.266982;-0.047974
0.18;4.25;3.5;2.25;3.0;0.75;1.25;0.0;0.5;0.25;1.0;1.25;1.25;0.5;0.5;0.25;1.0;-0.205078;0.028809;0.989746;-0.91;2.38;1.19;202.0;-0.162903;-0.085965;4.25;4.25;3.5;2.25;1.5;0.75;0.25;1.0;0.0;0.25;0.75;0.25;0.25;0.0;0.0;0.0;-0.228027;-0.010742;0.983887;-0.7;-0.35;0.56;188.0;-0.249686;-0.060988
0.19;4.0;3.5;2.0;2.75;0.5;1.25;0.25;0.75;0.25;0.5;1.25;1.25;0.75;0.5;0.0;1.0;-0.199707;0.03125;0.999023;-0.77;2.52;1.26;193.0;-0.164002;-0.097954;4.0;4.5;3.25;2.75;1.5;0.5;0.25;0.5;0.25;0.5;0.5;0.0;0.25;0.0;0.0;0.0;-0.231445;-0.015625;0.989746;-0.7;-0.35;0.63;182.0;-0.258478;-0.044479
0.2;4.0;3.25;1.75;2.5;0.5;1.25;0.0;0.5;0.25;0.75;1.25;1.25;1.0;0.5;0.5;1.0;-0.203613;0.02832;0.98877;-0.84;2.45;1.19;188.0;-0.142208;-0.10032;4.5;4.5;3.5;3.0;1.75;0.75;0.25;0.25;0.25;0.25;0.25;0.0;0.5;0.0;0.0;0.0;-0.230957;-0.011719;0.981445;-0.7;-0.35;0.63;190.0;-0.271773;-0.041316
0.21;4.0;2.25;1.75;2.75;0.75;1.25;0.0;0.5;0.25;1.25;1.5;0.5;0.5;0.25;0.5;0.5;-0.201172;0.032227;0.983887;-0.84;2.52;1.19;177.0;-0.150318;-0.076329;4.75;4.5;3.75;2.5;1.5;0.5;0.25;0.5;0.5;0.25;0.25;0.25;0.25;0.0;0.0;0.0;-0.229492;-0.009766;0.983398;-0.56;-0.28;0.7;192.0;-0.261961;-0.031524
0.22;4.0;3.5;2.0;2.25;1.0;1.25;0.0;0.5;0.5;1.0;1.25;0.5;0.5;0.5;0.25;0.5;-0.20166;0.033691;0.984863;-0.77;2.59;1.26;185.0;-0.16766;-0.066108;5.0;4.5;3.25;2.25;1.75;0.5;0.25;0.5;0.0;0.25;0.5;0.0;0.25;0.0;0.0;0.0;-0.229004;-0.010742;0.984863;-0.63;-0.35;0.7;183.0;-0.278243;-0.036774
0.23;3.0;4.0;2.0;2.0;0.5;1.25;0.0;0.5;0.25;0.75;1.0;0.5;0.5;0.5;0.0;0.75;-0.207031;0.031738;0.986816;-0.91;2.52;1.19;163.0;-0.183844;-0.089392;4.5;4.5;3.25;1.75;1.25;0.75;0.5;0.75;0.0;0.5;0.25;0.0;0.25;0.0;0.0;0.0;-0.230469;-0.006348;0.986328;-0.56;-0.28;0.7;178.0;-0.264824;-0.040473
0.24;4.0;3.5;2.0;2.25;0.5;1.5;0.25;0.75;0.25;1.0;1.0;0.75;0.5;1.0;0.25;1.0;-0.20459;0.037598;0.98877;-0.91;2.59;1.33;193.0;-0.149438;-0.078199;4.0;4.5;3.5;1.5;1.75;0.75;0.25;0.5;0.25;0.25;0.25;0.0;0.5;0.0;0.0;0.0;-0.22998;-0.009766;0.987793;-0.63;-0.28;0.84;174.0;-0.261628;-0.03652
0.25;4.25;3.5;2.0;3.0;0.75;1.5;0.25;1.25;0.5;1.0;1.0;0.5;0.5;0.5;0.25;1.0;-0.205566;0.029785;0.986328;-0.84;2.52;1.26;209.0;-0.161273;-0.087352;4.25;4.5;4.0;2.75;1.75;1.0;0.25;0.5;0.0;0.0;0.5;0.0;0.5;0.0;0.0;0.0;-0.225098;-0.00293;0.989258;-0.7;-0.28;0.63;193.0;-0.271902;-0.053715
0.26;3.5;3.5;2.0;2.75;0.5;1.25;0.25;0.75;0.5;1.0;1.25;0.5;0.75;0.25;0.25;0.5;-0.20459;0.038574;0.98291;-0.98;2.31;1.19;187.0;-0.161007;-0.085272;4.5;4.25;4.25;2.0;1.5;0.5;0.25;0.5;0.0;0.25;0.25;0.0;0.25;0.0;0.0;0.0;-0.231934;-0.009766;0.98291;-0.63;-0.42;0.63;179.0;-0.281334;-0.029599
0.27;4.0;3.5;2.0;2.0;0.25;1.25;0.0;0.5;0.5;1.0;1.25;0.5;0.75;0.25;0.0;0.5;-0.19873;0.032227;0.988281;-0.98;2.38;1.19;172.0;-0.178492;-0.076475;4.5;4.5;3.5;1.5;1.5;0.5;0.25;0.5;0.0;0.25;0.25;0.5;0.5;0.0;0.0;0.0;-0.230957;-0.005371;0.987793;-0.42;-0.28;0.63;175.0;-0.264841;-0.043085
0.28;4.25;3.25;1.75;2.5;0.5;1.0;0.0;0.5;0.75;1.25;1.25;0.5;0.75;0.5;0.0;0.75;-0.202637;0.032715;0.982422;-1.05;2.59;1.12;184.0;-0.157609;-0.066253;4.0;4.5;3.0;2.0;1.75;0.5;0.25;0.5;0.0;0.25;0.5;0.25;0.5;0.0;0.0;0.0;-0.233887;-0.008789;0.98584;-0.63;-0.42;0.7;173.0;-0.259487;-0.052389
0.29;4.0;2.75;1.75;3.0;0.5;1.0;0.0;0.75;0.5;1.0;1.25;0.5;0.75;0.25;0.5;1.0;-0.208008;0.027832;0.984375;-1.05;2.38;1.05;184.0;-0.148928;-0.08855;4.0;4.5;3.25;2.0;1.5;0.75;0.25;0.75;0.0;0.0;0.5;0.0;0.75;0.0;0.0;0.0;-0.226562;-0.008789;0.981445;-0.42;-0.35;0.7;176.0;-0.263409;-0.064638
0.3;3.25;3.5;1.75;2.5;0.5;0.75;0.0;0.75;0.25;1.25;0.25;0.75;1.0;0.25;0.25;0.75;-0.204102;0.036133;0.990234;-1.19;2.31;1.05;167.0;-0.170153;-0.10168;4.25;4.5;3.25;2.0;1.5;1.0;0.25;0.75;0.25;0.25;1.0;0.0;0.25;0.0;0.0;0.0;-0.229492;-0.012207;0.986816;-0.56;-0.35;0.77;187.0;-0.245695;-0.051013
0.31;3.0;3.25;1.5;2.25;0.5;0.75;0.0;0.75;0.0;0.75;0.25;0.75;1.0;0.25;0.0;0.5;-0.206055;0.030762;0.988281;-1.19;2.38;1.12;146.0;-0.195387;-0.117023;4.0;4.5;3.5;2.75;2.0;0.5;0.25;0.5;0.25;0.25;0.25;0.0;0.25;0.0;0.0;0.0;-0.231934;-0.005859;0.984863;-0.56;-0.35;0.7;184.0;-0.267676;-0.040214
0.32;3.25;3.0;1.5;2.25;0.5;1.0;0.0;0.5;0.0;0.75;0.75;0.75;1.0;0.5;0.25;0.75;-0.200684;0.03125;0.988281;-1.19;2.31;1.19;155.0;-0.164518;-0.106569;4.0;4.5;3.25;2.5;1.75;0.5;0.25;0.5;0.0;0.0;0.0;0.25;0.25;0.0;0.0;0.0;-0.232422;-0.013672;0.981934;-0.49;-0.21;0.91;171.0;-0.285885;-0.050406
0.33;3.5;3.0;1.75;2.25;0.5;1.0;0.0;0.5;0.0;1.0;1.25;0.5;1.0;0.5;0.0;0.5;-0.203125;0.036621;0.986816;-1.12;2.38;1.19;161.0;-0.170262;-0.09402;4.25;4.75;3.25;2.5;1.5;0.5;0.25;0.75;0.0;0.25;0.25;0.25;0.5;0.0;0.0;0.0;-0.224609;-0.009277;0.987793;-0.77;-0.28;0.7;184.0;-0.267479;-0.061512
0.34;3.0;3.5;1.75;2.25;0.75;1.25;0.0;0.75;0.25;1.25;1.0;0.5;1.25;0.5;0.0;0.5;-0.199707;0.03418;0.98877;-1.19;2.45;1.05;174.0;-0.154457;-0.10295;4.25;4.5;3.0;2.75;1.75;0.75;0.25;1.25;0.25;0.25;0.5;0.0;0.25;0.0;0.0;0.0;-0.232422;-0.010254;0.987793;-0.56;-0.42;0.7;194.0;-0.249967;-0.065888
0.35;4.0;3.5;1.75;2.5;1.0;1.25;0.0;0.5;0.25;1.25;1.0;0.5;1.0;0.5;0.0;0.5;-0.196777;0.035645;0.986816;-1.12;2.38;1.05;183.0;-0.174943;-0.082055;4.25;4.5;3.25;2.75;2.0;1.0;0.25;0.75;0.0;0.5;0.5;0.0;0.25;0.0;0.0;0.0;-0.227539;-0.007324;0.987305;-0.7;-0.49;0.7;194.0;-0.257606;-0.056847
0.36;4.25;4.0;2.0;2.5;0.75;0.5;0.0;0.75;0.25;1.25;0.75;1.0;1.0;0.75;0.25;0.5;-0.196777;0.027832;0.984375;-1.05;2.31;1.12;193.0;-0.164946;-0.08164;4.25;4.5;3.25;2.5;2.0;0.75;0.25;0.75;0.0;0.25;0.25;0.0;0.25;0.0;0.0;0.0;-0.228027;-0.010254;0.985352;-0.56;-0.42;0.84;185.0;-0.271308;-0.052441
0.37;3.5;3.25;1.25;2.25;0.5;0.5;0.0;0.75;0.25;1.5;0.75;0.5;0.5;0.5;0.5;0.75;-0.203125;0.026855;0.986816;-1.05;2.31;1.19;162.0;-0.146446;-0.08183;4.5;4.5;3.25;2.25;1.5;0.5;0.25;0.75;0.25;0.0;0.0;0.25;0.25;0.0;0.0;0.0;-0.234863;-0.011719;0.983398;-0.7;-0.42;0.77;178.0;-0.276769;-0.046486
0.38;2.0;3.0;1.25;2.0;0.5;0.75;0.0;0.75;0.0;1.25;0.75;0.5;0.5;0.5;0.5;0.5;-0.203613;0.03418;0.987793;-1.12;2.24;1.19;139.0;-0.133522;-0.108947;4.5;4.5;3.5;2.5;1.75;1.0;0.25;1.0;0.5;0.5;0.5;0.25;0.0;0.0;0.0;0.0;-0.227539;-0.01123;0.987305;-0.63;-0.35;0.77;204.0;-0.240059;-0.04735
0.39;3.5;3.25;1.5;2.25;0.5;1.0;0.0;0.75;0.25;1.25;1.0;0.75;0.5;0.75;0.25;0.5;-0.203125;0.031738;0.984863;-1.12;2.24;1.12;170.0;-0.148696;-0.085712;4.25;4.5;3.5;2.5;1.5;1.25;0.25;0.75;0.25;0.25;0.25;0.25;0.0;0.0;0.0;0.0;-0.227539;-0.015137;0.987305;-0.63;-0.35;0.77;191.0;-0.262204;-0.052964
0.4;4.0;3.75;1.75;2.75;0.5;1.25;0.0;0.75;0.5;1.5;1.25;0.75;0.5;0.75;0.25;0.75;-0.200684;0.032227;0.984863;-1.12;2.24;1.05;198.0;-0.147012;-0.08096;4.0;4.25;3.75;2.0;1.25;1.25;0.25;0.75;0.0;0.0;0.5;0.5;0.25;0.0;0.0;0.0;-0.229004;-0.010742;0.983398;-0.7;-0.35;0.7;183.0;-0.257527;-0.064005
0.41;4.0;3.75;2.0;3.25;0.75;1.0;0.0;0.75;0.25;1.25;1.0;1.0;0.75;0.5;0.0;1.0;-0.199219;0.033691;0.986328;-1.05;2.31;1.12;199.0;-0.168427;-0.095235;4.0;4.25;3.25;2.25;1.25;0.75;0.25;1.0;0.0;0.5;0.25;0.0;0.25;0.0;0.0;0.0;-0.228516;-0.008301;0.990723;-0.63;-0.35;0.77;176.0;-0.261777;-0.060798
0.42;4.25;3.5;1.75;2.5;0.75;0.75;0.0;1.0;0.25;1.25;1.0;0.5;1.0;0.5;0.25;0.75;-0.206055;0.037109;0.986816;-1.19;2.31;1.26;189.0;-0.162093;-0.089476;4.25;4.25;3.25;2.0;1.5;1.0;0.25;0.75;0.0;0.5;0.0;0.0;0.25;0.0;0.0;0.0;-0.230469;-0.009277;0.982422;-0.7;-0.35;0.77;175.0;-0.271438;-0.05008
0.43;4.0;3.5;1.5;2.25;0.75;0.75;0.0;0.5;0.5;1.25;1.25;0.5;0.75;0.5;0.5;0.5;-0.199707;0.03125;0.984863;-1.19;2.17;1.19;179.0;-0.148963;-0.069475;4.0;4.5;3.5;2.75;1.5;1.0;0.25;0.75;0.25;0.25;0.25;0.25;0.25;0.0;0.0;0.0;-0.231445;-0.011719;0.98877;-0.56;-0.42;0.56;190.0;-0.257695;-0.058655
0.44;4.0;3.5;1.75;2.5;1.25;1.25;0.0;0.5;0.25;1.0;1.0;0.5;0.5;0.25;0.5;0.75;-0.205566;0.035156;0.983398;-1.19;2.24;1.12;184.0;-0.174418;-0.078079;4.5;4.5;3.75;2.75;1.25;1.0;0.25;0.75;0.25;0.0;0.5;0.5;0.25;0.0;0.0;0.0;-0.231445;-0.01123;0.988281;-0.56;-0.49;0.77;197.0;-0.257402;-0.059319
0.45;4.0;2.75;1.75;3.5;1.0;0.5;0.0;0.5;0.25;0.5;0.5;1.0;0.5;0.25;0.5;0.75;-0.20166;0.036133;0.991699;-1.26;2.24;1.12;173.0;-0.185627;-0.085936;4.5;4.25;3.5;2.5;1.5;1.0;0.25;0.75;0.25;0.25;0.5;0.25;0.25;0.0;0.0;0.0;-0.234863;-0.012695;0.987793;-0.63;-0.42;0.77;193.0;-0.253139;-0.051911
0.46;4.0;3.5;1.5;3.5;0.75;0.5;0.0;0.5;0.0;0.75;0.5;0.5;0.5;0.5;0.5;0.5;-0.203125;0.031738;0.98877;-1.4;2.24;1.19;169.0;-0.204149;-0.087326;4.75;4.25;4.0;2.75;2.0;0.75;0.25;0.5;0.0;0.25;0.25;0.25;0.5;0.0;0.0;0.0;-0.233398;-0.01123;0.978516;-0.63;-0.49;0.84;198.0;-0.267159;-0.045218
0.47;4.0;3.75;1.75;3.25;0.5;0.5;0.0;0.5;0.25;0.5;1.0;0.5;0.5;0.5;0.25;0.5;-0.204102;0.032715;0.98584;-1.33;2.17;1.19;172.0;-0.202339;-0.082494;4.75;4.75;3.75;3.0;1.5;1.0;0.25;0.5;0.0;0.5;0.25;0.0;0.0;0.0;0.0;0.0;-0.228027;-0.008301;0.984863;-0.7;-0.42;0.7;196.0;-0.281423;-0.044604
0.48;4.0;3.5;2.0;3.0;0.5;0.5;0.0;0.75;0.5;0.5;0.5;0.75;0.75;0.75;0.0;0.5;-0.199707;0.029785;0.984375;-1.26;2.24;1.12;175.0;-0.191226;-0.080433;4.0;4.5;3.5;2.75;1.25;1.25;0.25;0.75;0.0;0.25;0.5;0.25;0.0;0.0;0.0;0.0;-0.224609;-0.010742;0.980469;-0.63;-0.35;0.63;188.0;-0.26464;-0.064863
0.49;4.25;2.75;2.0;3.25;0.5;1.0;0.25;0.5;0.5;1.0;0.5;1.0;0.75;0.5;0.0;0.5;-0.198242;0.033691;0.983398;-1.33;2.1;1.19;184.0;-0.174728;-0.072064;4.25;4.5;3.25;2.75;1.5;1.25;0.25;0.75;0.25;0.0;0.25;0.0;0.0;0.0;0.0;0.0;-0.225586;-0.008789;0.986328;-0.63;-0.35;0.77;186.0;-0.275068;-0.055585
0.5;3.5;3.5;2.0;2.25;0.75;0.75;0.0;0.5;0.5;1.25;1.0;1.25;0.25;0.5;0.0;0.75;-0.203613;0.032715;0.996094;-1.26;2.1;1.26;177.0;-0.154734;-0.070828;4.5;4.5;3.25;3.0;1.5;1.0;0.25;0.75;0.25;0.25;0.5;0.0;0.0;0.0;0.0;0.0;-0.232422;-0.01123;0.984863;-0.63;-0.49;0.63;193.0;-0.265812;-0.052239
0.51;3.5;3.75;1.75;2.0;0.75;0.75;0.0;0.5;0.5;2.0;1.0;1.25;0.25;0.75;0.0;0.75;-0.203125;0.03418;0.980957;-1.33;2.17;1.19;183.0;-0.132901;-0.064137;4.0;4.5;3.25;2.5;1.5;1.0;0.25;0.75;0.5;0.25;1.0;0.25;0.25;0.0;0.0;0.0;-0.229492;-0.005859;0.980469;-0.49;-0.49;0.63;195.0;-0.231544;-0.055455
0.52;4.0;3.5;1.75;2.25;0.75;1.0;0.0;0.5;0.25;1.25;0.75;0.5;0.5;0.5;0.25;0.75;-0.195801;0.032715;0.983398;-1.05;2.03;1.19;173.0;-0.175853;-0.071782;4.25;4.5;3.25;2.75;2.0;0.5;0.25;0.75;0.0;0.25;0.75;0.25;0.0;0.0;0.0;0.0;-0.23291;-0.007812;0.989258;-0.63;-0.49;0.77;190.0;-0.259062;-0.052225
0.53;4.25;3.75;2.0;2.25;1.0;0.75;0.0;0.75;0.0;1.0;1.0;0.5;0.25;0.5;0.25;0.75;-0.200684;0.033203;0.98584;-1.26;2.24;1.19;179.0;-0.19067;-0.073599;4.25;4.5;3.5;3.0;2.25;0.5;0.25;0.75;0.0;0.5;0.5;0.25;0.0;0.0;0.0;0.0;-0.231445;-0.006348;0.97998;-0.63;-0.56;0.63;197.0;-0.257669;-0.048973
0.54;4.0;4.0;2.0;3.5;0.75;1.0;0.0;0.75;0.0;1.25;1.0;0.5;0.25;0.5;0.25;0.5;-0.207031;0.036621;0.984375;-1.33;2.24;1.12;192.0;-0.195453;-0.087823;4.0;4.25;4.0;2.5;1.75;0.5;0.25;0.75;0.0;0.25;0.5;0.25;0.25;0.0;0.0;0.0;-0.225586;-0.009277;0.98584;-0.7;-0.42;0.7;188.0;-0.258779;-0.049954
0.55;4.0;4.0;2.0;3.5;0.75;1.25;0.25;0.75;0.0;1.25;0.75;0.5;0.5;0.25;0.0;0.5;-0.202637;0.035156;0.98584;-1.26;2.24;1.26;193.0;-0.20505;-0.090507;4.0;4.5;3.75;2.75;1.5;0.5;0.25;0.5;0.0;0.25;0.25;0.25;0.25;0.0;0.0;0.0;-0.22998;-0.010742;0.985352;-0.56;-0.49;0.7;181.0;-0.273892;-0.0498
0.56;4.0;3.75;2.0;3.25;0.75;1.0;0.25;1.0;0.25;1.25;0.5;1.0;0.5;0.25;0.0;0.75;-0.199219;0.040039;0.986328;-1.33;2.31;1.12;196.0;-0.183435;-0.091589;4.25;4.5;3.25;2.5;1.25;0.5;0.5;0.5;0.0;0.5;0.25;0.25;0.0;0.0;0.0;0.0;-0.231445;-0.006348;0.97998;-0.63;-0.49;0.7;177.0;-0.268899;-0.038883
0.57;4.25;3.75;2.25;3.0;0.5;0.75;0.25;0.5;0.25;3.25;0.25;1.25;0.5;0.5;0.0;1.0;-0.206543;0.030273;0.986328;-1.33;2.31;1.19;209.0;-0.145206;-0.061946;4.25;4.5;3.25;2.25;1.25;0.75;0.25;0.5;0.0;0.25;0.25;0.25;0.0;0.0;0.0;0.0;-0.231445;-0.008789;0.990234;-0.56;-0.35;0.7;171.0;-0.281095;-0.046703
0.58;4.25;3.5;2.25;3.5;0.5;1.0;0.25;0.5;0.5;1.75;0.5;1.0;0.5;0.25;0.0;1.0;-0.200195;0.03418;0.986328;-1.12;2.17;1.19;201.0;-0.172622;-0.071613;4.75;4.25;3.5;2.75;1.5;0.5;0.25;0.5;0.0;0.25;0.25;0.25;0.5;0.0;0.0;0.0;-0.233398;-0.01123;0.984863;-0.56;-0.42;0.77;186.0;-0.272581;-0.048747
0.59;4.25;3.5;2.25;3.0;0.75;1.25;0.25;0.75;0.25;1.25;0.5;1.0;0.5;0.25;0.0;0.75;-0.201172;0.032715;0.98584;-1.33;2.38;1.19;196.0;-0.185965;-0.081266;4.75;4.25;3.75;3.0;1.75;0.5;0.25;0.5;0.0;0.25;0.25;0.0;0.5;0.0;0.0;0.0;-0.233398;-0.007812;0.984863;-0.56;-0.42;0.77;191.0;-0.276838;-0.044645
0.6;4.25;3.5;1.75;2.75;0.5;1.25;0.25;0.5;0.25;2.5;0.75;1.0;0.5;0.25;0.25;1.0;-0.201172;0.033203;0.982422;-1.26;2.17;1.12;200.0;-0.145587;-0.073457;4.5;4.5;3.25;2.0;1.75;0.5;0.25;0.5;0.0;0.25;0.25;0.25;0.25;0.0;0.0;0.0;-0.225586;-0.010254;0.97998;-0.56;-0.42;0.7;176.0;-0.274916;-0.040488
0.61;4.0;3.5;1.5;2.75;0.75;1.5;0.0;0.5;0.25;1.75;0.75;1.25;0.5;0.5;0.0;1.0;-0.201172;0.03125;0.980469;-1.33;2.17;1.19;191.0;-0.155938;-0.089707;4.25;4.5;3.0;2.25;1.5;0.5;0.25;0.5;0.0;0.0;0.25;0.0;0.25;0.0;0.0;0.0;-0.236816;-0.01123;0.979492;-0.49;-0.49;0.7;166.0;-0.290092;-0.046719
0.62;4.25;4.0;2.0;3.0;0.5;1.5;0.0;0.5;0.0;1.25;0.75;0.75;0.75;0.5;0.0;0.75;-0.200684;0.033691;0.991699;-1.26;2.24;1.12;191.0;-0.195279;-0.094649;4.25;4.25;3.5;2.5;1.0;0.5;0.25;0.5;0.0;0.0;0.25;0.0;0.25;0.0;0.0;0.0;-0.228027;-0.01123;0.98291;-0.63;-0.56;0.84;167.0;-0.292666;-0.046983
0.63;4.25;4.0;2.0;2.75;0.5;1.25;0.0;0.5;0.25;1.25;1.25;0.5;0.5;0.5;0.25;0.75;-0.20166;0.035645;0.988281;-1.19;2.24;1.19;192.0;-0.178382;-0.078928;4.0;4.5;3.25;2.5;0.75;1.0;0.25;0.5;0.0;0.25;0.25;0.25;0.25;0.0;0.0;0.0;-0.22998;-0.013184;0.988281;-0.63;-0.56;0.7;171.0;-0.276947;-0.062764
0.64;4.25;3.75;2.0;2.75;0.5;1.25;0.0;0.5;0.25;1.5;1.0;1.0;0.5;0.25;0.25;1.0;-0.197266;0.036621;0.984375;-1.26;2.17;1.12;194.0;-0.168503;-0.085254;4.25;4.75;3.25;2.5;1.25;0.5;0.25;0.5;0.0;0.25;0.25;0.0;0.0;0.0;0.0;0.0;-0.231934;-0.008789;0.988281;-0.56;-0.49;0.63;171.0;-0.291642;-0.043985
0.65;4.25;3.75;1.75;3.0;0.75;1.25;0.25;0.75;0.25;1.5;0.75;0.5;0.5;0.25;0.25;0.5;-0.200684;0.03125;0.98877;-1.4;2.24;1.19;194.0;-0.182014;-0.078505;4.25;4.5;3.25;2.5;1.25;0.25;0.25;0.5;0.0;0.25;0.5;0.0;0.0;0.0;0.0;0.0;-0.228027;-0.012207;0.981445;-0.63;-0.42;0.7;169.0;-0.284806;-0.040113
0.66;4.25;3.5;1.75;2.25;0.75;1.5;0.25;0.5;0.25;1.75;0.5;0.5;0.5;0.25;0.0;0.5;-0.197266;0.031738;0.985352;-1.33;2.31;1.12;181.0;-0.18546;-0.06562;4.5;4.5;3.25;2.5;1.25;0.5;0.25;0.5;0.0;0.25;0.5;0.25;0.25;0.0;0.0;0.0;-0.231934;-0.003906;0.985352;-0.7;-0.42;0.77;178.0;-0.272761;-0.049559
0.67;4.0;3.5;1.75;3.0;1.0;1.5;0.25;0.5;0.25;1.25;0.5;0.5;0.75;0.25;0.25;0.5;-0.19873;0.028809;0.986816;-1.33;2.17;1.19;188.0;-0.185399;-0.080183;4.5;4.5;3.75;2.25;1.25;0.5;0.25;0.75;0.0;0.0;0.5;0.25;0.25;0.0;0.0;0.0;-0.232422;-0.010742;0.983398;-0.63;-0.49;0.63;182.0;-0.274084;-0.051268
0.68;4.0;3.5;2.0;3.5;1.0;1.5;0.25;0.75;0.25;1.25;0.75;0.5;0.5;0.0;0.0;0.5;-0.204102;0.033691;0.986328;-1.19;2.17;1.12;195.0;-0.197888;-0.086334;4.5;4.5;3.75;2.25;1.5;0.75;0.25;0.75;0.0;0.25;0.5;0.25;0.0;0.0;0.0;0.0;-0.233398;-0.007324;0.986816;-0.63;-0.35;0.77;187.0;-0.26866;-0.046872
0.69;4.25;4.0;2.0;3.25;1.0;1.5;0.25;0.75;0.25;0.75;0.75;1.0;0.5;0.25;0.0;0.5;-0.202637;0.03418;0.988281;-1.19;2.1;1.33;201.0;-0.198444;-0.089987;4.0;4.5;3.75;2.25;1.25;1.0;0.25;0.75;0.0;0.25;0.5;0.25;0.25;0.0;0.0;0.0;-0.227051;-0.014648;0.984375;-0.63;-0.35;0.77;185.0;-0.260855;-0.059865
0.7;4.25;4.0;2.0;3.5;1.0;1.25;0.25;0.5;0.0;0.75;0.75;0.5;0.75;0.5;0.0;0.75;-0.20166;0.034668;0.98584;-1.12;2.1;1.19;195.0;-0.207096;-0.087067;4.25;4.25;3.25;2.5;1.25;0.25;0.25;0.75;0.0;0.0;0.5;0.5;0.25;0.0;0.0;0.0;-0.226074;-0.008789;0.990723;-0.63;-0.42;0.63;175.0;-0.266125;-0.058868
0.71;4.25;4.0;2.25;3.25;0.75;1.25;0.25;0.5;0.0;0.5;1.0;0.5;0.5;0.25;0.25;0.75;-0.199707;0.036133;0.984863;-1.26;2.52;1.05;191.0;-0.210537;-0.085827;4.0;4.5;3.5;2.75;1.5;0.25;0.25;0.75;0.0;0.25;0.5;0.25;0.0;0.0;0.0;0.0;-0.229004;-0.007812;0.986328;-0.63;-0.42;0.7;180.0;-0.268908;-0.051609
0.72;4.25;4.0;2.25;3.0;0.75;1.25;0.25;0.5;0.0;0.5;1.25;1.0;0.5;0.0;0.0;0.75;-0.197754;0.032227;0.988281;-1.12;2.17;1.19;192.0;-0.207642;-0.092398;4.0;4.5;3.25;3.0;1.25;0.5;0.25;0.5;0.25;0.25;0.5;0.0;0.0;0.0;0.0;0.0;-0.228516;-0.010254;0.98877;-0.7;-0.49;0.84;177.0;-0.272293;-0.045293
0.73;4.5;4.0;1.75;3.0;1.0;1.25;0.25;0.5;0.25;1.0;1.25;0.5;0.25;0.0;0.0;0.75;-0.202148;0.03418;0.983887;-1.26;2.24;1.12;192.0;-0.203497;-0.074227;4.25;4.5;3.25;2.75;1.25;0.75;0.25;0.5;0.25;0.25;0.5;0.0;0.25;0.0;0.0;0.0;-0.22998;-0.005859;0.987305;-0.7;-0.35;0.7;181.0;-0.267292;-0.048495
0.74;4.25;4.0;1.75;3.0;1.0;1.5;0.0;0.5;0.25;1.0;1.0;0.5;0.25;0.5;0.25;0.5;-0.205078;0.033203;0.984863;-1.19;2.17;1.05;191.0;-0.194309;-0.07772;4.5;4.5;3.5;2.75;1.25;0.5;0.25;0.75;0.0;0.0;0.5;0.25;0.5;0.0;0.0;0.0;-0.228516;-0.008301;0.983887;-0.77;-0.42;0.7;186.0;-0.269822;-0.062254
0.75;4.0;4.0;2.0;3.25;1.0;1.25;0.0;0.75;0.25;1.0;1.0;0.5;0.5;0.5;0.25;0.5;-0.199707;0.034668;0.984863;-1.26;2.31;1.05;197.0;-0.187552;-0.086628;4.25;4.5;3.25;3.0;1.25;0.5;0.25;0.75;0.0;0.0;0.0;0.0;0.25;0.0;0.0;0.0;-0.229492;-0.01123;0.983398;-0.7;-0.35;0.7;175.0;-0.293534;-0.05987
0.76;4.0;3.75;2.0;3.25;1.25;1.25;0.25;0.75;0.25;1.25;1.25;0.25;0.5;0.5;0.25;0.5;-0.202148;0.030273;0.981445;-1.19;2.24;1.19;203.0;-0.174654;-0.074444;4.25;4.5;3.25;3.0;1.25;0.5;0.25;0.75;0.0;0.25;0.25;0.0;0.0;0.0;0.0;0.0;-0.22998;-0.005859;0.981934;-0.7;-0.42;0.7;178.0;-0.284578;-0.054456
0.77;4.0;3.75;2.0;3.5;0.75;1.25;0.25;0.75;0.25;1.0;1.25;0.5;0.75;0.5;0.25;0.5;-0.205078;0.031738;0.979492;-1.19;2.17;1.19;203.0;-0.174196;-0.087719;4.25;4.5;3.5;3.0;1.25;0.5;0.25;1.0;0.0;0.25;0.25;0.0;0.25;0.0;0.0;0.0;-0.228516;-0.010254;0.987305;-0.63;-0.49;0.84;186.0;-0.274339;-0.063173
0.78;4.0;3.75;2.0;3.5;0.75;1.5;0.25;0.75;0.25;0.75;1.0;0.5;0.75;0.25;0.0;0.75;-0.198242;0.038574;0.987793;-1.19;2.17;1.26;198.0;-0.193289;-0.095652;4.5;4.5;3.75;2.25;1.25;0.5;0.25;0.5;0.0;0.5;0.5;0.0;0.25;0.0;0.0;0.0;-0.22998;-0.006836;0.984863;-0.7;-0.35;0.77;181.0;-0.272032;-0.038429
0.79;3.75;3.75;2.0;3.5;0.75;1.5;0.25;1.0;0.25;1.0;1.0;1.0;0.75;0.5;0.0;1.0;-0.200684;0.035156;0.983887;-1.33;2.24;1.19;209.0;-0.16472;-0.104438;4.25;4.5;3.5;2.0;1.25;0.5;0.25;0.5;0.0;0.5;0.25;0.25;0.0;0.0;0.0;0.0;-0.231445;-0.005859;0.986816;-0.7;-0.35;0.63;171.0;-0.275402;-0.037255
0.8;4.0;3.75;2.0;3.5;0.75;1.25;0.25;0.75;0.5;1.25;1.0;0.75;0.5;0.5;0.0;1.0;-0.199219;0.034668;0.98877;-1.12;2.38;1.19;206.0;-0.166993;-0.082009;4.25;4.5;3.5;2.0;1.5;0.75;0.25;0.5;0.0;0.25;0.0;0.0;0.0;0.0;0.0;0.0;-0.227539;-0.011719;0.988281;-0.63;-0.35;0.63;169.0;-0.292616;-0.035879
0.81;4.25;4.0;2.75;3.5;1.0;1.25;0.25;0.5;0.25;1.0;1.0;1.0;0.5;0.5;0.25;1.0;-0.196777;0.030273;0.989746;-1.19;2.31;1.12;217.0;-0.177196;-0.076969;4.25;4.5;3.25;2.75;1.25;0.75;0.25;0.5;0.0;0.0;0.0;0.0;0.25;0.0;0.0;0.0;-0.227051;-0.010254;0.989258;-0.77;-0.21;0.63;171.0;-0.297275;-0.053812
0.82;4.25;4.0;2.75;3.5;1.0;1.25;0.25;0.5;0.0;1.0;1.25;0.5;0.5;0.75;0.0;1.0;-0.198242;0.030762;0.98584;-1.12;2.31;1.19;211.0;-0.188823;-0.074978;4.25;4.5;3.0;3.25;1.25;1.0;0.25;0.5;0.0;0.25;0.5;0.25;0.25;0.0;0.0;0.0;-0.223633;-0.007812;0.986816;-0.63;-0.28;0.7;186.0;-0.26857;-0.066561
0.83;4.25;4.0;2.0;3.75;1.0;1.5;0.25;0.5;0.0;0.75;1.25;0.5;0.25;0.5;0.25;0.5;-0.204102;0.034668;0.99707;-1.19;2.24;1.26;202.0;-0.200757;-0.082899;4.5;4.5;3.25;3.0;1.5;0.5;0.25;0.5;0.0;0.25;0.5;0.0;0.25;0.0;0.0;0.0;-0.226562;-0.007324;0.987305;-0.63;-0.28;0.84;183.0;-0.27749;-0.049597
0.84;4.5;4.0;2.0;3.25;1.0;1.25;0.25;0.75;0.25;0.75;0.5;0.5;0.5;0.5;0.25;0.5;-0.204102;0.027344;0.98584;-1.05;2.17;1.19;198.0;-0.203117;-0.077269;4.25;4.5;3.0;2.25;1.0;0.5;0.25;0.75;0.0;0.25;0.5;0.0;0.5;0.0;0.0;0.0;-0.231445;-0.011719;0.980957;-0.7;-0.35;0.7;171.0;-0.26937;-0.061145
0.85;4.5;4.0;2.0;3.0;1.0;1.25;0.25;0.75;0.25;1.0;0.5;0.5;0.5;0.5;0.25;0.5;-0.201172;0.032715;0.983887;-1.19;2.24;1.19;198.0;-0.196722;-0.073705;4.25;4.5;3.25;2.25;1.0;0.75;0.25;0.5;0.0;0.0;0.5;0.0;0.25;0.0;0.0;0.0;-0.230469;-0.006836;0.980957;-0.7;-0.21;0.7;169.0;-0.285265;-0.052199
0.86;4.25;4.0;2.0;3.0;1.0;1.25;0.25;0.75;0.0;1.25;1.0;0.5;0.5;0.5;0.0;0.5;-0.202637;0.03125;0.991211;-1.19;2.03;1.26;197.0;-0.192985;-0.08043;4.0;4.5;3.25;2.5;1.25;0.75;0.25;0.5;0.0;0.0;0.5;0.25;0.25;0.0;0.0;0.0;-0.229004;-0.008789;0.987793;-0.7;-0.28;0.77;174.0;-0.274502;-0.058631
0.87;4.25;4.0;2.0;3.5;0.5;1.5;0.0;0.75;0.25;1.25;0.75;0.75;0.5;0.5;0.0;0.5;-0.197266;0.035645;0.983887;-1.05;2.1;1.19;200.0;-0.194759;-0.092529;4.0;4.5;3.0;2.0;1.25;0.75;0.25;0.5;0.0;0.0;0.25;0.0;0.0;0.0;0.0;0.0;-0.226562;-0.013184;0.986328;-0.63;-0.28;0.7;159.0;-0.294645;-0.046268
0.88;4.5;4.0;2.0;3.5;0.5;1.25;0.0;0.75;0.0;1.0;1.0;1.0;0.5;0.75;0.0;0.5;-0.200684;0.032227;0.988281;-1.12;2.1;1.12;201.0;-0.193851;-0.095333;4.25;4.5;3.25;2.0;1.25;1.0;0.25;0.5;0.0;0.5;0.5;0.0;0.0;0.0;0.0;0.0;-0.234375;-0.008301;0.985352;-0.63;-0.28;0.84;174.0;-0.271847;-0.043352
0.89;4.5;4.0;2.75;4.0;1.0;1.25;0.0;0.75;0.0;1.0;0.75;0.5;0.5;0.75;0.0;0.75;-0.200684;0.033691;0.98584;-1.05;2.03;1.33;212.0;-0.207644;-0.084538;4.25;4.5;3.75;2.0;1.5;1.0;0.25;0.5;0.0;0.0;0.25;0.25;0.0;0.0;0.0;0.0;-0.231445;-0.005859;0.987305;-0.63;-0.35;0.7;177.0;-0.283542;-0.043383
0.9;4.5;4.0;3.0;4.0;0.5;0.75;0.25;0.75;0.25;1.0;1.0;0.75;0.75;0.25;0.0;0.75;-0.20459;0.035645;0.989746;-1.19;2.03;1.26;214.0;-0.19865;-0.082195;4.25;4.25;3.75;2.25;1.0;0.75;0.25;0.5;0.0;0.0;0.0;0.0;0.25;0.0;0.0;0.0;-0.230469;-0.009766;0.979004;-0.63;-0.28;0.7;167.0;-0.297675;-0.044602
0.91;4.5;4.0;2.5;3.25;0.5;0.75;0.25;0.75;0.0;1.0;1.0;0.5;0.5;0.25;0.0;0.75;-0.203613;0.035156;0.987305;-1.12;2.03;1.26;194.0;-0.209293;-0.080123;4.25;4.25;3.5;2.0;0.75;0.5;0.25;0.5;0.0;0.25;0.25;0.0;0.25;0.0;0.0;0.0;-0.231445;-0.008789;0.987305;-0.7;-0.49;0.84;162.0;-0.287576;-0.041508
0.92;4.0;4.0;2.0;3.25;0.75;1.25;0.25;0.75;0.0;1.25;1.0;0.5;0.5;0.25;0.0;0.75;-0.200684;0.034668;0.989746;-1.05;2.1;1.19;194.0;-0.195046;-0.090518;4.25;4.5;3.25;2.25;1.0;0.5;0.0;0.5;0.0;0.25;0.5;0.0;0.25;0.0;0.0;0.0;-0.231445;-0.009766;0.987305;-0.56;-0.35;0.7;165.0;-0.287417;-0.053426
0.93;4.25;4.25;2.5;4.0;0.75;1.25;0.25;0.75;0.0;0.5;1.0;0.75;0.5;0.25;0.25;0.75;-0.200684;0.038574;0.98584;-1.26;2.1;1.26;209.0;-0.207919;-0.097002;4.0;4.5;4.0;2.5;1.0;0.5;0.25;0.5;0.0;0.25;0.5;0.0;0.0;0.0;0.0;0.0;-0.22998;-0.007812;0.98877;-0.49;-0.21;0.77;174.0;-0.28275;-0.041236
0.94;4.25;4.5;2.5;4.0;1.0;1.25;0.25;0.5;0.0;0.5;1.25;0.5;0.75;0.5;0.0;1.0;-0.202637;0.032227;0.982422;-1.12;2.17;1.26;213.0;-0.206468;-0.091307;4.0;4.5;3.25;2.0;1.25;0.5;0.25;0.5;0.0;0.25;0.5;0.0;0.0;0.0;0.0;0.0;-0.22998;-0.012207;0.98584;-0.63;-0.28;0.84;164.0;-0.281001;-0.040143
0.95;4.5;4.25;2.75;4.0;0.75;1.5;0.25;0.5;0.25;0.5;1.25;0.5;0.5;0.5;0.0;1.0;-0.202148;0.03125;0.989258;-1.33;2.1;1.33;217.0;-0.204658;-0.081671;4.0;4.5;3.25;2.0;1.25;0.5;0.25;0.5;0.0;0.5;0.5;0.25;0.0;0.0;0.0;0.0;-0.226562;-0.008301;0.977539;-0.63;-0.42;0.77;169.0;-0.266654;-0.04233
0.96;4.25;4.25;2.25;3.5;0.75;1.5;0.25;1.0;0.25;0.75;1.25;0.5;0.5;0.5;0.25;0.5;-0.200684;0.032227;0.98584;-1.33;2.03;1.19;214.0;-0.187535;-0.090273;4.0;4.25;3.25;2.5;1.25;0.75;0.25;0.75;0.0;0.5;0.5;0.25;0.25;0.0;0.0;0.0;-0.230469;-0.007324;0.986816;-0.63;-0.42;0.7;180.0;-0.254144;-0.060573
0.97;4.75;4.5;2.0;3.5;1.0;1.5;0.25;0.75;0.25;1.0;1.25;0.5;0.25;0.5;0.25;0.25;-0.203613;0.033691;0.987305;-1.26;1.96;1.19;216.0;-0.197417;-0.075746;4.25;4.5;2.75;2.25;1.0;1.0;0.25;0.5;0.0;0.25;0.5;0.0;0.25;0.0;0.0;0.0;-0.231445;-0.008789;0.987305;-0.63;-0.42;0.77;168.0;-0.276472;-0.058112
0.98;4.75;4.5;2.5;4.0;1.0;1.5;0.25;0.5;0.25;1.25;0.75;0.5;0.25;0.5;0.25;0.5;-0.202148;0.033203;0.982422;-1.26;1.89;1.26;222.0;-0.205233;-0.069335;4.25;4.5;2.75;1.5;1.0;0.25;0.25;0.5;0.0;0.0;0.5;0.25;0.25;0.0;0.0;0.0;-0.22998;-0.013672;0.984375;-0.77;-0.49;0.7;153.0;-0.282346;-0.045109
0.99;5.0;4.5;2.75;4.0;1.0;1.75;0.25;0.5;0.5;1.25;0.75;0.75;0.5;0.5;0.0;0.25;-0.20459;0.030273;0.989258;-1.19;1.89;1.26;233.0;-0.203291;-0.067804;4.25;4.5;3.25;1.5;1.25;0.0;0.25;0.5;0.0;0.25;0.5;0.0;0.25;0.0;0.0;0.0;-0.229492;-0.007324;0.994629;-0.77;-0.42;0.77;158.0;-0.280997;-0.030065
1.0;4.75;4.5;2.75;4.0;1.0;2.0;0.25;0.75;0.5;1.0;0.75;0.25;0.75;0.5;0.25;0.5;-0.203125;0.034668;0.983398;-1.26;1.82;1.26;235.0;-0.198432;-0.078006;4.25;4.25;3.25;2.0;1.0;0.25;0.25;0.5;0.0;0.25;0.25;0.0;0.25;0.0;0.0;0.0;-0.226562;-0.012695;0.984863;-0.7;-0.56;0.7;159.0;-0.287486;-0.038363
1.01;4.5;4.25;2.75;4.0;1.25;2.0;0.25;0.5;0.25;1.0;0.75;0.5;0.5;0.25;0.0;0.5;-0.199707;0.031738;0.992188;-1.19;2.03;1.19;222.0;-0.213207;-0.078544;4.5;4.5;3.5;2.25;1.0;0.5;0.25;0.5;0.0;0.0;0.5;0.0;0.25;0.0;0.0;0.0;-0.235352;-0.008789;0.983887;-0.7;-0.28;0.7;171.0;-0.28854;-0.044647
1.02;4.5;4.25;2.5;4.0;1.25;1.25;0.25;0.5;0.0;1.25;1.0;0.75;0.5;0.0;0.0;0.5;-0.200684;0.038086;0.989746;-1.26;2.1;1.26;215.0;-0.212275;-0.082311;4.75;4.5;3.25;2.25;1.5;0.5;0.25;0.5;0.0;0.0;0.25;0.0;0.25;0.0;0.0;0.0;-0.22998;-0.006348;0.986328;-0.63;-0.28;0.77;173.0;-0.292821;-0.040471
1.03;4.25;4.5;3.0;4.25;1.0;2.0;0.25;0.5;0.0;1.25;1.25;0.75;0.5;0.0;0.25;0.5;-0.203125;0.032227;0.983887;-1.19;2.31;1.19;232.0;-0.202195;-0.090827;4.25;4.5;3.25;2.25;1.25;0.5;0.25;0.5;0.0;0.0;0.0;0.0;0.0;0.0;0.0;0.0;-0.22998;-0.007812;0.986816;-0.63;-0.14;0.7;162.0;-0.305556;-0.040114
1.04;4.25;4.25;2.75;4.25;0.75;2.0;0.25;0.75;0.0;1.25;1.25;0.75;0.25;0.25;0.0;0.25;-0.202148;0.035645;0.984375;-1.19;2.31;1.33;224.0;-0.205025;-0.091758;4.5;4.5;3.25;2.25;1.0;0.25;0.25;0.5;0.0;0.5;0.25;0.0;0.0;0.0;0.0;0.0;-0.232422;-0.007812;0.983887;-0.56;-0.21;0.7;166.0;-0.288699;-0.03416
1.05;4.25;3.5;2.25;4.0;1.0;2.0;0.25;0.75;0.25;1.25;0.5;0.75;0.25;0.5;0.0;0.5;-0.201172;0.03125;0.984863;-1.05;2.45;1.33;212.0;-0.19441;-0.083351;4.25;4.5;3.0;2.0;1.25;0.5;0.25;0.5;0.0;0.5;0.25;0.0;0.25;0.0;0.0;0.0;-0.219727;-0.004395;0.989258;-0.63;-0.14;0.7;166.0;-0.277412;-0.042489
1.06;4.5;4.25;2.25;4.25;1.0;2.0;0.25;1.0;0.25;1.25;0.25;0.75;0.5;0.5;0.0;0.5;-0.200195;0.034668;0.987305;-0.98;2.45;1.4;226.0;-0.202274;-0.09295;4.25;4.5;3.5;1.75;1.0;0.5;0.25;0.5;0.0;0.25;0.25;0.0;0.5;0.0;0.0;0.0;-0.233398;-0.012695;0.983398;-0.63;-0.07;0.77;166.0;-0.281254;-0.043814
1.07;4.75;4.5;2.75;4.25;1.25;2.0;0.25;1.0;0.25;1.5;0.5;0.75;0.75;0.5;0.0;0.5;-0.203613;0.038086;0.983887;-1.12;2.38;1.33;245.0;-0.195081;-0.087955;4.0;4.5;3.5;2.0;1.0;0.25;0.25;0.5;0.0;0.0;0.0;0.0;0.5;0.0;0.0;0.0;-0.231934;-0.012695;0.98877;-0.56;-0.21;0.77;158.0;-0.297045;-0.045892
1.08;4.5;4.5;2.75;4.0;1.25;1.75;0.25;1.25;0.25;1.25;1.0;1.0;0.5;0.5;0.25;0.75;-0.199219;0.033203;0.980957;-1.05;2.52;1.26;248.0;-0.17639;-0.092949;4.0;4.5;3.25;2.25;1.25;0.25;0.25;0.75;0.0;0.0;0.0;0.25;0.0;0.0;0.0;0.0;-0.230469;-0.010742;0.985352;-0.56;-0.21;0.77;163.0;-0.292587;-0.050019
1.09;4.25;3.75;2.5;4.0;1.25;2.0;0.25;1.0;0.0;1.25;0.75;1.0;0.5;0.5;0.25;0.25;-0.194336;0.03418;0.990723;-0.98;2.38;1.33;228.0;-0.184421;-0.094631;3.75;4.5;3.25;1.75;1.0;0.5;0.25;0.75;0.0;0.0;0.25;0.0;0.0;0.0;0.0;0.0;-0.229004;-0.006836;0.984863;-0.63;-0.07;0.7;155.0;-0.291324;-0.049361
1.1;4.25;4.25;2.75;4.0;1.25;2.0;0.25;1.0;0.25;1.0;0.5;1.25;0.75;0.5;0.0;0.25;-0.202148;0.036133;0.983887;-0.91;2.45;1.33;235.0;-0.19138;-0.09591;4.0;4.25;3.25;1.0;1.0;0.5;0.0;0.75;0.0;0.25;0.25;0.0;0.0;0.0;0.0;0.0;-0.222656;-0.010254;0.986816;-0.7;-0.21;0.63;147.0;-0.291734;-0.04125
1.11;4.25;4.5;2.5;4.25;1.0;1.5;0.25;1.0;0.0;1.0;1.0;1.25;0.5;0.5;0.0;0.5;-0.203125;0.027344;0.982422;-0.98;2.38;1.26;230.0;-0.192506;-0.101143;4.0;4.5;3.5;1.0;0.75;0.5;0.25;0.5;0.0;0.25;0.25;0.0;0.0;0.0;0.0;0.0;-0.231445;-0.003418;0.983398;-0.7;-0.21;0.63;149.0;-0.293666;-0.027708
1.12;4.5;4.5;2.25;4.0;1.0;1.25;0.25;1.25;0.25;1.25;1.25;1.25;0.5;0.0;0.25;0.5;-0.20166;0.040039;0.988281;-0.98;2.45;1.12;235.0;-0.180102;-0.100393;4.25;4.5;2.75;1.5;0.75;0.25;0.25;0.75;0.0;0.0;0.25;0.0;0.25;0.0;0.0;0.0;-0.232422;-0.013184;0.987305;-0.7;-0.28;0.7;150.0;-0.294777;-0.049779
1.13;4.75;4.5;2.5;4.0;1.25;1.5;0.25;0.75;0.25;1.25;1.25;1.25;0.75;0.5;0.0;0.5;-0.204102;0.033203;0.990723;-1.12;2.38;1.19;241.0;-0.180568;-0.086696;4.25;4.375;2.75;1.5;0.875;0.375;0.25;0.75;0.0;0.125;0.25;0.125;0.25;0.0;0.0;0.0;-0.229248;-0.011230500000000001;0.986084;-0.735;-0.28;0.735;153.5;-0.28356349999999997;-0.0509055
1.14;4.25;4.0;2.0;3.5;1.0;2.0;0.25;0.75;0.0;1.25;1.25;1.25;0.75;0.25;0.25;0.75;-0.208496;0.037598;0.985352;-1.05;2.52;1.19;223.0;-0.168704;-0.104442;4.25;4.25;2.75;1.5;1.0;0.5;0.25;0.75;0.0;0.25;0.25;0.25;0.25;0.0;0.0;0.0;-0.226074;-0.009277;0.984863;-0.77;-0.28;0.77;157.0;-0.27235;-0.052032
1.15;4.25;4.0;2.5;3.75;1.0;2.0;0.0;0.75;0.25;1.25;1.25;0.5;1.0;0.25;0.25;0.5;-0.19873;0.033203;0.984863;-1.05;2.38;1.26;224.0;-0.182581;-0.097554;4.5;3.0;3.25;1.75;1.25;0.25;0.25;0.5;0.0;0.5;0.25;0.0;0.25;0.0;0.0;0.0;-0.228516;-0.008789;0.983398;-0.84;-0.28;0.56;153.0;-0.269547;-0.021034
1.16;4.25;4.0;2.5;3.5;1.0;2.0;0.25;1.0;0.25;1.25;1.25;0.5;1.0;0.5;0.0;0.5;-0.19873;0.03125;0.986816;-1.12;2.52;1.05;228.0;-0.175958;-0.093244;4.25;3.75;3.25;2.0;1.25;0.25;0.25;0.5;0.0;0.25;0.5;0.0;0.0;0.0;0.0;0.0;-0.230957;-0.012695;0.990723;-0.7;-0.28;0.7;158.0;-0.279437;-0.029188
1.17;4.5;4.0;2.5;3.75;0.75;2.25;0.25;1.25;0.25;1.25;1.25;0.5;1.0;0.25;0.25;0.5;-0.201172;0.035156;0.987305;-1.12;2.66;1.12;237.0;-0.176204;-0.102653;4.25;4.25;2.5;2.0;1.0;0.25;0.25;0.5;0.0;0.0;0.5;0.0;0.0;0.0;0.0;0.0;-0.232422;-0.005371;0.991211;-0.77;-0.28;0.63;149.0;-0.294894;-0.042128
1.18;4.75;4.25;2.5;4.0;0.75;2.0;0.25;1.25;0.5;1.25;1.0;0.0;1.0;0.0;0.0;0.75;-0.193359;0.031738;0.983398;-0.84;2.52;1.19;234.0;-0.19672;-0.09532;4.0;4.25;2.75;2.0;0.75;0.0;0.25;0.5;0.0;0.0;0.5;0.0;0.0;0.0;0.0;0.0;-0.230469;-0.008301;0.979004;-0.7;-0.14;0.63;145.0;-0.297999;-0.040106
1.19;4.5;4.25;2.5;4.0;1.0;2.0;0.25;1.25;0.25;1.25;0.75;0.5;1.0;0.25;0.5;0.5;-0.19873;0.03418;0.981445;-0.91;2.73;1.19;239.0;-0.181366;-0.100528;4.25;4.25;2.75;2.0;1.0;0.25;0.25;0.5;0.0;0.0;0.5;0.0;0.25;0.0;0.0;0.0;-0.233887;-0.006836;0.987793;-0.77;-0.28;0.7;154.0;-0.288389;-0.045384
1.2;4.25;4.25;2.5;3.5;1.25;2.0;0.25;1.25;0.25;1.5;1.0;0.5;1.0;0.5;0.25;0.5;-0.206543;0.031738;0.986816;-0.84;2.73;1.19;238.0;-0.169137;-0.094707;4.0;4.5;2.75;2.0;0.75;0.5;0.25;0.5;0.0;0.0;0.5;0.0;0.0;0.0;0.0;0.0;-0.226074;-0.008789;0.988281;-0.56;-0.21;0.77;152.0;-0.294862;-0.049496
1.21;4.25;4.0;1.75;3.5;1.25;2.0;0.25;1.25;0.25;1.25;0.75;0.5;0.75;0.5;0.25;0.5;-0.200684;0.034668;0.986328;-0.7;2.66;1.12;222.0;-0.175159;-0.098553;4.0;4.25;3.25;2.0;0.75;0.25;0.25;0.5;0.0;0.25;0.5;0.0;0.0;0.0;0.0;0.0;-0.22998;-0.008789;0.98291;-0.63;-0.14;0.63;154.0;-0.286287;-0.037978
1.22;4.25;4.0;2.0;3.5;1.25;1.75;0.0;1.25;0.5;1.25;1.0;0.5;0.75;0.5;0.25;0.5;-0.197754;0.029297;0.986328;-0.77;2.87;1.26;224.0;-0.170364;-0.094985;4.0;4.25;3.25;2.0;0.75;0.25;0.25;0.25;0.0;0.25;0.5;0.0;0.0;0.0;0.0;0.0;-0.231445;-0.011719;0.987305;-0.7;-0.14;0.7;151.0;-0.292594;-0.029833
1.23;4.25;4.0;2.5;3.5;1.25;2.0;0.25;0.75;0.25;1.0;1.25;0.5;1.0;0.5;0.25;1.0;-0.19873;0.032227;0.988281;-0.84;2.94;1.19;229.0;-0.170224;-0.090939;4.0;4.0;3.25;2.0;0.75;0.5;0.25;0.25;0.0;0.5;0.25;0.0;0.0;0.0;0.0;0.0;-0.227539;-0.005859;0.990723;-0.7;-0.21;0.84;151.0;-0.288387;-0.029099
1.24;3.5;4.0;2.0;3.5;1.25;2.0;0.25;1.0;0.0;1.0;1.25;1.25;0.5;0.5;0.25;0.5;-0.202148;0.035156;0.991211;-0.77;2.73;1.26;219.0;-0.163464;-0.108897;4.0;3.75;3.25;1.5;0.75;0.5;0.25;0.25;0.0;0.25;0.25;0.0;0.0;0.0;0.0;0.0;-0.231934;-0.006348;0.985352;-0.7;-0.07;0.7;142.0;-0.295377;-0.021703
1.25;4.25;3.75;1.75;3.5;1.0;2.0;0.25;1.25;0.25;1.25;1.25;1.25;0.5;0.25;0.25;0.5;-0.20459;0.039551;0.986816;-0.84;2.8;1.12;225.0;-0.160747;-0.105577;4.0;4.25;3.25;1.25;0.75;0.5;0.25;0.5;0.0;0.0;0.25;0.0;0.25;0.0;0.0;0.0;-0.230957;-0.007812;0.984863;-0.84;-0.21;0.63;147.0;-0.294654;-0.038513
1.26;4.25;4.0;2.25;3.25;1.0;2.0;0.25;1.25;0.0;1.25;1.5;0.75;0.5;0.0;0.0;0.5;-0.201172;0.033203;0.993652;-0.98;2.87;1.19;220.0;-0.185046;-0.104161;4.0;4.0;3.0;1.5;0.75;0.5;0.25;0.5;0.0;0.25;0.5;0.0;0.25;0.0;0.0;0.0;-0.225586;-0.003418;0.987305;-0.7;-0.14;0.77;149.0;-0.276443;-0.041639
1.27;4.0;4.0;2.0;3.25;1.0;2.0;0.25;1.25;0.0;1.25;1.25;0.75;0.75;0.5;0.25;0.5;-0.202637;0.038086;0.982422;-0.91;2.59;1.12;221.0;-0.166023;-0.106554;4.0;4.5;3.25;2.0;0.75;0.5;0.0;0.5;0.25;0.25;0.5;0.0;0.0;0.0;0.0;0.0;-0.228027;-0.007812;0.984863;-0.91;-0.28;0.7;159.0;-0.283731;-0.043637
1.28;4.25;3.5;2.0;3.5;1.0;2.0;0.25;1.5;0.25;1.5;1.25;1.25;0.75;0.5;0.0;0.5;-0.200684;0.033203;0.977539;-1.05;2.59;1.05;233.0;-0.151538;-0.106351;4.0;4.5;3.25;2.0;0.75;0.5;0.25;0.25;0.5;0.25;0.5;0.0;0.0;0.0;0.0;0.0;-0.22998;-0.01416;0.981934;-0.91;-0.28;0.7;162.0;-0.271714;-0.024084
1.29;4.0;4.0;2.0;3.75;1.0;1.75;0.25;1.25;0.5;1.5;1.25;1.25;0.75;0.25;0.0;0.75;-0.199219;0.037598;0.986328;-1.05;2.45;1.05;234.0;-0.154039;-0.103467;4.5;4.25;3.25;2.0;1.0;0.5;0.25;0.25;0.0;0.25;0.5;0.0;0.0;0.0;0.0;0.0;-0.231445;-0.008789;0.980469;-0.91;-0.42;0.77;161.0;-0.291071;-0.028085
1.3;4.25;4.0;1.75;4.0;1.0;1.75;0.25;1.25;0.5;1.25;1.25;0.75;0.75;0.5;0.0;1.0;-0.199219;0.038086;0.984375;-1.12;2.45;1.05;232.0;-0.160846;-0.101223;4.25;4.25;3.25;2.0;1.0;0.5;0.25;0.5;0.0;0.0;0.5;0.0;0.0;0.0;0.0;0.0;-0.230957;-0.008301;0.984375;-0.98;-0.42;0.7;159.0;-0.291254;-0.039418
1.31;4.25;4.0;1.5;3.5;0.75;2.0;0.25;1.25;0.5;1.25;1.25;0.5;0.75;0.5;0.0;1.0;-0.197754;0.037598;0.981934;-1.05;2.31;1.05;222.0;-0.161103;-0.102269;4.0;4.5;3.0;2.0;1.25;0.5;0.25;0.25;0.0;0.25;0.5;0.0;0.25;0.0;0.0;0.0;-0.234375;-0.010742;0.981445;-0.84;-0.35;0.63;160.0;-0.281473;-0.03982
1.32;4.0;4.0;2.0;3.25;0.5;1.5;0.25;0.75;0.5;1.5;1.5;1.0;1.0;0.5;0.25;1.0;-0.191895;0.037598;0.986816;-1.12;2.24;1.05;222.0;-0.139089;-0.093265;4.0;4.5;3.0;2.0;1.25;0.75;0.25;0.25;0.0;0.25;0.5;0.0;0.25;0.0;0.0;0.0;-0.230957;-0.010254;0.98291;-0.98;-0.28;0.63;163.0;-0.279495;-0.043387
1.33;4.25;4.25;2.0;3.25;0.75;1.5;0.25;1.25;0.5;1.75;1.25;1.25;1.25;0.25;0.5;1.0;-0.198242;0.035156;0.986328;-1.05;2.31;1.05;241.0;-0.133141;-0.104309;4.0;4.25;3.25;1.75;0.75;0.5;0.25;0.25;0.0;0.25;0.25;0.0;0.25;0.0;0.0;0.0;-0.231445;-0.003418;0.983398;-0.91;-0.28;0.63;151.0;-0.292484;-0.034949
1.34;4.25;4.0;2.0;3.5;1.0;2.0;0.25;1.25;0.25;1.5;1.25;1.25;0.75;0.25;0.25;0.75;-0.205566;0.031738;0.984863;-1.12;2.52;0.98;236.0;-0.154563;-0.106411;4.0;4.25;3.25;1.75;0.75;0.5;0.25;0.25;0.0;0.0;0.25;0.0;0.0;0.0;0.0;0.0;-0.231445;-0.012695;0.984375;-0.91;-0.35;0.7;146.0;-0.30745;-0.030738
1.35;3.25;3.5;2.25;3.5;0.75;2.0;0.25;1.25;0.25;1.5;1.25;1.0;0.75;0.5;0.0;0.5;-0.203613;0.033203;0.987793;-1.12;2.45;1.05;218.0;-0.148448;-0.108693;4.0;3.75;3.25;1.5;1.0;0.5;0.25;0.5;0.0;0.0;0.25;0.0;0.0;0.0;0.0;0.0;-0.231934;-0.009766;0.984863;-0.84;-0.35;0.77;145.0;-0.294438;-0.030512
1.36;3.25;3.5;2.0;3.25;0.75;2.0;0.25;1.25;0.5;1.25;1.5;1.0;0.75;0.25;0.0;0.75;-0.199219;0.035645;0.982422;-1.12;2.52;1.12;215.0;-0.142079;-0.110134;4.25;4.5;3.25;1.25;0.75;0.5;0.25;0.25;0.25;0.25;0.25;0.0;0.25;0.0;0.0;0.0;-0.233398;-0.009766;0.980469;-0.77;-0.42;0.84;153.0;-0.285334;-0.022255
1.37;3.75;4.0;2.0;4.0;1.25;2.0;0.25;1.0;0.5;1.25;1.25;1.0;0.75;0.25;0.0;1.0;-0.200684;0.035645;0.984375;-1.12;2.38;0.91;232.0;-0.159781;-0.103507;4.0;4.5;3.0;1.25;0.75;0.0;0.25;0.5;0.0;0.25;0.5;0.0;0.0;0.0;0.0;0.0;-0.229492;-0.011719;0.977051;-0.84;-0.42;0.77;144.0;-0.29081;-0.028284
1.38;4.25;4.0;2.5;4.0;1.25;2.0;0.25;1.25;0.25;1.25;1.25;1.25;1.0;0.25;0.0;1.25;-0.199219;0.030762;0.989258;-1.12;2.38;0.98;248.0;-0.160708;-0.10989;4.0;4.0;3.0;1.75;0.75;0.0;0.25;0.25;0.0;0.0;0.25;0.0;0.0;0.0;0.0;0.0;-0.231445;-0.01123;0.980469;-0.84;-0.21;0.77;137.0;-0.312206;-0.022074
1.39;4.0;4.0;2.5;3.75;1.0;1.75;0.25;1.0;0.25;1.25;1.5;1.25;1.25;0.25;0.0;1.0;-0.204102;0.036133;0.987305;-1.12;2.38;0.98;238.0;-0.155663;-0.108778;4.25;3.5;2.5;1.75;0.75;0.25;0.25;0.25;0.25;0.25;0.25;0.25;0.0;0.0;0.0;0.0;-0.230957;-0.008301;0.981445;-0.77;-0.21;0.77;140.0;-0.278916;-0.020967
1.4;4.25;3.75;2.0;3.75;1.0;1.5;0.25;1.25;0.25;1.25;1.5;1.0;1.0;0.75;0.25;1.25;-0.203125;0.035156;0.988281;-1.12;2.52;1.05;237.0;-0.140018;-0.104011;4.25;4.25;3.25;2.0;1.0;0.25;0.25;0.5;0.25;0.25;0.25;0.25;0.25;0.0;0.0;0.0;-0.229492;-0.003906;0.98584;-0.77;-0.21;0.84;164.0;-0.270291;-0.036448
1.41;4.0;3.5;1.5;3.5;0.75;1.5;0.25;1.25;0.0;0.5;1.5;1.25;1.0;0.5;0.25;0.75;-0.19873;0.037109;0.987305;-1.05;2.45;0.98;210.0;-0.155278;-0.124413;4.0;4.25;3.0;1.75;1.25;0.25;0.25;0.5;0.0;0.5;0.25;0.5;0.25;0.0;0.0;0.0;-0.232422;-0.009766;0.987305;-0.7;-0.28;0.77;161.0;-0.260955;-0.044285
1.42;4.0;3.75;1.5;3.0;0.75;1.75;0.25;1.0;0.25;0.5;1.5;1.25;1.0;0.25;0.0;0.75;-0.204102;0.037109;0.987793;-1.12;2.45;0.98;205.0;-0.163135;-0.117204;3.75;4.25;3.0;2.0;1.25;0.25;0.25;0.5;0.0;0.25;0.5;0.25;0.25;0.0;0.0;0.0;-0.233887;-0.006836;0.991211;-0.77;-0.07;0.84;159.0;-0.266559;-0.048294
1.43;4.0;4.0;1.75;3.75;0.75;2.0;0.25;1.0;0.5;1.0;1.25;1.25;1.0;0.5;0.25;1.0;-0.205078;0.036133;0.979004;-1.26;2.38;1.05;231.0;-0.147117;-0.109958;4.0;4.25;2.75;1.0;1.25;0.25;0.25;0.5;0.25;0.25;0.5;0.25;0.0;0.0;0.0;0.0;-0.229492;-0.008789;0.983887;-0.63;-0.21;0.7;150.0;-0.262687;-0.024379
1.44;3.5;3.75;1.75;4.0;0.75;2.0;0.25;0.75;0.5;1.25;1.25;1.25;1.0;0.5;0.25;0.5;-0.20166;0.029297;0.981445;-1.19;2.45;0.98;223.0;-0.144363;-0.106835;3.75;4.25;2.75;1.0;1.0;0.25;0.25;0.25;0.0;0.25;0.25;0.25;0.25;0.0;0.0;0.0;-0.225586;-0.004395;0.978027;-0.63;-0.14;0.77;138.0;-0.282564;-0.030176
1.45;4.5;3.75;1.75;4.0;0.75;2.25;0.25;1.25;0.5;1.25;1.25;1.25;1.0;0.25;0.25;0.5;-0.199707;0.033691;0.986816;-1.12;2.38;1.05;240.0;-0.155378;-0.110623;3.75;4.0;2.5;1.0;1.25;0.0;0.25;0.5;0.0;0.0;0.25;0.25;0.25;0.0;0.0;0.0;-0.232422;-0.013672;0.989746;-0.63;-0.14;0.7;135.0;-0.282529;-0.035127
1.46;4.5;4.0;2.0;3.75;0.75;2.0;0.25;1.25;0.25;1.25;1.25;1.25;0.75;0.25;0.0;0.75;-0.197266;0.035645;0.983887;-1.12;2.59;1.05;233.0;-0.168678;-0.109294;4.0;4.0;2.5;1.25;1.0;0.25;0.25;0.25;0.0;0.25;0.5;0.0;0.5;0.0;0.0;0.0;-0.228516;-0.011719;0.980957;-0.63;-0.14;0.7;140.0;-0.276349;-0.034472
1.47;4.25;3.5;2.75;3.5;1.0;1.75;0.25;0.75;0.25;1.25;1.25;1.0;1.0;0.5;0.0;0.5;-0.205078;0.039062;0.98291;-1.19;2.38;1.12;225.0;-0.167015;-0.087552;3.75;4.25;3.0;1.5;1.0;0.5;0.25;0.25;0.0;0.25;0.5;0.0;0.0;0.0;0.0;0.0;-0.228516;-0.003906;0.987305;-0.63;-0.14;0.77;146.0;-0.286179;-0.030036
1.48;4.5;3.5;2.0;3.5;0.75;1.5;0.25;1.25;0.25;1.5;1.25;1.0;1.25;0.25;0.25;0.5;-0.197754;0.035645;0.984375;-1.19;2.31;1.12;227.0;-0.153672;-0.104356;4.0;4.25;3.25;1.5;1.0;0.5;0.25;0.5;0.0;0.25;0.5;0.0;0.0;0.0;0.0;0.0;-0.23584;-0.008789;0.984863;-0.77;-0.21;0.7;154.0;-0.28147;-0.034077
1.49;4.25;3.75;1.75;3.25;0.75;2.0;0.25;1.25;0.25;1.25;1.0;1.5;1.0;0.5;0.0;0.5;-0.203613;0.039062;0.97998;-1.12;2.45;1.12;224.0;-0.155122;-0.112173;3.75;4.25;2.75;1.5;1.25;0.5;0.25;0.25;0.0;0.25;0.5;0.25;0.25;0.0;0.0;0.0;-0.227539;-0.008301;0.984863;-0.7;-0.28;0.7;150.0;-0.269861;-0.040517
1.5;4.25;3.5;1.75;3.75;1.0;2.0;0.25;1.0;0.5;1.25;1.25;1.25;1.0;0.5;0.0;0.5;-0.199707;0.033203;0.98291;-1.12;2.45;1.05;229.0;-0.15193;-0.101047;3.75;4.25;2.5;1.75;1.25;0.25;0.25;0.25;0.0;0.0;0.5;0.25;0.5;0.0;0.0;0.0;-0.228027;-0.007324;0.983398;-0.77;-0.35;0.63;148.0;-0.274512;-0.049354
1.51;4.25;3.75;2.0;3.25;1.0;2.0;0.25;1.0;0.0;1.25;1.0;1.25;1.0;0.5;0.0;0.75;-0.198242;0.037109;0.985352;-1.12;2.52;1.12;221.0;-0.164921;-0.107852;4.0;4.25;2.5;1.25;1.25;0.25;0.25;0.5;0.0;0.0;0.5;0.25;0.25;0.0;0.0;0.0;-0.234863;-0.009766;0.98291;-0.7;-0.35;0.7;146.0;-0.275968;-0.043296
1.52;4.25;3.75;2.25;3.0;0.75;1.25;0.0;1.25;0.25;1.25;1.0;1.25;0.75;0.5;0.0;1.0;-0.203613;0.037598;0.987793;-0.98;2.52;1.19;214.0;-0.161261;-0.103229;4.0;4.0;2.75;1.25;1.25;0.5;0.25;0.5;0.0;0.25;0.5;0.0;0.25;0.0;0.0;0.0;-0.231445;-0.015137;0.987793;-0.63;-0.35;0.77;149.0;-0.271359;-0.037334
1.53;4.5;4.0;2.5;3.25;0.75;1.5;0.0;1.25;0.5;1.5;1.25;0.75;0.75;0.5;0.0;1.0;-0.204102;0.035645;0.991699;-1.12;2.59;1.19;229.0;-0.162679;-0.092036;4.0;4.25;2.5;1.5;1.25;0.5;0.25;0.5;0.0;0.25;0.5;0.0;0.0;0.0;0.0;0.0;-0.233398;-0.01123;0.980957;-0.77;-0.42;0.77;149.0;-0.279665;-0.038798
1.54;4.25;4.0;2.0;3.0;0.75;1.5;0.25;1.25;0.5;1.25;1.25;0.75;1.0;0.5;0.25;1.0;-0.202637;0.032227;0.991699;-1.12;2.59;1.19;224.0;-0.147801;-0.096434;4.0;4.25;2.5;1.5;1.25;0.25;0.25;0.25;0.0;0.25;0.5;0.0;0.0;0.0;0.0;0.0;-0.229004;-0.011719;0.983398;-0.56;-0.49;0.7;143.0;-0.288359;-0.026176
1.55;4.25;3.75;2.25;3.5;1.0;1.5;0.25;1.0;0.25;1.25;1.25;1.25;1.0;0.5;0.0;0.75;-0.19873;0.038086;0.987305;-1.12;2.45;1.26;227.0;-0.158004;-0.09835;4.0;4.25;3.0;1.5;1.25;0.0;0.25;0.25;0.25;0.5;0.5;0.0;0.25;0.0;0.0;0.0;-0.234375;-0.009277;0.981445;-0.7;-0.56;0.56;153.0;-0.26502;-0.01673
1.56;3.25;4.0;1.75;3.5;1.0;1.5;0.25;1.0;0.25;1.5;1.25;1.25;0.75;0.5;0.0;0.75;-0.203613;0.035645;0.984863;-1.12;2.66;1.19;215.0;-0.145795;-0.10744;3.5;4.25;3.0;1.75;1.0;0.25;0.25;0.5;0.25;0.5;0.5;0.0;0.0;0.0;0.0;0.0;-0.234863;-0.007812;0.981934;-0.7;-0.49;0.63;153.0;-0.261478;-0.032242
1.57;3.25;3.75;2.0;3.5;1.0;1.5;0.0;1.25;0.0;1.5;1.5;1.25;0.75;0.5;0.0;1.0;-0.196777;0.039551;0.986328;-1.26;2.52;1.12;216.0;-0.144597;-0.121354;3.25;4.25;3.0;2.0;1.0;0.25;0.25;0.25;0.0;0.25;0.5;0.0;0.25;0.0;0.0;0.0;-0.22998;-0.012695;0.981445;-0.77;-0.42;0.7;146.0;-0.278481;-0.043003
1.58;3.5;3.75;2.0;3.25;1.0;1.5;0.0;1.25;0.25;1.5;1.5;1.25;1.0;0.5;0.25;1.25;-0.206055;0.033691;0.987305;-1.26;2.45;1.26;224.0;-0.128836;-0.116161;4.0;4.25;3.0;2.0;1.0;0.5;0.25;0.25;0.0;0.25;0.5;0.25;0.0;0.0;0.0;0.0;-0.22998;-0.010254;0.98584;-0.77;-0.56;0.7;156.0;-0.280333;-0.038311
1.59;3.75;3.5;1.25;3.25;1.0;1.5;0.0;1.25;0.5;1.25;1.25;1.25;1.25;0.75;0.5;1.0;-0.203125;0.031738;0.982422;-1.26;2.45;1.19;220.0;-0.116287;-0.116084;3.75;3.5;3.0;1.5;1.25;0.5;0.25;0.5;0.0;0.25;0.75;0.25;0.0;0.0;0.0;0.0;-0.229492;-0.010742;0.98877;-0.77;-0.42;0.56;151.0;-0.255619;-0.036781
1.6;3.75;3.25;1.25;3.5;1.0;1.75;0.0;1.25;0.5;1.25;1.5;1.25;0.75;0.5;0.5;0.75;-0.205078;0.029785;0.980469;-1.33;2.45;1.12;218.0;-0.124691;-0.113822;4.0;4.0;2.75;1.75;1.0;0.5;0.25;0.5;0.0;0.5;0.5;0.0;0.25;0.0;0.0;0.0;-0.233398;-0.01416;0.987793;-0.77;-0.63;0.77;154.0;-0.266369;-0.043483
1.61;4.25;3.5;1.75;3.75;1.25;1.75;0.0;1.0;0.0;1.5;1.5;1.25;1.0;0.25;0.25;0.75;-0.198242;0.031738;0.988281;-1.33;2.45;1.19;226.0;-0.153967;-0.114403;3.75;4.25;3.25;2.0;0.75;0.5;0.25;0.5;0.0;0.25;0.0;0.0;0.25;0.0;0.0;0.0;-0.230469;-0.009277;0.982422;-0.77;-0.63;0.7;152.0;-0.292434;-0.047224
1.62;4.25;4.0;1.75;3.5;1.0;2.25;0.25;1.25;0.25;1.75;1.75;1.25;1.25;0.5;0.0;0.75;-0.205078;0.032715;0.986816;-1.19;2.45;1.19;246.0;-0.137942;-0.1124;4.0;4.25;3.0;1.75;0.75;0.25;0.25;0.5;0.0;0.0;0.25;0.0;0.25;0.0;0.0;0.0;-0.22998;-0.005859;0.983398;-0.7;-0.49;0.63;147.0;-0.297336;-0.043137
1.63;4.25;4.0;1.75;3.25;1.0;2.5;0.25;1.25;0.0;1.75;1.25;1.25;1.25;0.5;0.0;1.0;-0.200195;0.036133;0.983887;-1.19;2.31;1.19;240.0;-0.146119;-0.118693;3.75;4.25;3.25;1.25;1.0;0.25;0.25;0.5;0.0;0.0;0.25;0.0;0.25;0.0;0.0;0.0;-0.23291;-0.012695;0.978027;-0.7;-0.56;0.77;144.0;-0.292379;-0.035153
1.64;4.0;4.0;1.5;3.25;1.0;2.0;0.0;1.25;0.0;2.0;0.75;1.25;1.25;0.5;0.0;1.0;-0.208496;0.035156;0.988281;-1.19;2.38;1.26;224.0;-0.149278;-0.123787;4.0;4.25;3.25;1.5;1.25;0.5;0.25;0.5;0.0;0.25;0.0;0.0;0.25;0.0;0.0;0.0;-0.234863;-0.011719;0.984375;-0.77;-0.56;0.7;154.0;-0.288852;-0.035511
1.65;4.0;3.5;1.25;3.0;1.0;1.5;0.25;1.0;0.0;1.75;1.0;1.25;1.25;0.25;0.0;1.25;-0.20166;0.039062;0.988281;-1.26;2.38;1.19;209.0;-0.141536;-0.1162;4.25;3.75;3.25;1.75;1.25;0.25;0.25;0.5;0.0;0.5;0.25;0.0;0.25;0.0;0.0;0.0;-0.233887;-0.009766;0.98584;-0.77;-0.49;0.56;157.0;-0.273442;-0.028822
1.66;4.0;3.75;1.5;3.0;0.75;1.25;0.25;1.0;0.0;1.75;1.0;0.75;1.0;0.5;0.0;1.25;-0.204102;0.03418;0.98584;-1.4;2.45;1.26;204.0;-0.152027;-0.103977;4.0;4.5;3.25;1.5;1.0;0.25;0.25;0.25;0.0;0.5;0.25;0.0;0.25;0.0;0.0;0.0;-0.23291;-0.008301;0.982422;-0.91;-0.56;0.7;153.0;-0.285507;-0.026631
1.67;4.25;4.0;1.75;3.75;0.75;1.5;0.25;1.25;0.25;1.5;1.25;0.75;1.0;0.25;0.25;1.0;-0.200684;0.036621;0.987793;-1.26;2.24;1.05;227.0;-0.15721;-0.108372;4.0;4.25;2.75;1.5;1.25;0.25;0.25;0.25;0.0;0.25;0.25;0.0;0.0;0.0;0.0;0.0;-0.232422;-0.01123;0.983398;-0.56;-0.7;0.77;144.0;-0.29653;-0.022626
1.68;4.25;4.0;1.75;2.75;0.5;1.5;0.0;1.25;0.5;1.5;1.0;1.0;1.0;0.5;0.5;1.0;-0.195801;0.03418;0.984863;-1.47;2.17;1.05;218.0;-0.138491;-0.104456;4.25;4.25;3.5;1.25;1.25;0.25;0.25;0.5;0.0;0.25;0.25;0.0;0.0;0.0;0.0;0.0;-0.227539;-0.009277;0.984863;-0.7;-0.56;0.63;155.0;-0.290378;-0.020088
1.69;4.25;3.75;2.0;3.25;0.5;2.0;0.0;1.25;0.25;1.5;1.0;1.0;1.0;0.5;0.25;1.25;-0.206543;0.03125;0.984863;-1.33;2.17;1.12;224.0;-0.149338;-0.114565;4.0;4.25;2.75;1.5;1.25;0.25;0.25;0.5;0.0;0.25;0.25;0.0;0.25;0.0;0.0;0.0;-0.23291;-0.006348;0.987305;-0.63;-0.7;0.7;149.0;-0.283664;-0.037115
1.7;4.0;4.0;2.0;3.5;0.75;2.0;0.25;1.0;0.0;1.75;0.25;1.25;1.25;0.5;0.0;1.0;-0.20166;0.033691;0.98584;-1.33;2.17;1.12;222.0;-0.1646;-0.114349;4.25;4.5;3.25;1.75;1.25;0.5;0.25;0.5;0.0;0.25;0.5;0.0;0.0;0.0;0.0;0.0;-0.230469;-0.004883;0.984375;-0.63;-0.7;0.77;164.0;-0.282667;-0.035165
1.71;4.0;4.0;2.0;3.5;0.75;1.5;0.25;1.25;0.5;1.25;0.5;1.25;0.5;0.5;0.0;0.75;-0.199219;0.034668;0.98584;-1.4;2.17;1.19;217.0;-0.167637;-0.097624;4.5;4.5;3.5;2.0;1.25;0.5;0.25;0.5;0.0;0.25;0.0;0.0;0.0;0.0;0.0;0.0;-0.23291;-0.005859;0.982422;-0.7;-0.63;0.77;167.0;-0.298808;-0.031748
1.72;4.0;4.0;2.5;3.5;0.75;1.25;0.25;1.25;0.5;1.25;0.75;0.5;0.5;0.25;0.0;1.0;-0.199219;0.03418;0.987793;-1.4;2.03;1.05;214.0;-0.180705;-0.088402;4.25;4.5;3.25;2.25;1.0;0.5;0.25;0.25;0.0;0.25;0.25;0.0;0.25;0.0;0.0;0.0;-0.229492;-0.012695;0.984863;-0.7;-0.63;0.63;163.0;-0.292973;-0.038926
1.73;4.5;4.0;2.5;3.25;1.0;1.5;0.25;1.25;0.5;1.25;1.0;0.5;0.75;0.25;0.25;1.0;-0.204102;0.031738;0.986328;-1.4;2.03;1.19;228.0;-0.169663;-0.086655;4.25;4.25;2.75;2.0;1.25;0.5;0.25;0.25;0.0;0.25;0.25;0.25;0.0;0.0;0.0;0.0;-0.229492;-0.009277;0.983398;-0.7;-0.56;0.77;156.0;-0.287726;-0.035367
1.74;4.25;3.75;2.0;3.5;0.5;1.5;0.0;1.25;0.5;1.25;1.0;0.75;1.0;0.5;0.25;0.75;-0.19873;0.034668;0.986328;-1.33;2.03;1.12;217.0;-0.159376;-0.104521;4.25;4.5;3.25;1.5;1.25;0.5;0.25;0.5;0.0;0.25;0.25;0.0;0.0;0.0;0.0;0.0;-0.227539;-0.010254;0.979004;-0.63;-0.49;0.63;159.0;-0.290244;-0.030959
1.75;3.5;3.75;2.0;3.5;0.75;1.5;0.0;1.25;0.5;1.5;1.0;1.0;1.0;0.5;0.0;0.75;-0.199707;0.035156;0.97998;-1.33;2.1;1.12;215.0;-0.148741;-0.110156;4.5;4.5;3.25;1.5;1.0;0.25;0.25;0.5;0.0;0.25;0.5;0.0;0.0;0.0;0.0;0.0;-0.23291;-0.009277;0.983887;-0.56;-0.49;0.63;159.0;-0.28892;-0.027825
1.76;3.5;4.0;1.75;4.0;0.75;1.25;0.25;1.25;0.25;1.25;1.0;1.25;1.0;0.5;0.25;0.75;-0.204102;0.031738;0.985352;-1.47;2.17;1.05;220.0;-0.149139;-0.117025;4.0;4.5;3.25;2.0;1.0;0.5;0.25;0.5;0.0;0.0;0.5;0.25;0.0;0.0;0.0;0.0;-0.229492;-0.008301;0.981445;-0.63;-0.63;0.77;162.0;-0.283772;-0.047066
1.77;3.5;4.0;2.0;3.75;0.75;1.25;0.25;1.25;0.25;1.25;0.75;1.25;0.5;0.75;0.25;1.0;-0.203125;0.032715;0.991699;-1.61;2.24;1.05;217.0;-0.150915;-0.105512;4.0;4.5;2.75;2.0;1.0;0.25;0.25;0.25;0.25;0.0;0.25;0.0;0.0;0.0;0.0;0.0;-0.228516;-0.012695;0.987305;-0.56;-0.49;0.7;149.0;-0.298279;-0.028304
1.78;4.0;4.0;2.0;3.5;0.75;1.5;0.25;1.0;0.25;1.25;1.0;1.25;0.5;0.5;0.25;0.75;-0.200684;0.031738;0.988281;-1.4;2.1;1.12;218.0;-0.160908;-0.098272;4.25;4.5;3.25;2.0;1.25;0.25;0.25;0.5;0.0;0.0;0.25;0.0;0.25;0.0;0.0;0.0;-0.232422;-0.009277;0.986328;-0.49;-0.49;0.91;161.0;-0.294435;-0.039986
1.79;4.25;4.0;2.25;3.75;1.0;1.25;0.25;1.0;0.0;1.0;0.5;0.75;0.75;0.5;0.0;0.75;-0.200684;0.035156;0.983887;-1.47;2.1;1.19;210.0;-0.197384;-0.097038;4.0;4.5;3.25;1.75;1.5;0.5;0.25;0.25;0.0;0.0;0.25;0.25;0.0;0.0;0.0;0.0;-0.23291;-0.008301;0.985352;-0.56;-0.49;0.77;158.0;-0.292354;-0.032197
1.8;4.25;4.25;2.5;3.5;1.0;2.0;0.25;1.0;0.0;1.0;0.5;0.75;0.5;0.5;0.25;0.5;-0.199219;0.031738;0.987793;-1.4;2.17;1.19;218.0;-0.197568;-0.095336;4.0;4.25;3.25;2.0;1.25;0.5;0.25;0.5;0.0;0.0;0.0;0.0;0.0;0.0;0.0;0.0;-0.230957;-0.011719;0.979004;-0.49;-0.7;0.77;155.0;-0.302841;-0.037686
1.81;4.25;4.0;2.5;3.75;1.0;2.0;0.25;1.25;0.0;1.25;0.75;1.25;0.75;0.5;0.0;0.25;-0.20459;0.037598;0.986816;-1.47;2.17;1.12;230.0;-0.182485;-0.105473;4.0;4.5;3.5;2.0;1.25;0.0;0.0;0.5;0.0;0.0;0.0;0.0;0.25;0.0;0.0;0.0;-0.234863;-0.008789;0.986328;-0.56;-0.56;0.84;153.0;-0.311254;-0.041596
1.82;4.25;4.0;2.0;4.0;1.25;1.75;0.0;1.0;0.25;1.25;1.0;1.25;0.75;0.25;0.0;0.5;-0.19873;0.034668;0.990723;-1.33;2.24;1.12;225.0;-0.180141;-0.107146;4.0;4.5;3.5;2.5;1.25;0.25;0.25;0.5;0.0;0.0;0.25;0.0;0.25;0.0;0.0;0.0;-0.23291;-0.010254;0.981934;-0.63;-0.7;0.56;166.0;-0.292234;-0.045695
1.83;4.25;4.0;2.0;4.0;0.75;1.75;0.0;1.0;0.25;1.25;0.5;0.5;0.75;0.0;0.0;0.25;-0.20166;0.038574;0.984863;-1.4;2.45;1.12;205.0;-0.21364;-0.105875;4.5;4.25;3.5;2.25;1.25;0.0;0.25;0.5;0.0;0.25;0.25;0.0;0.25;0.0;0.0;0.0;-0.231934;-0.008789;0.982422;-0.56;-0.56;0.7;166.0;-0.288373;-0.032111
1.84;4.0;4.0;2.0;3.5;0.75;1.5;0.0;1.0;0.25;1.25;0.75;0.25;0.75;0.25;0.25;0.25;-0.200195;0.030273;0.986816;-1.33;2.17;1.19;199.0;-0.196489;-0.098113;4.0;4.25;3.5;2.0;1.0;0.25;0.25;0.5;0.0;0.0;0.5;0.0;0.0;0.0;0.0;0.0;-0.228516;-0.011719;0.985352;-0.7;-0.42;0.63;157.0;-0.291347;-0.035866
1.85;4.0;4.0;2.25;3.0;0.75;1.5;0.0;0.75;0.25;1.5;1.25;0.5;0.75;0.25;0.25;0.5;-0.199219;0.030762;0.983398;-1.33;2.31;1.19;204.0;-0.175079;-0.089843;3.75;4.5;3.5;2.0;1.0;0.5;0.25;0.5;0.0;0.0;0.5;0.0;0.0;0.0;0.0;0.0;-0.227539;-0.004883;0.982422;-0.63;-0.56;0.7;159.0;-0.289167;-0.043434
1.86;4.0;4.0;2.0;3.25;1.0;1.25;0.0;0.75;0.25;1.0;1.25;0.5;0.5;0.5;0.5;0.5;-0.203125;0.036133;0.987305;-1.4;2.31;1.12;202.0;-0.17554;-0.086922;4.25;4.5;3.0;2.0;1.25;0.5;0.25;0.25;0.0;0.0;0.5;0.0;0.0;0.0;0.0;0.0;-0.230469;-0.013672;0.984863;-0.77;-0.56;0.77;158.0;-0.296839;-0.033833
1.87;4.0;3.75;2.0;3.5;1.0;1.25;0.25;0.5;0.25;0.75;1.25;1.0;0.5;0.5;0.25;0.75;-0.196289;0.035645;0.985352;-1.33;2.24;1.19;204.0;-0.172209;-0.085109;4.5;4.5;2.75;2.0;1.25;0.5;0.25;0.5;0.0;0.25;0.0;0.0;0.25;0.0;0.0;0.0;-0.23291;-0.010254;0.987793;-0.77;-0.56;0.63;161.0;-0.294595;-0.042833
1.88;4.25;3.75;2.0;3.5;0.75;1.5;0.25;0.75;0.5;1.25;1.25;1.0;0.75;0.5;0.0;0.75;-0.211426;0.03125;0.979004;-1.4;2.1;1.12;217.0;-0.160827;-0.087025;4.25;4.5;3.0;2.0;1.5;0.5;0.25;0.5;0.0;0.25;0.25;0.0;0.25;0.0;0.0;0.0;-0.231934;-0.003418;0.986328;-0.77;-0.63;0.7;166.0;-0.28253;-0.042443
1.89;4.25;4.0;1.75;3.5;0.5;0.75;0.0;0.75;0.5;1.5;1.25;1.0;1.0;0.25;0.0;0.75;-0.199219;0.038574;0.981445;-1.33;2.24;1.12;205.0;-0.164585;-0.095087;4.25;4.5;3.75;2.75;1.5;0.5;0.25;0.5;0.0;0.25;0.25;0.0;0.0;0.0;0.0;0.0;-0.231934;-0.005371;0.98291;-0.7;-0.63;0.63;179.0;-0.28704;-0.039811
1.9;4.5;4.25;2.0;3.5;0.75;0.75;0.0;0.75;0.5;1.25;1.0;0.5;0.75;0.25;0.0;0.75;-0.203613;0.030762;0.987305;-1.54;2.31;1.05;203.0;-0.192234;-0.082462;4.5;4.5;3.25;2.75;1.0;0.75;0.25;0.5;0.0;0.0;0.0;0.0;0.0;0.0;0.0;0.0;-0.23291;-0.012207;0.979492;-0.77;-0.63;0.7;169.0;-0.306812;-0.048438
1.91;4.25;4.25;2.5;4.0;0.5;1.25;0.25;0.75;0.5;1.25;1.25;0.5;0.75;0.25;0.0;0.75;-0.203125;0.03418;0.981934;-1.33;2.31;1.05;219.0;-0.184807;-0.084951;4.5;4.25;3.25;2.5;1.0;0.5;0.25;0.5;0.0;0.25;0.25;0.0;0.0;0.0;0.0;0.0;-0.229492;-0.009766;0.979004;-0.91;-0.56;0.7;167.0;-0.292576;-0.04032
1.92;4.25;4.25;2.75;3.75;0.5;1.0;0.0;1.25;0.5;1.25;1.25;1.0;0.75;0.5;0.25;0.75;-0.20166;0.037109;0.981445;-1.4;2.38;1.05;230.0;-0.164156;-0.095877;4.5;4.5;3.25;2.25;1.25;0.25;0.25;0.25;0.0;0.0;0.0;0.0;0.25;0.0;0.0;0.0;-0.228516;-0.006836;0.98291;-0.84;-0.42;0.63;160.0;-0.309834;-0.031913
1.93;4.5;4.0;2.5;3.5;0.5;1.0;0.0;0.75;0.5;1.25;1.25;1.0;0.5;0.5;0.25;0.5;-0.202637;0.032715;0.980957;-1.47;2.24;1.05;215.0;-0.172741;-0.079374;4.5;4.5;3.25;2.25;1.25;0.25;0.25;0.5;0.0;0.25;0.0;0.0;0.25;0.0;0.0;0.0;-0.234863;-0.01123;0.980469;-0.77;-0.35;0.84;166.0;-0.295725;-0.038075
1.94;4.25;4.0;2.25;3.5;0.5;1.25;0.25;0.75;0.5;1.25;1.0;0.5;0.5;0.5;0.25;0.5;-0.199707;0.033691;0.987305;-1.26;2.38;1.12;208.0;-0.177923;-0.075077;4.0;4.5;3.25;2.75;1.0;0.5;0.25;0.5;0.0;0.25;0.25;0.0;0.25;0.0;0.0;0.0;-0.22998;-0.01123;0.987305;-0.91;-0.42;0.7;169.0;-0.285481;-0.053799
1.95;4.25;4.0;2.25;3.5;0.5;1.5;0.25;0.75;0.5;1.25;1.0;0.25;0.75;0.5;0.0;0.5;-0.199707;0.040039;0.989258;-1.33;2.24;1.19;208.0;-0.185563;-0.078506;4.25;4.5;3.5;2.75;1.25;0.5;0.25;0.5;0.0;0.25;0.5;0.0;0.0;0.0;0.0;0.0;-0.235352;-0.005859;0.981934;-0.84;-0.35;0.77;177.0;-0.282697;-0.044147
1.96;4.25;4.0;2.25;3.75;0.75;1.0;0.0;0.75;0.25;1.25;1.25;0.25;0.75;0.5;0.0;0.75;-0.204102;0.034668;0.986816;-1.33;2.31;1.19;205.0;-0.189717;-0.086335;4.5;4.5;3.5;2.5;1.25;0.5;0.25;0.5;0.0;0.0;0.25;0.0;0.25;0.0;0.0;0.0;-0.231934;-0.015137;0.980469;-0.77;-0.35;0.84;174.0;-0.293258;-0.044736
1.97;4.5;4.0;1.75;4.0;0.75;1.0;0.0;0.5;0.0;1.25;1.25;0.25;0.75;0.5;0.0;0.5;-0.203125;0.033203;0.98877;-1.26;2.31;1.19;197.0;-0.204934;-0.08895;4.25;4.5;3.5;2.5;1.25;0.5;0.25;0.5;0.0;0.0;0.0;0.0;0.25;0.0;0.0;0.0;-0.230957;-0.014648;0.98291;-0.77;-0.49;0.77;169.0;-0.299075;-0.04588
1.98;4.5;4.0;2.0;3.5;1.5;2.5;0.0;0.5;0.5;1.25;0.75;0.5;0.5;0.25;0.25;0.5;-0.198242;0.032227;0.98291;-1.26;2.17;1.19;219.0;-0.191855;-0.081806;4.25;4.5;3.5;2.5;1.0;0.5;0.25;0.5;0.0;0.25;0.25;0.0;0.25;0.0;0.0;0.0;-0.229004;-0.008301;0.984863;-0.91;-0.49;0.7;171.0;-0.286782;-0.046907
1.99;4.5;4.0;1.75;4.0;1.0;1.75;0.25;0.5;0.25;1.25;0.75;0.5;0.5;0.5;0.5;0.75;-0.199707;0.035645;0.984863;-1.33;2.24;1.26;216.0;-0.182567;-0.082577;4.5;4.25;3.75;2.5;1.0;0.25;0.25;0.5;0.0;0.25;0.0;0.0;0.0;0.0;0.0;0.0;-0.229492;-0.01123;0.984375;-0.84;-0.56;0.63;167.0;-0.301266;-0.031814
2.0;4.5;4.0;2.25;4.0;1.0;1.25;0.25;0.5;0.25;1.25;1.0;0.5;0.75;0.5;0.25;0.75;-0.201172;0.034668;0.983887;-1.26;2.38;1.12;218.0;-0.184032;-0.078038;4.25;4.25;3.5;3.0;1.0;0.25;0.25;0.5;0.0;0.0;0.0;0.0;0.0;0.0;0.0;0.0;-0.22998;-0.007812;0.986816;-0.84;-0.49;0.77;165.0;-0.307756;-0.042969
2.01;4.5;4.0;2.0;3.0;0.75;1.25;0.0;0.75;0.25;1.25;1.0;0.5;0.75;0.25;0.0;0.5;-0.196289;0.035156;0.988281;-1.26;2.38;1.12;197.0;-0.19672;-0.086709;4.5;4.5;3.75;3.0;1.25;0.5;0.25;0.5;0.0;0.0;0.0;0.0;0.25;0.0;0.0;0.0;-0.227051;-0.010254;0.983887;-0.77;-0.42;0.84;179.0;-0.299653;-0.046924
2.02;4.5;4.25;2.0;3.25;0.75;1.25;0.0;0.75;0.0;1.25;1.25;0.5;0.75;0.0;0.0;0.5;-0.20166;0.035645;0.986816;-1.33;2.38;1.12;199.0;-0.207902;-0.097668;4.5;4.5;4.0;2.5;1.5;0.25;0.25;0.5;0.0;0.25;0.25;0.0;0.0;0.0;0.0;0.0;-0.230469;-0.009277;0.981445;-0.84;-0.42;0.91;179.0;-0.290134;-0.030178
2.03;4.25;4.0;2.25;3.5;0.75;1.25;0.0;0.5;0.0;1.25;1.25;1.0;0.75;0.25;0.0;0.5;-0.196777;0.030762;0.987305;-1.33;2.52;1.12;203.0;-0.192628;-0.095604;4.75;4.5;3.75;3.25;1.75;0.25;0.25;0.5;0.0;0.25;0.0;0.0;0.0;0.0;0.0;0.0;-0.227539;-0.01123;0.977539;-0.77;-0.49;0.84;187.0;-0.296208;-0.035569
2.04;4.25;4.0;2.25;3.5;0.5;0.75;0.0;0.5;0.0;1.0;1.25;0.5;0.75;0.25;0.0;0.75;-0.20166;0.032227;0.988281;-1.26;2.38;1.19;189.0;-0.206605;-0.091372;4.5;4.5;3.75;3.0;1.25;0.5;0.25;0.5;0.0;0.25;0.0;0.0;0.0;0.0;0.0;0.0;-0.223145;-0.013184;0.984863;-0.63;-0.49;0.84;179.0;-0.297704;-0.040838
2.05;4.25;4.0;1.75;3.75;0.25;1.0;0.0;0.5;0.25;1.25;1.25;0.5;0.5;0.0;0.25;0.75;-0.202637;0.033203;0.982422;-1.4;2.38;1.19;191.0;-0.196108;-0.093435;4.5;4.75;3.25;2.75;1.25;0.25;0.0;0.5;0.0;0.0;0.0;0.0;0.0;0.0;0.0;0.0;-0.23291;-0.01123;0.980957;-0.56;-0.49;0.7;165.0;-0.318268;-0.04765
2.06;4.25;4.0;2.0;3.75;0.5;1.25;0.0;0.5;0.25;1.25;1.25;0.5;0.5;0.25;0.0;0.5;-0.200195;0.033691;0.984863;-1.4;2.38;1.19;196.0;-0.200453;-0.087401;4.5;4.75;3.25;2.75;1.0;0.5;0.0;0.5;0.0;0.0;0.25;0.0;0.25;0.0;0.0;0.0;-0.23291;-0.010254;0.983398;-0.56;-0.56;0.77;170.0;-0.305282;-0.058392
2.07;4.0;4.0;2.0;3.25;0.75;1.25;0.0;0.5;0.5;1.25;0.75;0.5;0.5;0.5;0.0;0.5;-0.197266;0.030273;0.983398;-1.4;2.24;1.12;192.0;-0.19196;-0.075223;4.5;4.75;3.5;2.75;1.25;0.25;0.0;0.5;0.0;0.0;0.5;0.0;0.0;0.0;0.0;0.0;-0.23584;-0.01123;0.986328;-0.63;-0.7;0.77;173.0;-0.302398;-0.047518
2.08;4.0;4.0;2.0;3.5;0.75;1.0;0.0;0.5;0.25;1.0;0.5;1.0;0.75;0.5;0.0;0.5;-0.196777;0.03125;0.986328;-1.54;2.24;1.12;191.0;-0.197482;-0.090928;4.5;4.5;3.75;2.75;1.25;0.5;0.25;0.25;0.0;0.0;0.5;0.0;0.0;0.0;0.0;0.0;-0.227051;-0.009766;0.978027;-0.63;-0.63;0.77;176.0;-0.296509;-0.034727
2.09;4.25;4.25;2.0;3.5;1.0;0.75;0.0;0.75;0.0;1.0;0.5;1.25;1.0;0.25;0.25;0.75;-0.198242;0.035156;0.988281;-1.4;2.24;1.12;202.0;-0.192116;-0.105802;4.5;4.5;3.75;2.75;1.25;0.25;0.25;0.25;0.0;0.25;0.0;0.0;0.0;0.0;0.0;0.0;-0.229004;-0.007812;0.986328;-0.77;-0.63;0.77;171.0;-0.305783;-0.027606
2.1;4.75;4.5;2.5;4.0;1.0;1.25;0.0;0.75;0.0;1.0;0.75;0.75;0.75;0.25;0.25;0.75;-0.204102;0.037598;0.986328;-1.47;1.96;1.26;219.0;-0.209354;-0.096427;4.5;4.5;4.0;3.5;1.25;0.25;0.25;0.5;0.0;0.0;0.0;0.0;0.25;0.0;0.0;0.0;-0.227539;-0.009277;0.979492;-0.77;-0.63;0.7;184.0;-0.300843;-0.046831
2.11;4.25;4.25;2.75;3.75;0.5;0.75;0.0;0.75;0.25;1.0;1.0;0.5;0.5;0.25;0.5;0.75;-0.200195;0.036133;0.983398;-1.4;2.1;1.12;206.0;-0.195469;-0.084958;5.0;4.5;4.0;3.5;1.25;0.5;0.0;0.5;0.0;0.0;0.0;0.0;0.0;0.0;0.0;0.0;-0.232422;-0.012207;0.986328;-0.77;-0.7;0.77;186.0;-0.313674;-0.046869
2.12;4.25;4.0;2.0;3.5;0.5;0.75;0.0;0.5;0.25;1.25;0.5;0.5;0.5;0.5;0.5;0.75;-0.200684;0.032227;0.98584;-1.54;2.24;1.12;190.0;-0.191241;-0.078273;4.75;4.5;3.75;3.25;1.5;0.25;0.0;0.5;0.0;0.25;0.0;0.0;0.0;0.0;0.0;0.0;-0.229492;-0.009277;0.983887;-0.63;-0.63;0.91;181.0;-0.305851;-0.042285
2.13;4.25;4.25;2.5;3.75;0.75;1.5;0.25;0.5;0.0;1.25;0.5;1.0;0.5;0.5;0.25;0.75;-0.200195;0.035156;0.984863;-1.26;2.24;1.12;212.0;-0.193808;-0.086629;5.0;4.25;3.75;3.25;1.5;0.25;0.25;0.5;0.0;0.25;0.0;0.0;0.0;0.0;0.0;0.0;-0.23291;-0.007812;0.98584;-0.56;-0.63;0.63;184.0;-0.298536;-0.033543
2.14;4.5;4.25;2.75;4.0;1.0;1.5;0.0;0.75;0.25;1.25;0.75;0.5;0.5;0.5;0.25;0.5;-0.200684;0.03125;0.987305;-1.4;2.17;1.05;222.0;-0.199899;-0.081983;4.75;4.5;4.0;3.25;1.75;0.5;0.0;0.5;0.0;0.25;0.0;0.0;0.25;0.0;0.0;0.0;-0.229492;-0.01123;0.977051;-0.56;-0.7;0.7;190.0;-0.295931;-0.046565
2.15;4.75;4.25;2.0;3.75;0.75;1.25;0.0;0.75;0.0;1.25;0.25;0.5;0.5;0.25;0.0;0.5;-0.197266;0.03418;0.990723;-1.33;2.17;1.19;197.0;-0.231068;-0.091118;5.25;4.5;3.5;2.5;1.0;0.25;0.0;0.5;0.0;0.0;0.25;0.0;0.25;0.0;0.0;0.0;-0.228027;-0.008789;0.983887;-0.63;-0.7;0.77;172.0;-0.309844;-0.042469
2.16;4.75;4.25;2.5;4.0;1.0;1.25;0.25;0.5;0.0;1.25;0.25;0.75;0.5;0.25;0.0;0.5;-0.194824;0.03418;0.984863;-1.4;2.1;1.26;209.0;-0.224688;-0.078295;5.0;4.75;3.75;2.25;1.0;0.25;0.25;0.5;0.0;0.0;0.25;0.0;0.0;0.0;0.0;0.0;-0.22998;-0.009277;0.989746;-0.63;-0.7;0.77;174.0;-0.307201;-0.030915
2.17;4.75;4.25;3.0;4.0;1.0;1.25;0.0;0.5;0.0;1.25;0.5;0.5;0.5;0.25;0.0;0.5;-0.199707;0.030762;0.980469;-1.47;2.17;1.19;211.0;-0.230565;-0.077482;4.75;4.5;4.0;2.75;1.25;0.5;0.25;0.5;0.0;0.0;0.0;0.0;0.0;0.0;0.0;0.0;-0.230469;-0.008301;0.977051;-0.49;-0.7;0.7;179.0;-0.305923;-0.035822
2.18;4.5;4.25;2.25;4.0;0.5;1.25;0.0;0.5;0.0;1.0;0.5;0.5;0.5;0.25;0.0;0.5;-0.197266;0.030273;0.981934;-1.4;2.24;1.19;193.0;-0.235593;-0.091706;4.75;4.5;4.0;3.25;1.5;0.75;0.0;0.5;0.0;0.25;0.0;0.0;0.0;0.0;0.0;0.0;-0.230957;-0.012207;0.981934;-0.56;-0.7;0.7;188.0;-0.301239;-0.046599
2.19;4.75;4.0;2.5;4.25;0.5;1.25;0.0;0.75;0.25;1.25;0.5;0.25;0.25;0.5;0.25;0.5;-0.203125;0.03418;0.983887;-1.4;2.31;1.26;208.0;-0.215863;-0.077445;5.0;4.75;4.25;3.25;1.25;0.75;0.0;0.5;0.0;0.25;0.25;0.0;0.0;0.0;0.0;0.0;-0.225098;-0.009766;0.97998;-0.56;-0.77;0.7;195.0;-0.299051;-0.046464
2.2;4.75;4.25;2.75;4.25;0.75;1.0;0.0;0.75;0.0;1.25;0.75;0.5;0.25;0.25;0.25;0.5;-0.202148;0.032227;0.986816;-1.33;2.38;1.12;212.0;-0.220755;-0.082611;5.0;5.0;4.25;2.75;1.25;0.25;0.25;0.5;0.0;0.0;0.25;0.0;0.25;0.0;0.0;0.0;-0.236816;-0.011719;0.984863;-0.7;-0.7;0.7;190.0;-0.299379;-0.037597
2.21;4.5;4.25;2.5;4.0;0.5;1.0;0.0;0.75;0.25;1.0;0.5;0.75;0.5;0.25;0.0;0.5;-0.203125;0.036133;0.98877;-1.19;2.31;1.26;202.0;-0.220583;-0.089368;4.5;5.0;4.25;3.5;1.25;0.25;0.25;0.5;0.0;0.0;0.25;0.0;0.25;0.0;0.0;0.0;-0.233398;-0.006348;0.979492;-0.56;-0.7;0.91;193.0;-0.296368;-0.048489
2.22;4.5;4.5;2.5;3.75;0.75;1.0;0.0;0.5;0.25;0.75;0.5;1.0;0.25;0.25;0.0;0.5;-0.200684;0.039062;0.984375;-1.19;2.31;1.19;199.0;-0.228453;-0.081891;5.0;4.75;4.25;3.5;1.0;0.5;0.25;0.5;0.0;0.0;0.0;0.0;0.25;0.0;0.0;0.0;-0.229004;-0.010742;0.982422;-0.56;-0.77;0.7;193.0;-0.304517;-0.046834
2.23;4.5;4.5;2.5;3.75;0.75;1.25;0.0;0.5;0.25;1.0;0.5;0.75;0.25;0.25;0.0;0.5;-0.200684;0.033203;0.992188;-1.33;2.38;1.19;202.0;-0.227217;-0.07997;5.25;5.0;4.25;3.25;1.25;0.5;0.25;0.5;0.0;0.0;0.0;0.0;0.0;0.0;0.0;0.0;-0.23584;-0.015625;0.987305;-0.63;-0.77;0.98;196.0;-0.309664;-0.038338
2.24;4.5;3.5;2.75;3.75;1.0;1.25;0.0;0.75;0.5;1.25;0.5;0.5;0.5;0.5;0.0;0.5;-0.199707;0.032715;0.980957;-1.19;2.31;1.12;209.0;-0.198222;-0.069934;5.0;5.25;4.25;3.5;1.0;0.5;0.25;0.5;0.0;0.0;0.0;0.0;0.0;0.0;0.0;0.0;-0.228516;-0.008301;0.986328;-0.63;-0.63;0.7;195.0;-0.311766;-0.045172
2.25;4.75;4.25;2.5;4.0;1.25;1.25;0.25;0.75;0.25;0.75;0.5;0.5;0.5;0.5;0.25;0.5;-0.197266;0.033691;0.98291;-1.33;2.31;1.12;218.0;-0.210836;-0.075704;4.75;5.25;4.25;3.5;1.5;0.5;0.25;0.5;0.0;0.0;0.0;0.0;0.0;0.0;0.0;0.0;-0.226074;-0.007324;0.980957;-0.56;-0.63;0.77;198.0;-0.305945;-0.044312
2.26;4.75;4.25;2.75;4.0;1.0;1.25;0.0;0.75;0.0;1.0;0.5;0.5;0.5;0.25;0.25;0.25;-0.199707;0.037109;0.983398;-1.33;2.38;1.12;211.0;-0.228051;-0.084944;5.0;5.0;4.5;4.25;1.5;0.25;0.25;0.5;0.0;0.0;0.0;0.0;0.0;0.0;0.0;0.0;-0.22998;-0.011719;0.97998;-0.7;-0.63;0.63;206.0;-0.306617;-0.043487
2.27;4.75;4.0;2.25;4.0;0.75;1.5;0.0;0.75;0.25;1.0;0.5;0.5;0.5;0.0;0.0;0.25;-0.19873;0.033691;0.981934;-1.33;2.17;1.12;202.0;-0.232092;-0.089883;5.5;5.0;4.25;4.0;1.0;0.25;0.25;0.5;0.0;0.0;0.0;0.0;0.25;0.0;0.0;0.0;-0.233398;-0.010254;0.978516;-0.63;-0.56;0.77;203.0;-0.309442;-0.046068
2.28;4.5;4.0;2.0;4.0;0.75;1.0;0.0;0.75;0.25;1.25;0.75;0.5;0.5;0.25;0.0;0.25;-0.202637;0.029297;0.986328;-1.12;2.24;1.19;199.0;-0.214123;-0.085816;5.25;5.0;3.75;3.5;1.0;0.75;0.25;0.5;0.0;0.0;0.0;0.0;0.25;0.0;0.0;0.0;-0.229004;-0.016113;0.989258;-0.7;-0.56;0.7;195.0;-0.306007;-0.052676
2.29;4.75;4.5;2.5;4.0;1.0;1.0;0.0;0.75;0.25;1.0;0.5;0.5;0.25;0.25;0.0;0.25;-0.199707;0.036621;0.983398;-1.12;2.24;1.19;206.0;-0.234678;-0.076838;5.25;5.0;4.5;3.25;1.25;1.0;0.25;0.5;0.0;0.0;0.25;0.0;0.0;0.0;0.0;0.0;-0.225586;-0.007324;0.988281;-0.56;-0.49;0.77;206.0;-0.299072;-0.043332
2.3;4.25;4.25;2.25;4.0;1.0;1.25;0.0;0.5;0.0;1.0;0.5;0.25;0.25;0.25;0.0;0.25;-0.19873;0.032227;0.981934;-1.26;2.24;1.26;190.0;-0.244384;-0.082252;5.25;5.0;4.5;3.5;1.5;1.0;0.0;0.5;0.0;0.0;0.0;0.0;0.0;0.0;0.0;0.0;-0.223633;-0.008789;0.980469;-0.56;-0.49;0.7;205.0;-0.309394;-0.04829
2.31;4.25;4.25;2.25;4.0;1.0;1.0;0.0;0.5;0.0;1.0;0.25;0.25;0.5;0.25;0.0;0.25;-0.203125;0.027344;0.98584;-1.33;2.24;1.26;188.0;-0.24721;-0.083328;5.25;5.0;4.5;3.5;1.5;0.75;0.0;0.5;0.0;0.0;0.25;0.0;0.0;0.0;0.0;0.0;-0.225586;-0.010742;0.981934;-0.7;-0.56;0.63;205.0;-0.305044;-0.046351
2.32;4.5;4.5;2.5;4.0;1.0;1.0;0.0;0.5;0.25;1.0;0.25;0.25;0.5;0.0;0.0;0.25;-0.195312;0.035645;0.983887;-1.26;2.24;1.19;196.0;-0.250041;-0.076773;5.25;5.0;4.5;4.0;1.25;0.5;0.0;0.5;0.0;0.0;0.25;0.0;0.0;0.0;0.0;0.0;-0.229492;-0.008789;0.983887;-0.63;-0.56;0.7;205.0;-0.308677;-0.049294
2.33;4.5;4.75;2.75;4.0;0.75;1.25;0.0;0.5;0.25;0.75;0.5;0.25;0.25;0.25;0.0;0.25;-0.200684;0.029785;0.990234;-1.26;2.24;1.12;200.0;-0.25019;-0.075589;5.25;5.0;4.25;4.0;1.0;0.5;0.0;0.5;0.0;0.0;0.0;0.0;0.0;0.0;0.0;0.0;-0.227539;-0.011719;0.991211;-0.56;-0.63;0.63;197.0;-0.318059;-0.051688
2.34;4.25;4.25;2.5;3.5;0.75;1.25;0.0;0.5;0.0;0.75;0.5;0.5;0.25;0.5;0.0;0.5;-0.208008;0.030273;0.988281;-1.19;2.24;1.19;189.0;-0.234617;-0.081461;5.25;5.25;4.5;4.0;1.25;0.75;0.0;0.25;0.0;0.0;0.25;0.0;0.0;0.0;0.0;0.0;-0.229492;0.002441;0.983887;-0.7;-0.56;0.63;206.0;-0.312896;-0.047407
2.35;4.25;4.25;2.25;3.5;1.25;1.25;0.0;0.5;0.0;0.5;0.75;0.5;0.5;0.25;0.0;0.5;-0.199707;0.032227;0.984375;-1.19;2.24;1.19;191.0;-0.233871;-0.088839;5.5;5.25;4.75;3.5;1.5;1.0;0.25;0.5;0.0;0.0;0.0;0.0;0.0;0.0;0.0;0.0;-0.230469;-0.001465;0.989258;-0.7;-0.56;0.63;215.0;-0.304646;-0.041374
2.36;4.75;4.0;2.25;4.0;0.75;1.25;0.25;0.5;0.25;0.75;0.5;0.75;0.5;0.5;0.0;0.5;-0.200684;0.03418;0.992188;-1.19;2.31;1.26;205.0;-0.215851;-0.077341;5.25;5.25;5.25;3.5;1.5;0.75;0.25;0.5;0.0;0.25;0.0;0.0;0.0;0.0;0.0;0.0;-0.224609;-0.004395;0.989746;-0.7;-0.49;0.77;218.0;-0.298447;-0.036154
2.37;4.5;4.5;2.25;3.5;0.5;0.5;0.0;0.25;0.0;1.25;0.5;0.25;0.25;0.25;0.0;0.25;-0.19873;0.03418;0.985352;-1.19;2.38;1.26;176.0;-0.252674;-0.064574;5.5;5.5;4.5;4.0;1.5;0.75;0.25;0.5;0.0;0.0;0.0;0.0;0.0;0.0;0.0;0.0;-0.227051;-0.011719;0.983887;-0.63;-0.56;0.7;217.0;-0.307542;-0.045701
2.38;4.25;4.5;2.75;3.5;0.75;0.75;0.0;0.25;0.0;0.75;0.5;0.25;0.25;0.25;0.0;0.25;-0.203125;0.036133;0.989746;-1.19;2.24;1.19;179.0;-0.260954;-0.067018;5.25;5.5;4.5;4.25;1.75;1.0;0.25;0.5;0.0;0.0;0.0;0.0;0.0;0.0;0.0;0.0;-0.231934;-0.01416;0.976074;-0.56;-0.42;0.63;223.0;-0.302504;-0.050698
2.39;4.5;4.25;2.75;4.0;1.0;1.25;0.0;0.5;0.25;0.75;0.5;0.5;0.5;0.25;0.25;0.5;-0.20459;0.031738;0.985352;-1.26;2.31;1.12;207.0;-0.22449;-0.079891;5.25;5.25;4.5;4.0;1.75;1.0;0.25;0.5;0.0;0.0;0.25;0.0;0.0;0.0;0.0;0.0;-0.22998;-0.008789;0.977539;-0.56;-0.49;0.77;220.0;-0.295841;-0.04832
2.4;4.25;4.25;2.75;3.75;0.5;0.5;0.0;0.5;0.25;0.75;0.5;0.25;0.5;0.5;0.25;0.5;-0.195312;0.033691;0.984863;-1.26;2.38;1.05;189.0;-0.225859;-0.071036;5.25;5.25;4.5;3.75;1.5;0.5;0.25;0.5;0.0;0.0;0.5;0.0;0.0;0.0;0.0;0.0;-0.229492;-0.010254;0.984375;-0.49;-0.42;0.84;213.0;-0.295439;-0.04304
2.41;4.25;3.75;2.25;3.75;0.5;0.5;0.0;0.5;0.0;0.25;0.75;0.0;0.5;0.25;0.0;0.25;-0.196777;0.034668;0.981934;-1.33;2.24;1.12;166.0;-0.262781;-0.081966;5.25;5.25;4.5;3.75;1.5;0.75;0.25;0.5;0.0;0.0;0.25;0.0;0.0;0.0;0.0;0.0;-0.232422;-0.013672;0.991699;-0.42;-0.42;0.84;213.0;-0.29963;-0.044907
2.42;4.25;4.0;2.0;3.75;0.75;1.0;0.0;0.5;0.25;0.25;0.5;0.25;0.5;0.0;0.0;0.5;-0.20166;0.036621;0.98877;-1.4;2.24;1.12;175.0;-0.253882;-0.089766;5.25;5.25;4.5;3.75;1.5;1.0;0.25;0.5;0.0;0.0;0.25;0.0;0.0;0.0;0.0;0.0;-0.230469;-0.010254;0.982422;-0.49;-0.42;0.77;215.0;-0.297927;-0.047542
2.43;4.5;4.25;2.25;4.0;1.0;1.25;0.0;0.5;0.25;0.5;0.5;0.5;0.25;0.5;0.0;0.5;-0.20166;0.029297;0.98584;-1.4;2.24;1.12;197.0;-0.234474;-0.079565;5.5;5.25;4.5;3.5;1.5;0.5;0.25;0.5;0.0;0.0;0.0;0.0;0.25;0.0;0.0;0.0;-0.231445;-0.006836;0.981445;-0.49;-0.49;0.77;210.0;-0.304233;-0.041467
2.44;4.5;4.5;2.5;4.0;0.75;0.75;0.0;0.5;0.5;0.25;0.75;0.25;0.25;0.25;0.0;0.5;-0.20752;0.036133;0.98584;-1.33;2.24;1.12;192.0;-0.245063;-0.071736;5.5;5.0;4.5;3.5;1.5;0.5;0.25;0.5;0.0;0.0;0.0;0.0;0.0;0.0;0.0;0.0;-0.223145;-0.009766;0.983887;-0.49;-0.35;0.77;206.0;-0.307674;-0.036118
2.45;4.75;4.5;2.5;4.0;0.75;1.0;0.0;0.5;0.25;0.25;0.5;0.0;0.5;0.0;0.0;0.75;-0.19873;0.039551;0.992188;-1.19;2.17;1.19;191.0;-0.263769;-0.08237;5.25;5.25;4.25;3.5;1.5;0.5;0.25;0.5;0.0;0.0;0.0;0.0;0.0;0.0;0.0;0.0;-0.228027;-0.008789;0.979492;-0.49;-0.56;0.84;203.0;-0.308219;-0.040737
2.46;5.0;4.5;2.5;3.5;0.75;0.5;0.0;0.75;0.0;0.5;0.25;0.5;0.5;0.25;0.0;0.75;-0.199707;0.032715;0.989258;-1.26;2.38;1.12;190.0;-0.252314;-0.083005;5.25;5.25;4.25;3.75;1.5;0.5;0.25;0.5;0.0;0.0;0.0;0.0;0.0;0.0;0.0;0.0;-0.227051;-0.010254;0.986816;-0.56;-0.42;0.77;205.0;-0.307967;-0.042986
2.47;4.5;4.5;3.0;4.0;1.0;0.5;0.0;0.75;0.25;0.75;0.5;0.5;0.5;0.5;0.0;0.5;-0.198242;0.033203;0.980469;-1.26;2.17;1.19;207.0;-0.227355;-0.0745;5.5;5.0;4.25;4.0;1.5;0.5;0.0;0.5;0.0;0.0;0.0;0.0;0.0;0.0;0.0;0.0;-0.223633;-0.004883;0.987305;-0.56;-0.35;0.84;205.0;-0.314316;-0.047057
2.48;4.75;4.5;2.75;4.0;0.75;0.75;0.0;0.75;0.25;1.0;0.5;0.5;0.75;0.5;0.0;0.25;-0.19873;0.029297;0.984375;-1.26;2.24;1.12;210.0;-0.223631;-0.079093;5.75;5.25;4.5;4.0;1.5;0.5;0.0;0.5;0.0;0.0;0.0;0.0;0.0;0.0;0.0;0.0;-0.229492;-0.003906;0.980957;-0.77;-0.42;0.77;212.0;-0.31574;-0.044853
2.49;4.25;4.5;2.25;4.0;0.75;1.25;0.0;0.75;0.0;1.0;1.0;0.5;0.25;0.75;0.0;0.5;-0.194336;0.03125;0.984375;-1.19;2.24;1.12;206.0;-0.211294;-0.089844;5.5;5.25;4.5;3.5;1.5;0.5;0.25;0.5;0.0;0.0;0.0;0.0;0.0;0.0;0.0;0.0;-0.224609;-0.005859;0.983398;-0.7;-0.28;0.77;208.0;-0.308778;-0.037435
2.5;4.5;4.5;2.5;4.0;0.75;1.0;0.0;1.0;0.0;0.75;0.5;0.5;0.0;0.5;0.0;0.5;-0.208008;0.034668;0.978027;-1.19;2.31;1.12;201.0;-0.237174;-0.088291;5.25;5.25;4.5;3.5;1.5;0.25;0.25;0.5;0.0;0.0;0.25;0.0;0.0;0.0;0.0;0.0;-0.228027;-0.015625;0.983398;-0.7;-0.28;0.77;205.0;-0.30335;-0.037184
2.51;4.75;4.5;2.75;4.0;1.0;1.25;0.0;0.5;0.25;0.75;0.0;0.5;0.25;0.25;0.0;0.5;-0.197754;0.036133;0.978027;-1.26;2.31;1.19;202.0;-0.250719;-0.073924;5.5;4.75;4.5;3.5;1.75;0.5;0.25;0.5;0.0;0.0;0.0;0.0;0.0;0.0;0.0;0.0;-0.226074;-0.008789;0.979492;-0.7;-0.35;0.63;206.0;-0.304338;-0.033602
2.52;4.75;4.5;2.5;4.25;1.25;0.75;0.0;0.5;0.0;1.0;0.0;0.75;0.5;0.25;0.0;0.0;-0.199219;0.029785;0.984863;-1.12;2.24;1.05;201.0;-0.25151;-0.07836;5.25;5.25;4.25;4.0;1.75;0.5;0.25;0.5;0.0;0.0;0.0;0.0;0.0;0.0;0.0;0.0;-0.232422;-0.012207;0.981934;-0.7;-0.35;0.7;210.0;-0.305544;-0.043909
2.53;4.75;4.5;2.75;4.0;0.75;0.75;0.0;0.25;0.25;1.0;0.25;0.5;0.5;0.5;0.0;0.25;-0.19873;0.034668;0.991211;-1.33;2.38;1.12;198.0;-0.240412;-0.063844;5.5;5.25;4.5;4.25;1.25;0.5;0.25;0.5;0.0;0.0;0.0;0.0;0.0;0.0;0.0;0.0;-0.231934;-0.006348;0.990723;-0.77;-0.21;0.84;213.0;-0.310193;-0.045229
2.54;4.75;4.5;2.75;3.75;0.75;1.0;0.0;0.5;0.0;1.0;0.5;0.5;0.5;0.25;0.0;0.5;-0.204102;0.035156;0.986816;-1.33;2.45;1.19;201.0;-0.239237;-0.079682;5.25;5.25;4.5;3.5;1.25;0.25;0.25;0.5;0.0;0.0;0.25;0.0;0.0;0.0;0.0;0.0;-0.231934;-0.004883;0.984863;-0.77;-0.28;0.63;203.0;-0.305554;-0.038404
2.55;4.5;4.5;2.0;4.0;0.5;1.25;0.0;0.5;0.0;0.75;0.5;0.5;0.5;0.0;0.0;0.5;-0.201172;0.035156;0.986816;-1.19;2.38;1.19;189.0;-0.249916;-0.099734;5.25;4.5;4.25;3.0;1.25;0.25;0.25;0.5;0.0;0.0;0.5;0.0;0.0;0.0;0.0;0.0;-0.224609;-0.004395;0.987305;-0.77;-0.35;0.77;191.0;-0.296243;-0.031972
2.56;4.5;4.25;2.25;4.0;0.25;1.25;0.0;0.5;0.0;1.0;0.5;0.75;0.5;0.25;0.0;0.5;-0.198242;0.033203;0.983398;-1.26;2.52;1.12;193.0;-0.231475;-0.096237;5.25;4.75;4.0;3.5;1.25;0.5;0.25;0.5;0.0;0.0;0.25;0.0;0.0;0.0;0.0;0.0;-0.234375;-0.005859;0.982422;-0.77;-0.28;0.77;196.0;-0.302266;-0.041963
2.57;4.75;4.5;2.5;4.0;0.75;1.25;0.25;0.25;0.25;1.25;0.5;1.25;0.5;0.25;0.0;0.25;-0.200195;0.033691;0.984863;-1.19;2.59;1.12;214.0;-0.213077;-0.074728;5.25;5.0;4.0;3.5;1.25;0.25;0.25;0.5;0.0;0.0;0.0;0.0;0.0;0.0;0.0;0.0;-0.231934;-0.006348;0.989746;-0.7;-0.14;0.7;193.0;-0.311989;-0.039426
2.58;4.75;4.5;2.0;4.25;1.0;1.5;0.0;0.25;0.0;1.25;0.5;0.25;0.75;0.25;0.0;0.5;-0.197266;0.032715;0.990234;-1.33;2.66;1.12;204.0;-0.235496;-0.086765;5.0;5.0;3.75;3.25;1.25;0.25;0.25;0.25;0.0;0.0;0.0;0.0;0.0;0.0;0.0;0.0;-0.228516;-0.009766;0.982422;-0.63;-0.14;0.77;182.0;-0.317504;-0.033882
2.59;4.25;4.5;2.0;3.0;0.5;1.25;0.0;0.5;0.25;1.25;0.5;0.25;0.75;0.25;0.0;0.5;-0.191406;0.03418;0.98291;-1.12;2.52;1.12;186.0;-0.219678;-0.083824;5.5;4.75;4.0;3.25;1.25;0.25;0.25;0.5;0.0;0.0;0.0;0.0;0.0;0.0;0.0;0.0;-0.226562;-0.009277;0.98291;-0.84;-0.35;0.77;191.0;-0.312289;-0.033755
2.6;4.25;4.5;2.75;3.25;0.5;1.5;0.0;0.5;0.25;1.25;0.5;0.25;0.5;0.5;0.0;0.25;-0.198242;0.030762;0.986328;-1.19;2.38;1.12;197.0;-0.222823;-0.073401;5.5;5.0;4.25;3.25;0.75;0.5;0.25;0.5;0.0;0.0;0.0;0.0;0.0;0.0;0.0;0.0;-0.233398;-0.008789;0.981934;-0.77;-0.35;0.7;193.0;-0.315608;-0.039126
2.61;4.75;4.5;3.0;4.0;0.5;1.5;0.0;0.5;0.0;1.25;0.25;0.5;0.5;0.5;0.25;0.25;-0.203125;0.033691;0.98584;-1.33;2.45;1.19;211.0;-0.229432;-0.079833;5.25;5.25;4.25;3.5;0.75;0.5;0.25;0.5;0.0;0.0;0.25;0.0;0.0;0.0;0.0;0.0;-0.229492;-0.008301;0.987305;-0.63;-0.35;0.77;198.0;-0.30872;-0.045536
2.62;4.5;4.25;3.5;4.0;0.75;1.25;0.25;0.5;0.25;1.0;0.25;0.25;0.5;0.5;0.0;0.5;-0.19873;0.037109;0.989258;-1.33;2.31;1.05;212.0;-0.228261;-0.063303;5.0;5.0;4.25;3.0;1.0;0.5;0.25;0.5;0.0;0.0;0.0;0.0;0.0;0.0;0.0;0.0;-0.234863;-0.006348;0.98291;-0.7;-0.42;0.77;188.0;-0.311238;-0.039033
2.63;5.0;4.25;2.25;4.0;0.5;1.25;0.0;0.5;0.25;1.25;0.5;0.5;0.5;0.5;0.0;0.5;-0.204102;0.031738;0.984863;-1.19;2.24;1.12;206.0;-0.220624;-0.077395;5.0;5.0;4.5;3.25;1.25;0.75;0.25;0.5;0.0;0.0;0.0;0.0;0.0;0.0;0.0;0.0;-0.22998;-0.01123;0.980469;-0.7;-0.35;0.63;198.0;-0.306003;-0.041394
2.64;4.75;4.5;2.25;4.0;0.5;1.5;0.0;0.5;0.5;0.75;0.25;0.5;0.5;0.25;0.0;0.5;-0.199219;0.030762;0.983398;-1.26;2.45;1.19;202.0;-0.234913;-0.083045;5.25;5.25;4.5;3.5;1.5;0.75;0.25;0.5;0.0;0.0;0.25;0.0;0.0;0.0;0.0;0.0;-0.229004;-0.008301;0.985352;-0.91;-0.35;0.77;210.0;-0.299774;-0.042761
2.65;4.75;4.5;2.25;4.0;0.75;1.5;0.0;0.5;0.25;0.75;0.25;0.25;0.5;0.0;0.0;0.5;-0.200684;0.033691;0.986328;-1.19;2.38;1.12;197.0;-0.252857;-0.086619;4.75;5.0;4.5;3.5;0.75;0.5;0.25;0.5;0.0;0.0;0.0;0.0;0.0;0.0;0.0;0.0;-0.232422;-0.012207;0.98291;-0.91;-0.35;0.84;191.0;-0.311306;-0.045351
2.66;4.5;4.0;2.25;4.0;0.75;1.25;0.0;0.5;0.25;0.75;0.5;0.25;0.5;0.25;0.0;0.5;-0.196777;0.037109;0.98291;-1.26;2.59;1.26;192.0;-0.235982;-0.08255;5.0;5.25;4.25;3.5;0.75;0.5;0.25;0.5;0.0;0.0;0.0;0.0;0.0;0.0;0.0;0.0;-0.233398;-0.002441;0.983398;-0.91;-0.28;0.63;193.0;-0.314192;-0.046558
2.67;4.25;4.0;2.5;3.5;0.75;1.5;0.0;0.5;0.25;1.0;0.25;0.5;0.5;0.0;0.0;0.5;-0.201172;0.036133;0.984375;-1.19;2.45;1.12;190.0;-0.232706;-0.084484;5.25;5.25;4.25;3.5;1.0;0.5;0.25;0.5;0.0;0.0;0.0;0.0;0.0;0.0;0.0;0.0;-0.233398;-0.007324;0.987793;-0.77;-0.35;0.63;198.0;-0.312862;-0.043328
2.68;4.25;4.25;2.75;3.75;0.75;1.5;0.0;0.75;0.0;0.5;0.25;0.5;0.5;0.25;0.0;0.5;-0.19873;0.036621;0.986816;-1.19;2.45;1.12;195.0;-0.244484;-0.096877;5.25;5.25;4.25;3.5;1.0;0.25;0.0;0.5;0.0;0.0;0.25;0.0;0.0;0.0;0.0;0.0;-0.22998;-0.009277;0.988281;-0.77;-0.35;0.7;194.0;-0.315334;-0.046413
2.69;4.75;4.0;1.75;3.5;0.75;1.5;0.25;0.75;0.0;0.5;0.5;0.5;0.5;0.5;0.0;0.5;-0.202148;0.035645;0.990234;-1.33;2.45;1.12;193.0;-0.22646;-0.090581;5.25;5.0;4.5;3.5;1.25;0.25;0.25;0.5;0.0;0.0;0.25;0.0;0.0;0.0;0.0;0.0;-0.227051;-0.01416;0.978516;-0.63;-0.28;0.7;201.0;-0.304389;-0.037064
2.7;4.25;4.0;2.0;3.5;1.0;1.25;0.0;0.75;0.25;0.5;0.25;0.5;0.5;0.5;0.0;0.75;-0.203613;0.03418;0.978516;-1.26;2.38;1.12;189.0;-0.222053;-0.090247;5.25;5.25;4.25;3.75;1.5;0.5;0.25;0.5;0.0;0.25;0.0;0.0;0.0;0.0;0.0;0.0;-0.22998;-0.011719;0.978516;-0.7;-0.49;0.7;208.0;-0.301689;-0.041762
2.71;4.0;4.0;1.75;3.75;0.75;1.5;0.0;0.75;0.5;0.75;0.5;0.5;0.5;0.5;0.0;0.25;-0.19873;0.035156;0.983398;-1.33;2.45;1.12;192.0;-0.209248;-0.091021;5.25;5.25;4.25;4.0;1.5;0.25;0.25;0.5;0.0;0.0;0.0;0.0;0.0;0.0;0.0;0.0;-0.22168;-0.012207;0.98291;-0.77;-0.35;0.77;205.0;-0.309605;-0.042423
2.72;4.25;4.25;1.75;3.5;0.75;1.5;0.0;0.75;0.25;0.75;0.75;0.25;0.25;0.5;0.0;0.0;-0.199707;0.026855;0.979492;-1.19;2.31;1.19;187.0;-0.228062;-0.085644;5.25;5.0;4.25;4.0;1.5;0.25;0.25;0.5;0.0;0.0;0.0;0.0;0.0;0.0;0.0;0.0;-0.228027;-0.006348;0.982422;-0.7;-0.35;0.84;203.0;-0.308496;-0.041142
2.73;4.25;4.5;2.5;3.5;0.5;1.5;0.0;0.5;0.25;1.0;0.5;0.25;0.25;0.25;0.25;0.5;-0.201172;0.034668;0.987305;-1.26;2.38;1.12;194.0;-0.227602;-0.079368;5.25;5.0;4.25;4.0;1.5;0.5;0.25;0.5;0.0;0.0;0.0;0.0;0.0;0.0;0.0;0.0;-0.228027;-0.003906;0.985352;-0.77;-0.42;0.84;206.0;-0.306607;-0.043944
2.74;4.5;4.5;2.5;3.75;0.5;1.25;0.25;0.5;0.5;1.0;0.5;0.5;0.5;0.0;0.25;0.5;-0.197754;0.033203;0.991211;-1.19;2.45;1.19;206.0;-0.216104;-0.074712;5.25;5.0;4.5;3.5;1.5;0.5;0.25;0.5;0.0;0.0;0.0;0.0;0.0;0.0;0.0;0.0;-0.230469;-0.006836;0.984863;-0.77;-0.35;0.77;203.0;-0.306559;-0.037806
2.75;4.25;4.25;2.5;4.0;0.75;1.25;0.25;0.5;0.25;0.75;0.5;0.5;0.5;0.25;0.0;0.5;-0.205078;0.03125;0.984863;-1.19;2.45;1.19;200.0;-0.22541;-0.080408;5.25;5.0;4.25;4.0;1.0;0.5;0.25;0.5;0.0;0.0;0.0;0.0;0.0;0.0;0.0;0.0;-0.230957;-0.003906;0.984375;-0.77;-0.35;0.7;201.0;-0.311142;-0.046578
2.76;4.5;4.25;2.75;3.75;0.75;1.5;0.0;0.5;0.25;0.75;0.75;0.5;0.5;0.25;0.0;0.25;-0.199219;0.035156;0.988281;-1.26;2.52;1.19;203.0;-0.229859;-0.081173;5.25;5.0;4.0;3.0;1.0;0.75;0.25;0.5;0.0;0.0;0.25;0.0;0.0;0.0;0.0;0.0;-0.225586;-0.010254;0.990723;-0.84;-0.35;0.7;193.0;-0.304263;-0.042883
2.77;4.5;4.25;2.5;4.25;1.0;1.5;0.0;0.75;0.5;1.0;0.5;0.5;0.5;0.25;0.0;0.0;-0.191895;0.026367;0.98877;-1.33;2.52;1.12;213.0;-0.222508;-0.081623;5.0;4.75;4.25;4.0;1.75;0.75;0.25;0.5;0.0;0.0;0.25;0.0;0.0;0.0;0.0;0.0;-0.230469;-0.004395;0.983398;-0.7;-0.35;0.7;209.0;-0.294268;-0.046732
2.78;4.0;4.0;2.0;3.75;0.5;1.5;0.0;0.75;0.25;1.25;0.5;0.5;0.5;0.25;0.0;0.25;-0.19873;0.030762;0.987793;-1.26;2.59;1.12;192.0;-0.213543;-0.095214;5.0;5.0;4.5;3.5;1.0;0.5;0.25;0.5;0.0;0.0;0.0;0.0;0.25;0.0;0.0;0.0;-0.22998;-0.012207;0.987793;-0.7;-0.21;0.77;198.0;-0.305205;-0.046347
2.79;4.0;3.75;2.0;4.0;0.5;1.75;0.0;0.75;0.0;1.25;0.75;0.5;0.5;0.5;0.0;0.5;-0.200195;0.033203;0.986816;-1.12;2.59;1.19;197.0;-0.203502;-0.102891;5.25;4.5;4.25;3.75;0.75;0.5;0.25;0.5;0.0;0.0;0.0;0.0;0.0;0.0;0.0;0.0;-0.224121;-0.013184;0.980469;-0.7;-0.35;0.7;192.0;-0.311567;-0.04303
2.8;4.25;4.25;2.0;3.5;0.75;1.25;0.0;0.75;0.0;1.25;0.75;0.75;0.25;0.25;0.0;0.5;-0.203125;0.032227;0.990723;-1.19;2.59;1.12;195.0;-0.21356;-0.093604;4.75;4.5;4.5;4.0;2.0;0.75;0.25;0.5;0.0;0.0;0.0;0.0;0.0;0.0;0.0;0.0;-0.226562;-0.010742;0.983887;-0.7;-0.35;0.84;207.0;-0.295388;-0.043508
2.81;4.75;4.0;1.75;3.25;0.75;1.25;0.0;0.75;0.25;0.5;0.75;0.5;0.25;0.25;0.0;0.5;-0.205566;0.035645;0.992188;-1.4;2.38;1.19;186.0;-0.229744;-0.085859;4.75;5.0;4.5;4.0;1.75;0.25;0.25;0.5;0.0;0.0;0.25;0.0;0.0;0.0;0.0;0.0;-0.233398;-0.009277;0.987305;-0.77;-0.42;0.63;206.0;-0.297339;-0.042593
2.82;4.25;4.0;2.0;3.25;0.75;1.25;0.0;0.5;0.25;0.5;0.75;0.5;0.25;0.5;0.0;0.5;-0.200195;0.033203;0.985352;-1.19;2.45;1.12;182.0;-0.222992;-0.079796;5.25;5.0;4.5;3.75;1.5;0.25;0.25;0.5;0.0;0.0;0.25;0.0;0.25;0.0;0.0;0.0;-0.227051;-0.006836;0.98291;-0.7;-0.42;0.63;208.0;-0.297473;-0.042218
2.83;4.25;4.25;2.5;3.5;0.75;1.5;0.0;0.5;0.0;0.75;0.75;0.5;0.25;0.25;0.0;0.5;-0.194824;0.029297;0.985352;-1.33;2.52;1.05;192.0;-0.234388;-0.087016;5.0;5.0;3.75;3.5;0.75;0.25;0.25;0.5;0.0;0.0;0.25;0.0;0.0;0.0;0.0;0.0;-0.229004;-0.01416;0.985352;-0.7;-0.28;0.63;186.0;-0.309577;-0.046799
2.84;4.25;4.25;2.25;3.75;0.75;1.5;0.0;0.5;0.0;0.75;1.0;0.5;0.5;0.25;0.25;0.5;-0.20459;0.030762;0.97998;-1.19;2.38;1.26;198.0;-0.217238;-0.095083;5.0;5.0;4.25;3.5;1.25;0.5;0.25;0.25;0.0;0.0;0.0;0.0;0.0;0.0;0.0;0.0;-0.226562;-0.007324;0.987793;-0.77;-0.28;0.84;192.0;-0.313595;-0.036195
2.85;4.25;4.25;2.25;3.25;0.75;1.5;0.0;0.5;0.25;0.75;0.75;0.5;0.5;0.5;0.0;0.75;-0.194824;0.03418;0.98877;-1.26;2.52;1.12;195.0;-0.21132;-0.084633;5.0;5.0;4.5;3.5;1.5;0.25;0.25;0.5;0.0;0.0;0.0;0.0;0.0;0.0;0.0;0.0;-0.229492;-0.010742;0.984863;-0.77;-0.42;0.77;198.0;-0.307339;-0.036609
2.86;4.0;4.0;2.5;3.5;0.75;1.0;0.0;0.25;0.25;1.0;0.75;0.5;0.5;0.25;0.25;0.5;-0.20166;0.032227;0.982422;-1.4;2.52;1.12;188.0;-0.210221;-0.074325;5.0;4.75;4.25;3.5;1.5;0.5;0.25;0.5;0.0;0.25;0.25;0.0;0.25;0.0;0.0;0.0;-0.226074;-0.011719;0.979492;-0.63;-0.35;0.63;203.0;-0.287447;-0.043675
2.87;3.75;4.0;2.25;3.5;0.75;1.0;0.0;0.25;0.25;1.25;1.0;0.75;0.5;0.25;0.25;0.5;-0.201172;0.032715;0.983398;-1.12;2.38;1.19;191.0;-0.190692;-0.080385;5.25;4.75;4.5;3.0;1.25;0.5;0.25;0.5;0.0;0.0;0.0;0.0;0.0;0.0;0.0;0.0;-0.227051;-0.007324;0.984863;-0.63;-0.35;0.84;194.0;-0.308204;-0.032852
2.88;4.0;4.0;2.75;3.25;0.75;1.25;0.0;0.25;0.0;1.25;0.5;0.25;0.5;0.0;0.0;0.5;-0.197754;0.031738;0.98291;-1.26;2.45;1.12;181.0;-0.237203;-0.075721;5.25;5.25;4.5;3.5;1.0;0.5;0.0;0.5;0.0;0.0;0.0;0.0;0.0;0.0;0.0;0.0;-0.229492;-0.008789;0.985352;-0.7;-0.49;0.7;197.0;-0.319207;-0.046671
2.89;4.25;4.0;2.75;4.0;1.0;1.25;0.0;0.5;0.25;0.75;0.5;0.25;0.5;0.25;0.0;0.75;-0.199707;0.032227;0.98584;-1.19;2.45;1.19;199.0;-0.229594;-0.080046;5.0;5.0;4.5;3.5;1.0;0.5;0.0;0.5;0.0;0.25;0.0;0.0;0.0;0.0;0.0;0.0;-0.234863;-0.008301;0.981934;-0.63;-0.42;0.77;195.0;-0.310299;-0.04592
2.9;4.25;4.5;2.5;4.0;1.25;1.5;0.0;0.5;0.25;0.75;0.75;0.5;0.5;0.25;0.25;0.5;-0.202637;0.03418;0.983398;-1.19;2.52;1.19;211.0;-0.216769;-0.085913;5.0;5.0;4.5;3.5;1.25;0.5;0.0;0.5;0.0;0.0;0.25;0.0;0.0;0.0;0.0;0.0;-0.226562;-0.007324;0.987793;-0.49;-0.42;0.77;197.0;-0.308078;-0.046728
2.91;4.25;4.0;2.75;4.0;1.25;1.5;0.25;0.5;0.25;1.0;0.75;0.5;0.5;0.25;0.25;0.75;-0.202637;0.027344;0.988281;-1.26;2.31;1.12;217.0;-0.200332;-0.076672;5.25;5.25;4.5;4.0;1.25;0.5;0.0;0.5;0.0;0.0;0.0;0.0;0.0;0.0;0.0;0.0;-0.229492;-0.009277;0.981934;-0.56;-0.35;0.77;204.0;-0.31605;-0.049717
2.92;4.25;4.0;1.75;3.75;0.75;1.5;0.25;0.5;0.0;0.75;0.5;1.0;0.5;0.25;0.0;0.5;-0.198242;0.031738;0.984863;-1.26;2.38;1.12;192.0;-0.216558;-0.097753;5.25;5.0;4.25;4.0;1.25;0.5;0.0;0.5;0.0;0.0;0.0;0.0;0.0;0.0;0.0;0.0;-0.225586;-0.010742;0.983398;-0.63;-0.42;0.77;200.0;-0.315636;-0.050267
2.93;4.5;4.25;1.5;3.0;0.75;1.25;0.0;0.5;0.0;0.5;0.5;0.25;0.5;0.0;0.0;0.5;-0.203125;0.032227;0.987793;-1.19;2.24;1.05;169.0;-0.256734;-0.094306;5.25;5.25;4.25;3.75;1.25;0.5;0.0;0.5;0.0;0.25;0.0;0.0;0.0;0.0;0.0;0.0;-0.234863;-0.005859;0.980957;-0.63;-0.42;0.77;202.0;-0.310484;-0.047959
2.94;4.25;4.25;2.0;3.75;0.5;1.5;0.25;0.5;0.0;0.75;0.5;0.25;0.5;0.5;0.0;0.5;-0.200684;0.032715;0.98584;-1.47;2.52;1.05;189.0;-0.230451;-0.08769;5.5;5.25;4.25;3.5;1.25;0.5;0.0;0.5;0.0;0.0;0.0;0.0;0.0;0.0;0.0;0.0;-0.22998;-0.007812;0.978027;-0.63;-0.49;0.84;199.0;-0.318453;-0.045203
2.95;4.25;4.25;2.0;3.75;0.5;1.5;0.0;0.5;0.0;0.75;0.5;0.5;0.5;0.25;0.5;0.5;-0.202148;0.033691;0.983398;-1.19;2.31;1.12;191.0;-0.221017;-0.09892;5.25;5.25;4.25;4.0;1.5;0.5;0.25;0.5;0.0;0.0;0.0;0.0;0.0;0.0;0.0;0.0;-0.226562;-0.010254;0.984375;-0.56;-0.42;0.91;208.0;-0.307721;-0.045181
2.96;4.25;4.5;2.0;3.5;0.5;1.5;0.0;0.5;0.5;0.75;0.5;0.5;0.5;0.0;0.25;0.5;-0.193848;0.031738;0.981934;-1.26;2.24;1.19;192.0;-0.221753;-0.089406;5.25;5.25;4.5;3.25;1.5;0.5;0.25;0.25;0.0;0.0;0.0;0.0;0.0;0.0;0.0;0.0;-0.227539;-0.009277;0.978027;-0.7;-0.35;0.84;199.0;-0.313089;-0.030637
2.97;4.5;4.25;2.25;3.5;0.5;1.5;0.0;0.5;0.5;1.0;0.5;0.5;0.5;0.5;0.0;0.25;-0.20166;0.02832;0.988281;-1.33;2.38;1.19;198.0;-0.215685;-0.075455;5.25;5.0;4.5;3.0;1.75;0.5;0.25;0.25;0.0;0.0;0.25;0.0;0.0;0.0;0.0;0.0;-0.227051;-0.015137;0.984863;-0.63;-0.28;0.7;200.0;-0.303496;-0.026635
2.98;4.25;4.5;2.0;3.25;0.75;1.5;0.0;0.5;0.5;0.5;0.75;0.25;0.5;0.25;0.0;0.25;-0.20459;0.03418;0.985352;-1.26;2.38;1.12;188.0;-0.230619;-0.081049;4.75;5.0;4.5;2.5;1.75;0.5;0.25;0.5;0.0;0.0;0.25;0.0;0.0;0.0;0.0;0.0;-0.229004;-0.010742;0.986328;-0.56;-0.42;0.7;193.0;-0.296232;-0.031373
2.99;4.25;4.5;2.25;3.5;0.75;1.5;0.0;0.75;0.5;0.5;0.5;0.5;0.5;0.0;0.0;0.5;-0.200684;0.035645;0.978516;-1.26;2.31;1.19;196.0;-0.230733;-0.092461;5.25;5.0;4.5;4.0;1.75;0.75;0.25;0.5;0.0;0.0;0.0;0.0;0.0;0.0;0.0;0.0;-0.231934;-0.008789;0.98291;-0.63;-0.35;0.63;213.0;-0.30218;-0.04378
3.0;4.25;4.0;2.25;4.0;0.75;1.5;0.25;0.75;0.5;0.5;0.5;0.25;0.5;0.0;0.0;0.5;-0.19873;0.037109;0.991211;-1.19;2.38;1.19;198.0;-0.228102;-0.08587;5.0;5.0;4.5;4.0;1.75;0.75;0.25;0.5;0.0;0.0;0.25;0.0;0.25;0.0;0.0;0.0;-0.228516;-0.010742;0.983398;-0.77;-0.35;0.77;215.0;-0.29083;-0.050129
3.01;4.5;3.75;2.0;4.0;1.0;1.5;0.25;0.5;0.25;0.75;1.0;0.5;0.5;0.25;0.25;1.0;-0.200195;0.030273;0.986328;-1.19;2.38;1.19;208.0;-0.195727;-0.084912;5.25;5.0;4.5;3.5;1.25;0.5;0.25;0.5;0.0;0.0;0.0;0.0;0.0;0.0;0.0;0.0;-0.225098;-0.005859;0.980957;-0.77;-0.35;0.56;201.0;-0.308826;-0.039046
3.02;4.0;4.25;2.25;3.25;0.5;1.5;0.25;0.5;0.25;0.75;0.5;0.75;0.75;0.25;0.0;0.5;-0.197754;0.037109;0.989258;-1.19;2.31;1.19;192.0;-0.211063;-0.090336;5.25;5.25;4.5;3.5;1.75;0.75;0.25;0.5;0.0;0.0;0.0;0.0;0.0;0.0;0.0;0.0;-0.229004;-0.007324;0.985352;-0.77;-0.35;0.63;210.0;-0.303673;-0.040686
3.03;4.25;4.25;2.0;3.0;0.5;1.25;0.0;0.5;0.25;0.5;0.5;0.5;0.5;0.25;0.0;0.25;-0.20459;0.030762;0.979492;-1.4;2.59;1.19;175.0;-0.238679;-0.085826;5.25;5.0;4.5;3.5;1.75;0.75;0.0;0.5;0.0;0.0;0.0;0.0;0.0;0.0;0.0;0.0;-0.232422;-0.006836;0.986816;-0.77;-0.42;0.7;205.0;-0.309046;-0.044218
3.04;4.75;4.0;2.75;3.25;0.75;1.25;0.0;0.5;0.25;0.5;1.0;0.25;0.5;0.5;0.0;0.0;-0.20459;0.027344;0.985352;-1.26;2.45;1.12;194.0;-0.232391;-0.067187;5.25;5.25;4.5;4.0;1.5;0.75;0.0;0.5;0.0;0.0;0.25;0.0;0.25;0.0;0.0;0.0;-0.232422;-0.010742;0.982422;-0.56;-0.42;0.7;214.0;-0.301309;-0.055592
3.05;4.25;4.0;2.0;4.0;1.0;1.25;0.0;0.5;0.0;1.0;0.25;0.5;0.5;0.5;0.25;0.25;-0.207031;0.030273;0.982422;-1.19;2.45;1.12;192.0;-0.223224;-0.087167;5.0;4.75;4.25;4.0;1.5;0.75;0.0;0.5;0.0;0.0;0.5;0.0;0.0;0.0;0.0;0.0;-0.231445;-0.009277;0.981934;-0.63;-0.42;0.63;205.0;-0.296631;-0.053781
3.06;4.25;4.0;2.25;3.5;1.25;1.25;0.0;0.5;0.0;1.0;0.25;0.5;0.75;0.5;0.25;0.25;-0.201172;0.033203;0.987305;-1.4;2.45;1.12;194.0;-0.21682;-0.083215;5.0;4.75;4.0;4.0;2.0;0.75;0.25;0.5;0.0;0.0;0.25;0.0;0.0;0.0;0.0;0.0;-0.229004;-0.011719;0.981934;-0.7;-0.28;0.7;209.0;-0.292587;-0.047096
3.07;4.25;4.0;2.5;3.0;0.75;1.25;0.0;0.5;0.0;1.25;0.5;0.5;0.5;0.5;0.0;0.25;-0.199219;0.034668;0.984863;-1.19;2.45;1.12;187.0;-0.218737;-0.075471;5.25;5.0;4.0;4.25;1.25;1.0;0.25;0.5;0.0;0.25;0.5;0.0;0.0;0.0;0.0;0.0;-0.229004;-0.012695;0.983398;-0.63;-0.35;0.84;215.0;-0.287539;-0.054556
3.08;4.25;3.75;2.25;3.0;0.75;1.25;0.0;0.5;0.0;0.5;0.5;0.5;0.5;0.5;0.0;0.25;-0.199707;0.037109;0.988281;-1.19;2.45;1.12;175.0;-0.23437;-0.082453;5.25;5.0;4.5;4.25;1.0;1.0;0.0;0.5;0.0;0.0;0.25;0.0;0.0;0.0;0.0;0.0;-0.228516;-0.012695;0.981934;-0.56;-0.35;0.56;210.0;-0.306908;-0.058025
3.09;4.5;4.25;2.5;3.25;0.75;1.25;0.25;0.5;0.0;0.5;0.75;0.5;0.25;0.25;0.0;0.25;-0.205566;0.032715;0.986328;-1.26;2.66;1.12;189.0;-0.240986;-0.074602;5.25;5.0;4.5;4.0;1.5;1.0;0.0;0.5;0.0;0.0;0.25;0.0;0.0;0.0;0.0;0.0;-0.226074;-0.005859;0.979492;-0.63;-0.35;0.77;212.0;-0.302839;-0.053228
3.1;4.25;4.0;2.75;3.25;0.75;1.25;0.25;0.5;0.25;0.75;1.0;0.5;0.5;0.5;0.0;0.25;-0.202637;0.030273;0.984375;-1.12;2.52;1.12;199.0;-0.20808;-0.068701;5.25;4.75;4.25;4.0;1.25;1.0;0.25;0.5;0.0;0.0;0.25;0.25;0.0;0.0;0.0;0.0;-0.227051;-0.007324;0.983887;-0.56;-0.42;0.84;211.0;-0.292078;-0.053075
3.11;4.25;4.0;2.5;3.75;1.0;1.5;0.25;0.5;0.5;1.0;1.0;0.75;0.5;0.5;0.0;0.5;-0.205078;0.03418;0.981934;-1.19;2.45;1.12;215.0;-0.188244;-0.072788;5.25;4.75;4.0;3.5;1.25;1.0;0.25;0.5;0.0;0.0;0.25;0.0;0.0;0.0;0.0;0.0;-0.229004;-0.005371;0.984375;-0.63;-0.35;0.77;201.0;-0.298551;-0.047681
3.12;4.25;4.0;1.75;3.0;0.75;0.75;0.0;0.5;0.5;1.0;1.0;1.0;0.5;0.75;0.0;0.5;-0.199707;0.030273;0.985352;-1.4;2.45;1.19;191.0;-0.177206;-0.07325;5.25;5.25;4.0;4.0;1.75;1.0;0.25;0.5;0.0;0.0;0.25;0.0;0.0;0.0;0.0;0.0;-0.225098;-0.012207;0.978027;-0.7;-0.28;0.77;215.0;-0.296562;-0.051584
3.13;4.25;3.75;1.5;4.0;0.75;0.75;0.0;0.5;0.5;1.25;1.0;1.0;0.5;0.5;0.0;0.5;-0.198242;0.035645;0.986816;-1.19;2.45;1.12;197.0;-0.179931;-0.082932;5.25;5.25;4.25;2.75;1.5;1.0;0.0;0.5;0.0;0.0;0.25;0.0;0.0;0.0;0.0;0.0;-0.226562;-0.008789;0.991211;-0.63;-0.42;0.77;199.0;-0.305482;-0.04544
3.14;4.25;4.25;1.75;3.5;1.0;0.75;0.0;0.5;0.5;1.25;1.25;0.5;0.5;0.25;0.0;0.75;-0.200195;0.031738;0.982422;-1.19;2.45;1.05;198.0;-0.18966;-0.076288;5.25;5.25;4.25;3.75;1.5;1.0;0.0;0.5;0.0;0.0;0.25;0.0;0.0;0.0;0.0;0.0;-0.228027;-0.005859;0.98291;-0.77;-0.42;0.77;209.0;-0.304624;-0.054044
3.15;4.25;4.25;1.75;3.0;0.5;0.75;0.0;0.5;0.5;1.25;0.5;0.5;0.5;0.5;0.0;0.5;-0.202148;0.032715;0.98584;-1.19;2.45;1.05;181.0;-0.202502;-0.070049;5.25;4.5;4.5;3.5;1.5;0.5;0.25;0.5;0.0;0.25;0.5;0.0;0.0;0.0;0.0;0.0;-0.229492;-0.006836;0.984863;-0.7;-0.42;0.7;206.0;-0.285645;-0.035827
3.16;4.25;4.25;2.0;3.25;0.5;1.0;0.0;0.5;0.25;1.0;0.5;0.75;0.5;0.0;0.0;0.5;-0.199219;0.034668;0.98584;-1.19;2.38;1.12;182.0;-0.224949;-0.088442;5.25;5.0;4.5;3.5;0.75;0.5;0.25;0.5;0.0;0.0;0.5;0.0;0.0;0.0;0.0;0.0;-0.226074;-0.007812;0.975586;-0.63;-0.49;0.56;201.0;-0.300655;-0.043395
3.17;4.25;4.0;2.0;3.5;0.75;1.25;0.0;0.75;0.25;1.0;0.75;0.75;0.5;0.25;0.0;0.5;-0.199707;0.031738;0.985352;-1.19;2.45;1.05;195.0;-0.205785;-0.092859;5.25;5.25;4.25;3.5;0.75;0.5;0.25;0.5;0.0;0.0;0.0;0.0;0.0;0.0;0.0;0.0;-0.226074;-0.004395;0.98877;-0.63;-0.56;0.63;195.0;-0.315273;-0.044674
3.18;4.5;4.0;2.25;3.25;0.75;0.75;0.0;0.5;0.25;1.25;0.5;0.5;0.75;0.25;0.0;0.5;-0.201172;0.027832;0.983887;-1.26;2.45;1.05;189.0;-0.214151;-0.074895;5.25;5.25;4.5;4.0;1.25;0.5;0.25;0.5;0.0;0.25;0.0;0.0;0.0;0.0;0.0;0.0;-0.230469;-0.015137;0.983887;-0.63;-0.49;0.7;210.0;-0.303186;-0.043587
3.19;4.25;4.0;2.0;3.25;0.5;0.75;0.25;0.5;0.5;1.25;0.5;0.5;0.5;0.25;0.25;0.75;-0.208496;0.035156;0.98584;-1.19;2.52;1.19;189.0;-0.19175;-0.067445;5.25;5.25;4.5;4.0;1.5;0.5;0.25;0.5;0.0;0.25;0.0;0.0;0.0;0.0;0.0;0.0;-0.229004;-0.003906;0.986328;-0.84;-0.35;0.63;213.0;-0.301088;-0.042349
3.2;4.25;4.0;2.5;3.5;0.75;1.0;0.0;0.5;0.5;1.25;1.0;0.75;0.25;0.5;0.0;0.5;-0.204102;0.030273;0.985352;-1.26;2.38;1.12;202.0;-0.191798;-0.067634;5.25;5.25;4.25;3.75;1.5;0.5;0.25;0.5;0.0;0.0;0.25;0.0;0.0;0.0;0.0;0.0;-0.233398;-0.005859;0.980469;-0.56;-0.28;0.7;208.0;-0.301815;-0.043826
3.21;4.25;4.5;2.5;3.0;0.75;1.25;0.0;0.5;0.25;1.25;0.75;0.5;0.5;0.25;0.25;0.25;-0.197754;0.031738;0.984375;-1.33;2.45;1.05;197.0;-0.208936;-0.075176;5.0;5.25;4.5;3.5;1.5;0.75;0.25;0.5;0.0;0.0;0.25;0.0;0.0;0.0;0.0;0.0;-0.231445;-0.009277;0.98584;-0.84;-0.35;0.7;208.0;-0.298594;-0.044487
3.22;4.25;4.0;2.5;3.0;1.0;1.25;0.0;0.75;0.25;1.5;0.75;0.5;0.5;0.0;0.0;0.5;-0.203125;0.030762;0.986328;-1.19;2.38;1.19;198.0;-0.204665;-0.079307;5.0;5.25;4.5;3.0;1.75;0.75;0.25;0.5;0.0;0.0;0.25;0.0;0.0;0.0;0.0;0.0;-0.231445;-0.008301;0.980469;-0.77;-0.28;0.84;205.0;-0.296745;-0.038788
3.23;4.25;4.0;2.25;3.25;1.0;1.5;0.25;0.5;0.25;1.25;1.0;0.75;0.5;0.25;0.0;0.25;-0.200684;0.033203;0.989258;-1.26;2.45;1.05;204.0;-0.195477;-0.075502;5.25;5.0;4.5;4.0;1.5;0.5;0.25;0.5;0.0;0.0;0.5;0.0;0.0;0.0;0.0;0.0;-0.230957;-0.009277;0.98584;-0.7;-0.28;0.77;213.0;-0.294149;-0.043964
3.24;4.5;4.25;2.75;2.75;0.75;1.5;0.0;0.5;0.5;1.25;1.0;0.5;0.5;0.5;0.0;0.25;-0.202148;0.03418;0.981445;-1.12;2.45;1.12;205.0;-0.197561;-0.063512;5.0;5.25;4.0;3.0;1.5;0.5;0.25;0.5;0.0;0.0;0.5;0.0;0.0;0.0;0.0;0.0;-0.22998;-0.001465;0.991211;-0.7;-0.28;0.91;198.0;-0.295221;-0.041355
3.25;4.25;4.0;2.5;2.75;1.0;1.25;0.0;0.5;0.5;1.25;1.25;0.5;0.5;0.75;0.0;0.5;-0.199219;0.031738;0.986816;-1.26;2.31;1.12;203.0;-0.177448;-0.062108;5.25;5.25;4.5;3.5;1.5;0.5;0.25;0.5;0.0;0.0;0.25;0.0;0.0;0.0;0.0;0.0;-0.229492;-0.01123;0.989258;-0.63;-0.35;0.63;208.0;-0.30154;-0.040006
3.26;4.25;4.0;2.0;3.75;1.0;1.25;0.0;0.5;0.25;1.25;0.75;0.5;0.5;0.25;0.0;0.5;-0.202637;0.032227;0.981445;-1.12;2.31;1.12;197.0;-0.208912;-0.08291;5.25;5.25;4.5;4.0;1.5;0.25;0.25;0.5;0.0;0.0;0.0;0.0;0.25;0.0;0.0;0.0;-0.227051;-0.005859;0.979004;-0.7;-0.35;0.7;210.0;-0.304518;-0.044803
3.27;4.5;4.0;2.0;3.0;1.25;1.25;0.25;0.5;0.0;1.25;0.75;0.5;0.25;0.0;0.0;0.5;-0.201172;0.035645;0.989746;-1.19;2.38;1.19;191.0;-0.219461;-0.071386;5.25;5.0;4.5;3.75;1.25;0.5;0.25;0.5;0.0;0.0;0.0;0.0;0.0;0.0;0.0;0.0;-0.220703;-0.01123;0.987305;-0.7;-0.42;0.7;203.0;-0.308564;-0.041339
3.28;4.25;3.5;2.25;3.75;1.0;1.25;0.0;0.5;0.0;1.25;0.75;0.5;0.25;0.25;0.0;0.5;-0.196289;0.034668;0.981934;-1.19;2.38;1.12;190.0;-0.216367;-0.080405;5.25;5.0;4.5;4.0;1.25;0.5;0.25;0.5;0.0;0.0;0.0;0.0;0.0;0.0;0.0;0.0;-0.228516;-0.009766;0.986816;-0.63;-0.35;0.7;206.0;-0.308308;-0.043576
3.29;4.0;3.25;2.5;3.75;1.0;1.25;0.0;0.5;0.25;1.25;0.75;0.75;0.5;0.5;0.25;0.5;-0.204102;0.03418;0.983887;-1.19;2.38;1.19;200.0;-0.182938;-0.078167;5.0;5.25;4.5;3.75;1.25;0.5;0.25;0.5;0.0;0.0;0.25;0.0;0.0;0.0;0.0;0.0;-0.224609;-0.012695;0.983398;-0.63;-0.35;0.56;205.0;-0.30235;-0.045217
3.3;4.0;3.5;2.25;3.0;1.0;1.25;0.0;0.75;0.25;1.25;1.0;1.25;0.5;0.5;0.0;0.5;-0.20459;0.033203;0.983398;-1.33;2.45;1.12;200.0;-0.170235;-0.0868;5.0;5.25;4.25;3.5;1.5;0.5;0.25;0.5;0.0;0.0;0.0;0.0;0.25;0.0;0.0;0.0;-0.224609;-0.007812;0.986816;-0.77;-0.28;0.77;202.0;-0.302404;-0.046631
3.31;4.25;3.75;2.0;3.5;1.25;0.75;0.0;0.5;0.0;1.25;1.0;0.5;0.5;0.75;0.5;0.5;-0.199707;0.036621;0.989258;-1.19;2.31;1.19;198.0;-0.180525;-0.074255;5.25;5.0;4.25;3.5;1.5;0.5;0.25;0.5;0.0;0.0;0.0;0.0;0.0;0.0;0.0;0.0;-0.230957;-0.009277;0.980469;-0.7;-0.21;0.63;201.0;-0.307082;-0.039422
3.32;4.25;3.75;2.5;3.5;1.25;1.0;0.25;0.5;0.0;1.25;0.5;0.25;0.5;0.25;0.5;0.5;-0.196289;0.034668;0.98291;-1.19;2.38;1.12;198.0;-0.204074;-0.068211;5.25;5.25;4.25;3.5;1.0;0.25;0.25;0.5;0.0;0.25;0.0;0.0;0.0;0.0;0.0;0.0;-0.226562;-0.00293;0.984375;-0.77;-0.35;0.7;198.0;-0.308228;-0.03915
3.33;4.5;4.0;1.0;3.5;0.75;1.0;0.25;0.5;0.25;1.25;0.5;0.5;0.5;0.0;0.0;0.5;-0.206055;0.032715;0.986816;-1.19;2.24;1.12;180.0;-0.216017;-0.083647;5.25;5.25;4.25;3.5;1.0;0.25;0.25;0.5;0.0;0.25;0.0;0.0;0.0;0.0;0.0;0.0;-0.228027;-0.007812;0.987793;-0.77;-0.35;0.77;198.0;-0.308228;-0.03915
3.34;4.25;4.0;2.0;2.75;0.75;0.5;0.0;0.5;0.5;1.25;0.75;0.5;0.5;0.5;0.0;0.25;-0.198242;0.032227;0.983887;-1.19;2.31;1.12;180.0;-0.197542;-0.058817;5.25;5.0;4.5;3.75;1.25;0.5;0.25;0.75;0.0;0.0;0.0;0.0;0.25;0.0;0.0;0.0;-0.228516;-0.007812;0.984375;-0.7;-0.35;0.7;209.0;-0.299066;-0.051189
3.35;4.25;4.0;2.25;3.0;1.0;0.75;0.0;0.5;0.25;1.25;0.75;0.5;0.5;0.25;0.0;0.5;-0.199707;0.032227;0.980469;-1.19;2.24;1.19;187.0;-0.208027;-0.069774;5.5;4.5;4.5;3.75;1.25;0.5;0.25;0.5;0.0;0.0;0.25;0.0;0.0;0.0;0.0;0.0;-0.22998;-0.010254;0.986328;-0.7;-0.49;0.7;204.0;-0.301156;-0.037893
3.36;4.25;4.0;2.25;3.25;1.0;0.75;0.0;0.5;0.25;1.25;0.75;0.5;0.5;0.25;0.0;0.5;-0.199219;0.036133;0.98291;-1.19;2.31;1.05;189.0;-0.209081;-0.07183;5.5;5.0;4.5;3.5;1.25;0.5;0.25;0.5;0.0;0.0;0.5;0.0;0.0;0.0;0.0;0.0;-0.230469;-0.001953;0.983887;-0.7;-0.42;0.7;208.0;-0.29759;-0.039132
3.37;4.25;4.0;2.5;3.25;1.0;0.75;0.25;0.75;0.25;0.75;0.5;0.5;0.75;0.5;0.5;0.5;-0.194824;0.03125;0.983398;-1.26;2.24;1.12;200.0;-0.192543;-0.074252;5.25;5.25;4.5;3.75;1.5;0.5;0.25;0.5;0.0;0.25;0.5;0.0;0.0;0.0;0.0;0.0;-0.225098;-0.006836;0.984863;-0.77;-0.49;0.77;215.0;-0.289514;-0.041857
3.38;4.25;4.0;2.75;3.5;0.5;0.75;0.0;0.5;0.0;1.0;0.5;0.75;0.75;0.25;0.5;0.25;-0.203125;0.02832;0.984375;-1.19;2.45;1.12;192.0;-0.211061;-0.0851;5.0;5.25;4.5;3.5;1.5;0.5;0.25;0.5;0.0;0.0;0.25;0.0;0.0;0.0;0.0;0.0;-0.227539;-0.008789;0.984863;-0.84;-0.42;0.77;205.0;-0.300367;-0.041721
3.39;3.75;3.5;1.25;3.5;0.5;1.0;0.0;0.5;0.0;1.25;0.5;0.75;0.75;0.5;0.0;0.25;-0.203613;0.030273;0.98291;-1.19;2.31;1.19;170.0;-0.198924;-0.101953;5.25;4.75;4.5;3.5;1.75;0.5;0.25;0.5;0.0;0.0;0.25;0.0;0.0;0.0;0.0;0.0;-0.229492;-0.009766;0.980469;-0.7;-0.28;0.7;206.0;-0.297042;-0.036195
3.4;3.75;3.75;2.0;3.25;1.0;1.25;0.25;0.5;0.25;1.25;0.5;1.25;0.75;0.25;0.5;0.25;-0.201172;0.030273;0.987793;-1.19;2.45;1.12;199.0;-0.169856;-0.086985;5.25;5.0;4.5;3.5;1.75;0.5;0.25;0.5;0.0;0.0;0.0;0.0;0.25;0.0;0.0;0.0;-0.230957;-0.006348;0.982422;-0.7;-0.35;0.7;208.0;-0.299803;-0.040675
3.41;4.25;4.0;2.75;3.25;1.0;1.0;0.25;0.5;0.25;1.25;0.5;1.0;0.5;0.0;0.25;0.25;-0.202148;0.03418;0.980957;-1.19;2.24;1.19;202.0;-0.202142;-0.070674;5.0;5.25;4.5;3.25;1.5;0.5;0.25;0.5;0.0;0.0;0.25;0.0;0.25;0.0;0.0;0.0;-0.228516;-0.01123;0.984375;-0.77;-0.28;0.7;205.0;-0.295953;-0.043565
3.42;4.25;4.0;3.0;3.5;0.75;0.75;0.25;0.5;0.0;0.5;0.5;0.75;0.75;0.25;0.0;0.25;-0.203125;0.036621;0.988281;-1.26;2.31;1.12;191.0;-0.232216;-0.078649;5.0;5.25;4.5;3.5;1.5;0.5;0.25;0.5;0.0;0.0;0.25;0.0;0.25;0.0;0.0;0.0;-0.219727;-0.01416;0.984375;-0.77;-0.28;0.7;207.0;-0.295851;-0.045758
3.43;4.25;3.5;2.5;3.0;0.75;0.75;0.25;0.5;0.0;0.75;0.5;1.0;0.5;0.5;0.0;0.25;-0.203125;0.034668;0.990234;-1.19;2.31;1.26;181.0;-0.210886;-0.071352;5.25;5.25;4.25;4.0;1.5;0.5;0.25;0.5;0.0;0.0;0.25;0.0;0.0;0.0;0.0;0.0;-0.232422;-0.01123;0.98584;-0.7;-0.35;0.63;210.0;-0.301645;-0.045986
3.44;4.25;4.0;2.0;3.25;0.75;1.0;0.0;0.5;0.0;0.5;0.75;1.0;0.5;0.25;0.0;0.5;-0.202637;0.032715;0.98877;-1.19;2.24;1.19;181.0;-0.222905;-0.0957;5.25;5.0;4.5;4.0;1.5;0.5;0.25;0.75;0.0;0.0;0.25;0.0;0.0;0.0;0.0;0.0;-0.22998;-0.010742;0.983398;-0.63;-0.42;0.77;214.0;-0.295388;-0.048806
3.45;4.25;4.0;2.0;2.75;0.75;1.25;0.0;0.5;0.0;0.5;1.0;0.75;0.75;0.25;0.0;0.5;-0.201172;0.029297;0.984863;-1.19;2.31;1.19;181.0;-0.215635;-0.09619;5.25;5.0;4.5;3.5;1.75;0.5;0.25;0.5;0.0;0.0;0.25;0.0;0.0;0.0;0.0;0.0;-0.227051;-0.007812;0.984863;-0.56;-0.49;0.7;208.0;-0.298251;-0.037508
3.46;4.25;4.0;2.5;2.75;1.0;1.25;0.0;0.5;0.25;0.75;0.75;0.75;0.75;0.5;0.0;0.5;-0.197754;0.032715;0.987305;-1.26;2.24;1.12;193.0;-0.201988;-0.078537;5.25;5.25;4.5;3.5;1.5;0.5;0.25;0.5;0.0;0.0;0.0;0.0;0.0;0.0;0.0;0.0;-0.229004;-0.003906;0.983887;-0.7;-0.49;0.77;205.0;-0.307688;-0.039121
3.47;4.25;4.25;2.5;4.0;1.0;1.25;0.0;0.5;0.25;0.5;0.75;0.75;0.75;0.25;0.0;0.5;-0.200195;0.029785;0.985352;-1.33;2.24;1.12;204.0;-0.22053;-0.092571;5.25;4.75;4.5;4.0;1.5;0.5;0.25;0.5;0.0;0.0;0.0;0.0;0.25;0.0;0.0;0.0;-0.230957;-0.007812;0.989258;-0.84;-0.49;0.84;208.0;-0.300431;-0.045075
3.48;4.25;4.0;1.25;3.5;1.25;1.25;0.0;0.5;0.25;0.5;1.0;0.75;0.5;0.25;0.25;0.5;-0.199219;0.032715;0.983398;-1.19;2.17;1.19;189.0;-0.202718;-0.094744;5.0;5.0;4.5;3.5;1.5;0.5;0.25;0.5;0.0;0.0;0.25;0.0;0.25;0.0;0.0;0.0;-0.229004;-0.010254;0.986816;-0.7;-0.42;0.77;205.0;-0.294613;-0.044524
3.49;4.5;4.25;1.25;3.5;1.0;1.0;0.25;0.5;0.25;0.25;1.25;0.75;0.5;0.25;0.5;0.5;-0.197754;0.039551;0.985352;-1.33;2.24;1.19;195.0;-0.196618;-0.088775;5.0;5.25;4.0;3.5;1.5;0.75;0.25;0.5;0.0;0.0;0.5;0.0;0.25;0.0;0.0;0.0;-0.232422;-0.007324;0.986328;-0.77;-0.35;0.77;207.0;-0.288848;-0.052622
3.5;4.25;4.0;2.0;3.0;1.0;1.0;0.25;0.5;0.25;0.5;1.25;0.75;0.5;0.25;0.25;0.5;-0.200684;0.032227;0.989258;-1.12;2.45;1.19;193.0;-0.194218;-0.077933;5.25;5.0;4.25;4.0;1.5;1.0;0.25;0.5;0.0;0.0;0.0;0.0;0.0;0.0;0.0;0.0;-0.228027;-0.008789;0.983398;-0.63;-0.42;0.77;211.0;-0.302962;-0.049349
3.51;4.25;4.0;2.5;3.0;1.25;1.25;0.25;0.5;0.5;0.5;0.75;0.75;0.5;0.5;0.25;0.5;-0.20459;0.031738;0.985352;-1.19;2.59;1.19;203.0;-0.192073;-0.065843;5.5;5.0;4.5;4.0;1.75;0.5;0.25;0.5;0.0;0.0;0.0;0.0;0.0;0.0;0.0;0.0;-0.223633;-0.010254;0.983887;-0.63;-0.35;0.84;213.0;-0.305053;-0.039412
3.52;4.25;4.0;2.0;3.5;1.0;1.0;0.0;0.5;0.0;0.5;0.5;0.5;0.5;0.5;0.0;0.25;-0.202637;0.029785;0.981445;-1.19;2.31;1.26;180.0;-0.237158;-0.085201;5.5;5.25;4.5;3.5;1.5;0.5;0.25;0.5;0.0;0.0;0.0;0.0;0.0;0.0;0.0;0.0;-0.229004;-0.005371;0.986328;-0.7;-0.35;0.7;208.0;-0.308778;-0.037435
3.53;4.5;4.0;2.0;3.75;1.0;1.25;0.25;0.5;0.0;0.5;0.75;0.5;0.5;0.25;0.0;0.25;-0.202637;0.029297;0.985352;-1.12;2.24;1.19;191.0;-0.23382;-0.084166;5.25;5.0;4.25;3.5;1.5;0.5;0.0;0.5;0.0;0.0;0.0;0.0;0.25;0.0;0.0;0.0;-0.225098;-0.006348;0.98291;-0.7;-0.35;0.84;199.0;-0.309091;-0.048581
3.54;4.25;4.0;2.0;3.5;1.25;1.25;0.25;0.5;0.0;0.5;0.75;0.75;0.25;0.25;0.25;0.5;-0.204102;0.031738;0.983887;-1.19;2.17;1.26;193.0;-0.216384;-0.083013;5.25;5.0;4.5;3.5;1.5;0.5;0.0;0.5;0.0;0.0;0.0;0.0;0.0;0.0;0.0;0.0;-0.22998;-0.008789;0.988281;-0.77;-0.42;0.91;200.0;-0.313308;-0.042698
3.55;4.0;4.0;2.5;3.5;1.25;1.25;0.25;0.25;0.0;0.5;0.5;1.0;0.5;0.5;0.25;0.5;-0.202637;0.03125;0.982422;-1.33;2.17;1.12;196.0;-0.209005;-0.078838;5.25;5.0;3.5;3.5;1.75;0.5;0.25;0.5;0.0;0.0;0.0;0.0;0.0;0.0;0.0;0.0;-0.227051;-0.01416;0.989258;-0.7;-0.42;0.77;196.0;-0.306379;-0.043167
3.56;4.25;4.0;2.25;3.5;1.25;1.25;0.25;0.5;0.0;0.5;0.5;1.0;0.25;0.5;0.0;0.5;-0.205566;0.035156;0.991211;-1.33;2.17;1.26;195.0;-0.218617;-0.080384;5.25;5.0;4.0;4.0;1.75;0.75;0.0;0.5;0.0;0.0;0.0;0.0;0.0;0.0;0.0;0.0;-0.228516;-0.011719;0.988281;-0.77;-0.42;0.7;205.0;-0.309608;-0.051974
3.57;4.0;4.25;2.25;3.75;1.0;1.25;0.0;0.5;0.25;0.5;0.5;1.0;0.25;0.25;0.25;0.5;-0.204102;0.03418;0.986328;-1.19;2.24;1.19;195.0;-0.217223;-0.090239;5.5;5.5;4.5;4.0;1.75;0.75;0.0;0.5;0.0;0.0;0.0;0.0;0.0;0.0;0.0;0.0;-0.226074;-0.007324;0.981934;-0.77;-0.49;0.84;216.0;-0.311674;-0.049103
3.58;4.25;4.25;2.0;3.75;0.75;1.25;0.0;0.5;0.25;0.5;0.5;1.0;0.5;0.5;0.0;0.75;-0.196289;0.030273;0.983887;-1.33;2.1;1.12;195.0;-0.213804;-0.094773;5.5;5.5;4.0;3.75;1.75;0.5;0.25;0.5;0.0;0.0;0.0;0.0;0.0;0.0;0.0;0.0;-0.231934;-0.008301;0.98584;-0.84;-0.42;0.84;210.0;-0.308466;-0.042869
3.59;4.25;4.25;2.25;3.75;1.0;1.25;0.0;0.75;0.25;0.5;0.5;0.75;0.5;0.25;0.25;0.75;-0.20166;0.028809;0.98877;-1.05;2.1;1.26;201.0;-0.21357;-0.095706;5.5;5.25;4.0;3.5;1.75;0.5;0.0;0.5;0.0;0.0;0.0;0.0;0.0;0.0;0.0;0.0;-0.233398;-0.006836;0.988281;-0.7;-0.35;0.7;202.0;-0.314315;-0.044252
3.6;4.25;4.5;2.5;3.75;1.0;1.5;0.0;0.75;0.0;1.0;0.75;0.75;0.5;0.0;0.0;0.5;-0.199219;0.028809;0.98584;-1.33;2.24;1.12;207.0;-0.223424;-0.099608;5.25;5.25;4.0;4.0;1.75;0.75;0.0;0.5;0.0;0.0;0.0;0.0;0.0;0.0;0.0;0.0;-0.230469;-0.008301;0.988281;-0.63;-0.42;0.91;207.0;-0.310697;-0.053136
3.61;4.25;4.25;2.5;3.75;1.0;1.25;0.25;0.5;0.0;1.25;0.5;1.0;0.5;0.0;0.0;0.5;-0.198242;0.034668;0.983887;-1.19;2.31;1.19;205.0;-0.215491;-0.086261;5.25;5.25;4.5;4.0;1.75;0.5;0.25;0.5;0.0;0.0;0.0;0.0;0.0;0.0;0.0;0.0;-0.229004;-0.007324;0.98291;-0.7;-0.35;0.7;213.0;-0.305063;-0.042313
3.62;4.5;4.0;2.25;3.75;1.25;1.25;0.0;0.5;0.25;1.25;0.5;1.0;0.5;0.0;0.0;0.5;-0.196777;0.035645;0.981445;-1.19;2.31;1.19;205.0;-0.212001;-0.083889;5.25;5.25;4.5;3.75;1.75;0.5;0.25;0.5;0.0;0.25;0.0;0.0;0.0;0.0;0.0;0.0;-0.229004;-0.007324;0.98291;-0.63;-0.35;0.7;213.0;-0.299173;-0.038974
3.63;4.25;4.0;2.5;4.0;0.75;1.25;0.0;0.5;0.25;1.25;0.5;0.5;0.5;0.25;0.0;0.25;-0.198242;0.033203;0.98584;-1.26;2.17;1.26;198.0;-0.221266;-0.080247;5.25;5.0;4.5;4.0;1.5;0.5;0.25;0.5;0.0;0.0;0.0;0.0;0.0;0.0;0.0;0.0;-0.229004;-0.01123;0.981934;-0.56;-0.35;0.63;208.0;-0.306102;-0.042311
3.64;4.5;4.25;2.0;4.0;1.0;1.25;0.25;0.5;0.25;1.25;0.75;1.0;0.5;0.5;0.0;0.25;-0.200684;0.027832;0.990723;-1.26;2.45;1.12;213.0;-0.197475;-0.07902;5.25;5.0;4.25;3.25;1.5;0.5;0.25;0.5;0.0;0.0;0.25;0.0;0.0;0.0;0.0;0.0;-0.226562;-0.010742;0.989746;-0.63;-0.56;0.77;201.0;-0.300966;-0.038016
3.65;4.5;4.25;2.25;4.0;1.0;1.25;0.0;0.5;0.5;1.25;0.75;1.0;0.75;0.5;0.0;0.5;-0.20166;0.028809;0.984863;-1.12;2.1;1.26;218.0;-0.189931;-0.082183;5.25;5.25;4.25;3.5;1.5;0.75;0.25;0.5;0.0;0.0;0.0;0.0;0.0;0.0;0.0;0.0;-0.224121;-0.009277;0.980469;-0.56;-0.49;0.77;205.0;-0.306329;-0.043549
3.66;4.25;4.0;2.75;4.0;1.25;1.25;0.0;0.5;0.25;0.75;1.0;0.5;0.5;0.5;0.5;0.5;-0.200684;0.037598;0.986328;-1.26;2.38;1.19;214.0;-0.196413;-0.077953;5.25;5.25;4.5;4.0;1.25;0.75;0.25;0.5;0.0;0.0;0.25;0.0;0.25;0.0;0.0;0.0;-0.221191;-0.012207;0.987793;-0.7;-0.42;0.77;215.0;-0.297173;-0.05212
3.67;4.5;4.0;2.75;4.0;1.25;1.25;0.25;0.5;0.25;0.75;1.0;0.5;0.5;0.75;0.25;0.25;-0.206055;0.033691;0.98584;-1.26;2.31;1.26;218.0;-0.198657;-0.06711;5.25;5.25;4.5;4.0;1.25;0.5;0.25;0.5;0.0;0.0;0.0;0.0;0.0;0.0;0.0;0.0;-0.233887;-0.008789;0.982422;-0.77;-0.42;0.77;208.0;-0.309405;-0.044817
3.68;4.25;4.25;2.0;3.75;1.25;1.5;0.0;0.5;0.25;1.0;0.75;0.5;0.5;0.5;0.0;0.25;-0.202148;0.034668;0.988281;-1.12;2.31;1.19;202.0;-0.21214;-0.082109;5.25;5.0;4.5;3.5;1.75;0.5;0.0;0.5;0.0;0.0;0.0;0.0;0.0;0.0;0.0;0.0;-0.222656;-0.007324;0.984375;-0.63;-0.42;0.77;202.0;-0.310975;-0.041406
3.69;4.5;4.0;2.5;4.0;1.25;1.5;0.0;0.5;0.25;1.25;0.75;0.5;0.5;0.0;0.0;0.5;-0.197266;0.029297;0.98584;-1.12;2.31;1.12;210.0;-0.217536;-0.081204;5.5;5.25;4.5;3.5;1.5;0.5;0.0;0.5;0.0;0.0;0.0;0.0;0.0;0.0;0.0;0.0;-0.231445;-0.008789;0.98291;-0.7;-0.49;0.63;204.0;-0.315416;-0.042213
3.7;4.5;4.25;2.0;4.0;0.75;1.25;0.0;0.5;0.25;1.25;1.0;0.5;0.25;0.25;0.0;0.5;-0.197754;0.034668;0.987305;-1.19;2.24;1.19;202.0;-0.213963;-0.081736;5.25;5.25;4.5;3.75;1.5;0.5;0.25;0.5;0.0;0.0;0.0;0.0;0.25;0.0;0.0;0.0;-0.229492;-0.007324;0.98584;-0.63;-0.42;0.84;210.0;-0.302916;-0.045355
3.71;4.25;4.25;1.75;4.0;0.75;1.5;0.25;0.5;0.5;1.25;0.75;0.25;0.25;0.5;0.0;0.5;-0.20166;0.03418;0.987305;-1.12;2.17;1.19;203.0;-0.202538;-0.072181;5.5;4.75;4.5;3.75;1.25;0.5;0.25;0.5;0.0;0.0;0.0;0.0;0.25;0.0;0.0;0.0;-0.231934;-0.009277;0.97998;-0.7;-0.56;0.84;206.0;-0.303913;-0.042408
3.72;4.5;4.5;1.75;4.0;0.5;1.5;0.0;0.5;0.25;1.0;0.75;0.5;0.5;0.5;0.0;0.5;-0.197266;0.031738;0.983887;-1.26;2.31;1.19;200.0;-0.21651;-0.091546;5.5;5.0;4.5;4.0;1.25;0.5;0.25;0.5;0.0;0.0;0.0;0.0;0.0;0.0;0.0;0.0;-0.228516;-0.007812;0.983887;-0.7;-0.42;0.77;208.0;-0.309389;-0.041842
3.73;4.25;4.25;2.0;4.0;0.5;1.5;0.0;0.5;0.0;1.25;1.0;0.5;0.5;0.25;0.0;0.5;-0.204102;0.035156;0.983398;-1.26;2.31;1.12;198.0;-0.215295;-0.097424;5.5;5.25;4.5;3.75;1.25;0.5;0.25;0.5;0.0;0.0;0.0;0.0;0.0;0.0;0.0;0.0;-0.228027;-0.007324;0.986328;-0.77;-0.42;0.7;208.0;-0.310739;-0.040892
3.74;4.5;4.25;2.25;4.0;0.5;1.5;0.0;0.5;0.0;0.75;1.0;0.75;0.5;0.25;0.0;0.5;-0.196289;0.030273;0.988281;-1.12;2.31;1.12;201.0;-0.223848;-0.098821;5.5;5.25;4.75;3.5;1.5;0.5;0.25;0.5;0.0;0.0;0.0;0.0;0.0;0.0;0.0;0.0;-0.229492;-0.010742;0.978027;-0.84;-0.42;0.7;210.0;-0.308252;-0.035897
3.75;4.25;3.5;2.5;4.0;0.5;1.25;0.0;0.5;0.25;0.5;1.25;0.5;0.5;0.5;0.0;0.5;-0.199707;0.035645;0.978516;-1.12;2.31;1.19;195.0;-0.208616;-0.085722;5.5;5.25;4.5;3.5;1.5;0.5;0.25;0.5;0.0;0.0;0.25;0.0;0.0;0.0;0.0;0.0;-0.229492;-0.004395;0.987305;-0.77;-0.21;0.56;210.0;-0.302687;-0.038329
3.76;4.5;4.25;2.75;4.0;0.5;1.25;0.0;0.5;0.0;0.75;1.25;0.5;0.75;0.5;0.0;0.5;-0.195312;0.025879;0.98291;-1.26;2.24;1.26;207.0;-0.215801;-0.090893;5.5;5.25;4.5;3.75;1.25;0.5;0.25;0.5;0.0;0.0;0.0;0.0;0.0;0.0;0.0;0.0;-0.224609;-0.006836;0.984375;-0.77;-0.28;0.77;208.0;-0.310739;-0.040892
3.77;4.75;4.5;2.5;4.25;0.75;1.25;0.0;0.5;0.0;1.0;1.0;0.5;0.5;0.5;0.0;0.25;-0.19873;0.035645;0.987305;-1.26;2.38;1.19;211.0;-0.226004;-0.084514;5.25;5.25;4.5;3.75;1.25;0.5;0.25;0.5;0.0;0.0;0.0;0.0;0.0;0.0;0.0;0.0;-0.231445;-0.01416;0.98877;-0.77;-0.35;0.63;205.0;-0.309671;-0.042618
3.78;4.5;4.5;2.0;3.5;0.75;1.25;0.0;0.5;0.25;1.0;1.0;0.75;0.5;0.25;0.0;0.5;-0.203613;0.036621;0.984863;-1.26;2.31;1.19;201.0;-0.210739;-0.087114;5.25;5.25;4.5;4.0;1.25;0.75;0.25;0.5;0.0;0.0;0.0;0.0;0.0;0.0;0.0;0.0;-0.228516;-0.015137;0.990723;-0.77;-0.21;0.63;210.0;-0.307546;-0.047513
3.79;4.25;4.0;2.0;3.25;0.75;1.25;0.0;0.5;0.0;1.25;1.25;1.0;0.5;0.5;0.0;0.5;-0.197266;0.035645;0.98584;-1.26;2.1;1.12;198.0;-0.188159;-0.089962;5.5;4.75;4.5;3.75;1.25;0.75;0.25;0.5;0.0;0.0;0.0;0.0;0.0;0.0;0.0;0.0;-0.231934;-0.009766;0.984863;-0.84;-0.28;0.77;206.0;-0.306661;-0.041134
3.8;4.5;4.25;2.75;3.75;0.75;1.5;0.0;0.5;0.0;1.25;0.5;0.5;0.5;0.5;0.0;0.5;-0.20459;0.036621;0.991211;-1.12;2.24;1.26;205.0;-0.221667;-0.081541;5.25;5.25;4.5;3.75;1.5;0.5;0.25;0.5;0.0;0.0;0.0;0.0;0.0;0.0;0.0;0.0;-0.223145;-0.009766;0.984375;-0.7;-0.28;0.7;208.0;-0.307445;-0.041362
3.81;4.75;4.25;3.0;4.0;0.75;1.5;0.0;0.5;0.0;1.0;0.5;0.5;0.5;0.0;0.0;0.5;-0.204102;0.034668;0.97998;-1.26;2.31;1.19;207.0;-0.242406;-0.085564;5.25;5.5;4.5;4.0;1.5;0.5;0.25;0.5;0.0;0.0;0.0;0.0;0.0;0.0;0.0;0.0;-0.228027;-0.008301;0.985352;-0.77;-0.42;0.77;213.0;-0.308292;-0.044764
3.82;4.25;4.25;2.75;3.75;0.75;1.5;0.0;0.5;0.5;1.0;1.0;0.5;0.5;0.0;0.0;0.5;-0.202637;0.03418;0.990723;-1.12;2.24;1.19;208.0;-0.21271;-0.080784;5.5;5.5;4.25;4.0;1.5;0.5;0.25;0.5;0.0;0.0;0.0;0.0;0.0;0.0;0.0;0.0;-0.230469;-0.007324;0.985352;-0.77;-0.28;0.77;212.0;-0.309867;-0.044662
3.83;4.25;4.25;2.75;3.75;1.0;1.25;0.0;0.5;0.25;1.25;0.25;0.5;0.75;0.25;0.0;0.5;-0.206055;0.037598;0.989258;-1.26;2.38;1.19;204.0;-0.219704;-0.080228;5.25;5.25;4.5;4.0;1.5;0.5;0.25;0.5;0.0;0.0;0.0;0.0;0.0;0.0;0.0;0.0;-0.225586;-0.012207;0.990723;-0.56;-0.35;0.77;210.0;-0.307208;-0.04355
3.84;4.5;4.0;2.5;4.0;0.75;1.25;0.0;0.5;0.0;1.25;0.25;0.5;0.5;0.5;0.25;0.5;-0.196289;0.028809;0.979004;-1.12;2.45;1.12;201.0;-0.218523;-0.081844;5.25;5.25;4.5;4.0;1.25;0.5;0.25;0.25;0.0;0.0;0.25;0.0;0.0;0.0;0.0;0.0;-0.22998;-0.005859;0.981445;-0.63;-0.28;0.77;207.0;-0.308202;-0.039807
3.85;4.75;4.0;2.5;4.0;0.75;1.5;0.25;0.5;0.0;0.75;0.5;0.5;0.25;0.25;0.0;0.5;-0.196289;0.032227;0.984863;-1.19;2.38;1.12;200.0;-0.237821;-0.07893;5.25;5.25;4.5;3.5;1.25;0.25;0.25;0.25;0.0;0.0;0.0;0.0;0.0;0.0;0.0;0.0;-0.222656;-0.009277;0.987793;-0.63;-0.35;0.77;197.0;-0.31719;-0.031223
3.86;4.5;4.5;2.5;3.5;0.75;1.5;0.25;0.5;0.0;0.75;0.5;0.5;0.5;0.0;0.0;0.5;-0.203125;0.028809;0.983887;-1.12;2.45;1.19;197.0;-0.240707;-0.085742;5.25;5.25;4.5;3.5;1.25;0.5;0.25;0.0;0.0;0.0;0.0;0.0;0.0;0.0;0.0;0.0;-0.227051;-0.007812;0.97998;-0.7;-0.28;0.77;196.0;-0.320504;-0.027895
3.87;4.25;4.75;2.75;3.5;1.0;1.5;0.25;0.5;0.25;1.0;0.5;0.5;0.5;0.0;0.0;0.5;-0.20166;0.034668;0.991211;-1.19;2.24;1.19;207.0;-0.226855;-0.077933;5.5;5.25;4.5;3.75;1.25;0.5;0.25;0.25;0.0;0.0;0.0;0.0;0.0;0.0;0.0;0.0;-0.225098;-0.009277;0.984375;-0.77;-0.42;0.84;204.0;-0.315817;-0.034921
3.88;4.5;4.5;2.5;4.0;1.0;1.5;0.25;0.5;0.25;1.25;0.5;0.5;0.25;0.25;0.25;0.5;-0.196289;0.028809;0.981934;-1.05;2.38;1.12;215.0;-0.213468;-0.073023;5.0;5.25;3.25;3.75;1.75;0.5;0.25;0.25;0.0;0.0;0.0;0.0;0.0;0.0;0.0;0.0;-0.230957;-0.010742;0.98584;-0.7;-0.35;0.84;192.0;-0.31202;-0.044213
3.89;4.25;4.25;2.75;4.25;1.0;1.5;0.0;0.5;0.25;1.25;0.25;0.75;0.25;0.5;0.5;0.5;-0.200684;0.037598;0.983887;-1.26;2.31;1.12;216.0;-0.203195;-0.078885;5.25;5.25;4.0;3.75;1.5;0.25;0.25;0.5;0.0;0.0;0.25;0.0;0.0;0.0;0.0;0.0;-0.22998;-0.01416;0.986816;-0.63;-0.35;0.7;203.0;-0.304109;-0.042691
3.9;4.5;4.5;2.75;3.75;1.25;1.5;0.0;0.5;0.5;1.0;0.25;1.0;0.5;0.5;0.25;0.5;-0.202148;0.029785;0.986328;-1.19;2.31;1.12;221.0;-0.201929;-0.075334;5.25;5.25;4.5;3.5;1.25;0.5;0.25;0.5;0.0;0.0;0.25;0.0;0.0;0.0;0.0;0.0;-0.224609;-0.006836;0.981934;-0.7;-0.35;0.84;205.0;-0.303696;-0.041245
3.91;4.5;4.75;2.5;3.75;1.25;1.75;0.0;0.5;0.25;0.75;0.5;1.25;0.5;0.5;0.25;0.25;-0.20166;0.032715;0.97998;-1.19;2.38;1.19;221.0;-0.207699;-0.088045;5.25;5.25;4.5;4.0;1.25;0.5;0.25;0.5;0.0;0.0;0.25;0.0;0.0;0.0;0.0;0.0;-0.229004;-0.006836;0.98584;-0.7;-0.35;0.84;210.0;-0.303311;-0.045626
3.92;4.5;4.5;1.5;3.75;1.25;1.5;0.0;0.5;0.0;0.75;1.0;1.0;0.25;0.25;0.0;0.0;-0.198242;0.037598;0.98877;-1.12;2.31;1.19;198.0;-0.225784;-0.095161;5.25;5.25;4.5;3.75;1.25;0.5;0.25;0.5;0.0;0.0;0.25;0.0;0.0;0.0;0.0;0.0;-0.227051;-0.007812;0.987793;-0.63;-0.42;0.84;208.0;-0.303501;-0.043462
3.93;4.75;4.25;1.25;4.0;1.0;1.5;0.0;0.5;0.0;1.25;0.75;1.0;0.25;0.25;0.0;0.0;-0.198242;0.03418;0.987305;-1.12;2.38;1.19;198.0;-0.221689;-0.093904;5.25;5.25;4.25;2.75;1.5;0.5;0.0;0.5;0.0;0.0;0.0;0.0;0.0;0.0;0.0;0.0;-0.226074;-0.005371;0.984375;-0.63;-0.42;0.7;192.0;-0.316088;-0.038662
3.94;4.25;4.25;1.75;4.0;1.0;1.5;0.0;0.5;0.0;0.75;0.75;1.25;0.25;0.5;0.0;0.25;-0.19873;0.034668;0.981934;-1.4;2.45;1.05;199.0;-0.214456;-0.098944;5.25;5.25;4.5;3.5;1.25;0.5;0.0;0.5;0.0;0.0;0.0;0.0;0.0;0.0;0.0;0.0;-0.223633;-0.010742;0.984375;-0.77;-0.28;0.77;199.0;-0.316766;-0.045311
3.95;4.25;4.25;2.25;3.75;1.25;1.75;0.0;0.5;0.0;0.5;0.75;0.75;0.25;0.75;0.0;0.5;-0.199219;0.033203;0.987305;-1.33;2.38;1.05;203.0;-0.218798;-0.0887;5.25;5.25;4.5;3.5;1.25;0.5;0.25;0.5;0.0;0.0;0.0;0.0;0.0;0.0;0.0;0.0;-0.230957;-0.005859;0.984863;-0.77;-0.35;0.7;203.0;-0.309945;-0.040365
3.96;4.75;4.0;2.25;4.0;1.25;1.75;0.0;0.5;0.0;1.0;0.75;0.25;0.25;0.75;0.0;0.5;-0.197754;0.026855;0.98877;-1.12;2.38;1.19;208.0;-0.221248;-0.076779;5.25;5.25;4.0;3.5;1.25;0.5;0.25;0.25;0.0;0.0;0.0;0.0;0.0;0.0;0.0;0.0;-0.230469;-0.009277;0.991699;-0.7;-0.28;0.56;194.0;-0.316438;-0.037483
3.97;4.5;4.25;2.25;3.5;1.25;1.5;0.0;0.5;0.25;1.25;0.5;0.25;0.5;0.25;0.0;0.5;-0.196289;0.030273;0.981445;-1.33;2.45;1.19;201.0;-0.221538;-0.075183;5.25;4.5;4.25;4.0;1.5;0.5;0.25;0.25;0.0;0.0;0.0;0.0;0.0;0.0;0.0;0.0;-0.229492;-0.009277;0.981445;-0.7;-0.35;0.77;198.0;-0.309432;-0.035242
3.98;4.25;4.5;2.0;3.5;1.25;1.25;0.0;0.5;0.25;1.25;0.5;0.5;0.5;0.25;0.25;0.5;-0.199219;0.034668;0.987793;-1.26;2.38;1.12;201.0;-0.209013;-0.080677;5.25;4.75;4.5;3.5;1.5;0.5;0.25;0.5;0.0;0.0;0.25;0.0;0.0;0.0;0.0;0.0;-0.227539;-0.009277;0.988281;-0.7;-0.35;0.77;204.0;-0.29916;-0.037398
3.99;4.25;4.5;2.0;3.75;1.25;1.5;0.0;0.5;0.25;0.75;0.5;0.5;0.25;0.5;0.0;0.5;-0.206543;0.032715;0.981934;-1.19;2.45;1.12;199.0;-0.225231;-0.081984;5.5;4.75;4.25;3.25;1.5;0.5;0.25;0.5;0.0;0.0;0.25;0.0;0.0;0.0;0.0;0.0;-0.226074;-0.015137;0.982422;-0.7;-0.28;0.84;201.0;-0.300961;-0.034943
4.0;4.5;4.5;2.5;4.0;1.0;1.75;0.0;0.5;0.25;0.75;0.5;0.5;0.25;0.25;0.0;0.5;-0.195312;0.033691;0.983398;-1.05;2.38;1.19;207.0;-0.23538;-0.083794;4.75;5.25;3.75;3.5;1.5;0.75;0.25;0.5;0.0;0.0;0.25;0.0;0.0;0.0;0.0;0.0;-0.227539;-0.006836;0.984375;-0.7;-0.21;0.7;198.0;-0.298624;-0.051498
4.01;5.0;4.5;2.5;4.0;0.75;1.5;0.25;0.5;0.5;1.25;0.75;0.75;0.25;0.0;0.0;0.5;-0.201172;0.03125;0.983887;-1.19;2.38;1.19;221.0;-0.215118;-0.070955;5.0;5.25;4.25;3.25;1.5;0.75;0.25;0.5;0.0;0.0;0.25;0.0;0.0;0.0;0.0;0.0;-0.228516;-0.008789;0.983887;-0.7;-0.42;0.7;203.0;-0.299148;-0.04394
4.02;4.75;4.5;2.5;4.0;1.0;1.75;0.0;0.5;0.25;0.5;0.75;1.0;0.25;1.0;0.0;0.5;-0.203125;0.029785;0.98291;-1.12;2.45;1.12;220.0;-0.210287;-0.081349;5.25;5.25;4.25;3.25;1.25;0.75;0.25;0.5;0.0;0.0;0.25;0.0;0.0;0.0;0.0;0.0;-0.22998;-0.005859;0.983887;-0.7;-0.28;0.7;203.0;-0.302518;-0.04346
4.03;4.0;4.5;2.25;4.0;1.0;1.25;0.0;0.5;0.0;0.25;0.75;1.0;0.5;0.75;0.0;0.5;-0.197266;0.03125;0.983398;-1.26;2.52;1.12;200.0;-0.218818;-0.098898;5.25;5.25;4.25;3.5;1.25;0.75;0.25;0.5;0.0;0.0;0.25;0.0;0.0;0.0;0.0;0.0;-0.224609;-0.005859;0.98291;-0.7;-0.28;0.7;205.0;-0.302335;-0.045677
4.04;4.25;4.5;2.5;3.75;1.0;1.0;0.0;0.5;0.0;0.5;1.0;1.0;0.5;0.5;0.0;0.5;-0.194336;0.037109;0.986328;-1.19;2.31;1.19;203.0;-0.216966;-0.091359;5.0;4.75;4.5;3.5;1.25;0.5;0.25;0.5;0.0;0.0;0.25;0.0;0.0;0.0;0.0;0.0;-0.229004;-0.005371;0.984375;-0.77;-0.35;0.7;199.0;-0.300115;-0.040388
4.05;4.5;4.5;2.75;3.75;1.0;1.0;0.25;0.75;0.0;0.5;0.5;1.0;0.5;0.5;0.25;0.5;-0.203613;0.029297;0.983887;-1.05;2.38;1.12;212.0;-0.214282;-0.085728;5.0;5.25;4.5;3.25;1.5;0.5;0.25;0.5;0.0;0.0;0.0;0.0;0.0;0.0;0.0;0.0;-0.233398;-0.015137;0.981445;-0.7;-0.21;0.77;201.0;-0.30681;-0.038545
4.06;4.75;4.25;2.5;4.0;1.25;1.25;0.0;0.5;0.0;0.75;0.5;1.0;0.5;0.5;0.0;0.75;-0.199707;0.032715;0.98584;-1.12;2.45;1.12;212.0;-0.219609;-0.087051;5.0;4.25;4.25;3.25;1.5;0.75;0.25;0.5;0.0;0.0;0.0;0.0;0.0;0.0;0.0;0.0;-0.228027;-0.009277;0.986328;-0.84;-0.35;0.7;192.0;-0.300541;-0.037686
4.07;4.25;3.75;2.5;4.0;1.25;1.5;0.0;0.75;0.25;0.75;0.5;1.0;0.5;0.75;0.0;0.5;-0.203613;0.030762;0.994141;-1.26;2.31;1.19;212.0;-0.198309;-0.088158;5.5;4.5;4.25;4.0;1.75;0.75;0.25;0.5;0.0;0.0;0.0;0.0;0.25;0.0;0.0;0.0;-0.225098;-0.010742;0.982422;-0.84;-0.28;0.7;211.0;-0.297017;-0.045186
4.08;4.5;4.0;2.5;3.75;0.75;1.5;0.0;0.5;0.0;0.75;0.5;1.0;0.5;0.25;0.0;0.5;-0.197266;0.032715;0.987305;-1.19;2.24;1.19;199.0;-0.22587;-0.094056;5.5;5.25;4.25;3.5;1.25;0.75;0.25;0.5;0.0;0.0;0.0;0.0;0.0;0.0;0.0;0.0;-0.228516;-0.009277;0.983887;-0.77;-0.35;0.7;205.0;-0.309664;-0.043075
4.09;4.5;4.25;2.5;3.75;0.75;1.5;0.0;0.5;0.25;0.75;0.25;1.25;0.25;0.0;0.0;0.75;-0.204102;0.032715;0.982422;-1.12;2.52;1.12;201.0;-0.227324;-0.091842;5.0;5.5;4.0;3.25;1.0;0.75;0.25;0.5;0.0;0.0;0.0;0.0;0.0;0.0;0.0;0.0;-0.231934;-0.010254;0.986816;-0.77;-0.42;0.77;195.0;-0.31178;-0.048831
4.1;4.5;4.0;2.5;3.75;1.0;1.25;0.0;0.5;0.25;0.75;0.25;1.25;0.25;0.25;0.0;0.5;-0.201172;0.02832;0.986816;-1.19;2.31;1.12;200.0;-0.222406;-0.082867;5.0;5.25;4.0;3.75;1.25;0.75;0.25;0.5;0.0;0.0;0.0;0.0;0.0;0.0;0.0;0.0;-0.228027;-0.01123;0.983398;-0.77;-0.49;0.91;200.0;-0.307737;-0.050625
4.11;4.0;4.25;2.5;3.75;0.75;1.25;0.0;0.5;0.0;1.0;0.5;0.75;0.5;0.5;0.25;0.25;-0.202637;0.033691;0.984863;-1.26;2.31;1.19;197.0;-0.213889;-0.088836;5.25;4.5;4.25;3.5;1.5;0.75;0.0;0.5;0.0;0.0;0.0;0.0;0.25;0.0;0.0;0.0;-0.228516;-0.009277;0.984863;-0.7;-0.42;0.63;198.0;-0.304823;-0.048901
4.12;4.0;4.0;2.5;4.0;0.75;1.25;0.0;0.5;0.25;1.0;0.5;1.0;0.5;0.5;0.25;0.25;-0.205078;0.035645;0.980469;-1.33;2.38;1.19;203.0;-0.200713;-0.086814;5.5;5.0;3.75;3.5;1.5;0.5;0.0;0.5;0.0;0.0;0.0;0.0;0.0;0.0;0.0;0.0;-0.229004;-0.00293;0.988281;-0.84;-0.49;0.77;195.0;-0.316288;-0.046049
4.13;4.25;4.75;2.25;3.5;1.0;1.25;0.0;0.5;0.25;1.25;0.5;0.5;0.75;0.5;0.5;0.25;-0.20166;0.026367;0.986816;-1.19;2.38;1.12;208.0;-0.199628;-0.081017;5.25;5.25;3.5;2.5;1.5;0.25;0.25;0.5;0.0;0.0;0.0;0.0;0.0;0.0;0.0;0.0;-0.226074;-0.008301;0.981934;-0.77;-0.35;0.84;183.0;-0.313271;-0.032912
4.14;4.75;4.25;2.75;4.0;1.0;1.25;0.0;0.5;0.25;1.25;0.5;0.0;0.5;0.25;0.25;0.5;-0.196289;0.032227;0.992676;-1.12;2.38;1.19;209.0;-0.225946;-0.069494;5.25;5.25;3.75;2.5;1.5;0.5;0.25;0.5;0.0;0.0;0.0;0.0;0.0;0.0;0.0;0.0;-0.228027;-0.006836;0.980469;-0.7;-0.28;0.77;188.0;-0.310486;-0.034431
4.15;4.25;4.25;3.0;4.0;0.75;1.25;0.0;0.5;0.25;1.25;0.5;0.5;0.0;0.5;0.0;0.5;-0.19873;0.029297;0.981934;-1.19;2.52;1.19;205.0;-0.222395;-0.068427;5.25;5.0;4.25;3.25;1.25;0.5;0.25;0.5;0.0;0.0;0.0;0.0;0.0;0.0;0.0;0.0;-0.228516;-0.006836;0.987305;-0.77;-0.35;0.7;196.0;-0.309664;-0.038338
