Time;left pressure 1[N/cm²];left pressure 2[N/cm²];left pressure 3[N/cm²];left pressure 4[N/cm²];left pressure 5[N/cm²];left pressure 6[N/cm²];left pressure 7[N/cm²];left pressure 8[N/cm²];left pressure 9[N/cm²];left pressure 10[N/cm²];left pressure 11[N/cm²];left pressure 12[N/cm²];left pressure 13[N/cm²];left pressure 14[N/cm²];left pressure 15[N/cm²];left pressure 16[N/cm²];left acceleration X[g];left acceleration Y[g];left acceleration Z[g];left angular X[dps];left angular Y[dps];left angular Z[dps];left total force[N];left center of pressure X[-0.5...+0.5];left center of pressure Y[-0.5...+0.5];right pressure 1[N/cm²];right pressure 2[N/cm²];right pressure 3[N/cm²];right pressure 4[N/cm²];right pressure 5[N/cm²];right pressure 6[N/cm²];right pressure 7[N/cm²];right pressure 8[N/cm²];right pressure 9[N/cm²];right pressure 10[N/cm²];right pressure 11[N/cm²];right pressure 12[N/cm²];right pressure 13[N/cm²];right pressure 14[N/cm²];right pressure 15[N/cm²];right pressure 16[N/cm²];right acceleration X[g];right acceleration Y[g];right acceleration Z[g];right angular X[dps];right angular Y[dps];right angular Z[dps];right total force[N];right center of pressure X[-0.5...+0.5];right center of pressure Y[-0.5...+0.5]
0.0;9.75;7.25;6.75;4.0;1.0;0.5;0.25;0.25;2.5;1.0;1.25;1.0;0.25;1.0;0.75;0.5;-0.222168;0.020508;0.988281;-0.63;0.7;0.49;436.0;-0.198084;-0.001572;4.75;4.75;3.5;3.0;1.0;1.0;0.25;0.5;2.25;1.5;1.25;0.75;0.5;1.0;0.75;0.75;-0.249023;0.035645;0.973145;-0.7;-0.98;0.7;316.0;-0.124322;-0.025561
0.01;9.75;6.75;6.75;4.0;1.25;0.5;0.25;0.25;2.5;1.0;1.25;0.5;0.25;1.0;0.5;0.5;-0.225586;0.018555;0.980469;-0.7;0.63;0.56;425.0;-0.204576;0.005352;5.0;4.5;3.5;3.0;0.5;1.0;0.25;0.5;2.5;1.5;1.25;0.75;0.5;1.0;0.75;0.75;-0.250488;0.028809;0.971191;-0.77;-0.91;0.77;314.0;-0.120132;-0.021463
0.02;9.25;7.25;7.0;4.0;1.25;0.5;0.25;0.25;2.75;0.5;1.25;0.25;0.25;0.75;0.5;0.5;-0.225586;0.018555;0.989746;-0.49;0.63;0.56;421.0;-0.213221;0.005121;5.25;4.5;3.5;3.25;0.5;1.0;0.25;0.5;2.25;1.25;1.25;0.75;0.5;1.25;0.75;0.5;-0.252441;0.033691;0.975586;-0.77;-0.98;0.7;314.0;-0.13016;-0.023522
0.03;9.0;7.0;7.0;4.25;1.0;0.5;0.25;0.25;2.25;0.75;1.25;0.25;0.25;0.75;0.25;0.5;-0.226074;0.023926;0.985352;-0.63;0.56;0.56;408.0;-0.221274;-0.000341;4.5;4.5;3.25;3.0;0.5;1.0;0.25;0.5;2.25;1.25;1.25;0.75;0.5;1.0;0.75;0.5;-0.25;0.030273;0.982422;-0.63;-0.91;0.63;297.0;-0.123624;-0.028002
0.04;9.25;6.5;6.25;4.0;1.0;0.5;0.25;0.0;2.75;1.25;1.25;0.5;0.25;1.25;0.25;0.5;-0.227051;0.017578;0.985352;-0.63;0.56;0.56;410.0;-0.195832;0.011694;4.5;4.5;3.5;3.0;0.5;1.0;0.25;0.5;2.25;1.5;1.25;0.75;0.5;1.0;0.75;0.75;-0.254883;0.031738;0.975586;-0.77;-0.98;0.63;305.0;-0.119293;-0.027359
0.05;9.75;6.75;6.25;4.0;1.0;0.5;0.25;0.25;2.75;1.25;1.25;0.5;0.0;0.75;0.25;0.25;-0.227051;0.022949;0.98291;-0.56;0.49;0.56;414.0;-0.209067;0.009875;4.75;4.5;3.5;3.0;0.5;1.0;0.25;0.25;2.25;1.0;1.25;0.75;0.5;1.0;0.5;0.5;-0.25293;0.033691;0.96875;-0.7;-0.91;0.7;293.0;-0.138105;-0.020656
0.06;9.25;7.25;6.25;4.25;1.0;0.5;0.25;0.0;2.5;0.5;1.0;0.75;0.0;0.75;0.25;0.25;-0.219238;0.022461;0.984863;-0.7;0.56;0.63;400.0;-0.22542;0.003855;4.75;4.5;3.5;3.0;0.5;1.0;0.25;0.5;2.25;1.0;1.25;0.75;0.5;1.0;0.5;0.5;-0.256348;0.032715;0.974609;-0.91;-0.98;0.7;297.0;-0.136343;-0.025853
0.07;9.5;6.75;6.25;4.0;1.25;0.5;0.25;0.0;2.25;0.5;1.0;0.5;0.25;0.5;0.25;0.25;-0.22168;0.02002;0.98291;-0.56;0.42;0.7;391.0;-0.232012;0.004902;4.75;4.5;3.25;3.0;0.5;1.25;0.25;0.5;2.25;1.25;1.25;0.75;0.5;1.0;0.5;0.5;-0.254883;0.029785;0.974121;-0.77;-0.98;0.77;300.0;-0.131619;-0.028622
0.08;9.25;6.75;6.25;4.0;1.0;0.5;0.25;0.0;2.25;0.75;1.0;0.5;0.25;0.25;0.5;0.25;-0.226074;0.021973;0.991211;-0.49;0.49;0.63;389.0;-0.227268;0.002467;4.75;4.5;3.25;3.0;0.75;1.0;0.25;0.5;2.5;1.5;1.25;0.75;0.5;1.25;0.5;0.5;-0.256348;0.031738;0.967773;-0.77;-1.05;0.7;309.0;-0.11935;-0.019485
0.09;9.25;6.75;6.75;3.75;1.0;0.5;0.25;0.0;2.25;0.5;1.25;0.75;0.25;0.25;0.25;0.25;-0.226562;0.020508;0.983398;-0.56;0.49;0.7;392.0;-0.228922;0.002672;4.75;4.25;3.25;3.0;0.75;1.0;0.25;0.25;2.25;1.5;1.25;0.75;0.5;0.75;0.5;0.5;-0.250977;0.029785;0.97168;-0.77;-0.98;0.7;294.0;-0.131292;-0.019643
0.1;9.5;6.75;6.75;3.75;1.0;0.5;0.25;0.0;2.25;0.5;1.25;1.0;0.0;0.25;0.25;0.5;-0.227051;0.016113;0.988281;-0.63;0.56;0.49;397.0;-0.227148;0.002835;4.75;4.5;3.5;3.0;0.75;1.0;0.25;0.5;2.25;1.0;1.25;1.0;0.25;0.5;0.75;0.5;-0.255859;0.032227;0.974121;-0.7;-0.91;0.63;299.0;-0.138625;-0.027848
0.11;9.5;6.75;6.25;4.0;1.0;0.5;0.25;0.0;2.5;0.5;1.0;0.5;0.0;0.5;0.25;0.25;-0.224121;0.02002;0.983887;-0.63;0.56;0.63;389.0;-0.230776;0.009761;4.75;4.75;3.5;3.0;0.75;1.0;0.25;0.5;2.25;1.0;1.25;0.75;0.25;0.75;0.75;0.5;-0.250977;0.033203;0.977051;-0.77;-0.91;0.63;301.0;-0.140025;-0.024856
0.12;9.5;6.75;6.25;4.0;1.0;0.5;0.25;0.0;2.5;0.75;1.0;0.5;0.0;0.5;0.5;0.25;-0.225586;0.025879;0.982422;-0.56;0.56;0.63;395.0;-0.222756;0.009484;4.75;4.5;3.5;3.0;0.75;1.0;0.25;0.5;2.25;1.0;1.0;0.75;0.5;0.75;0.75;0.25;-0.252441;0.030762;0.974121;-0.77;-1.05;0.7;297.0;-0.141245;-0.024803
0.13;9.5;6.75;6.75;4.0;1.0;0.5;0.25;0.0;2.0;0.5;1.25;0.5;0.0;0.75;0.25;0.5;-0.220703;0.024902;0.985352;-0.7;0.63;0.42;395.0;-0.230829;0.005063;5.25;4.5;3.5;3.0;0.75;1.0;0.25;0.5;2.25;1.25;1.25;0.75;0.25;0.75;0.75;0.25;-0.255371;0.029785;0.978027;-0.84;-1.05;0.63;306.0;-0.141504;-0.018988
0.14;9.25;7.25;6.75;4.0;1.0;0.5;0.25;0.0;2.0;0.5;1.25;0.75;0.0;0.75;0.25;0.5;-0.222656;0.019531;0.981934;-0.63;0.49;0.63;400.0;-0.228783;5e-06;5.0;4.5;3.5;3.0;1.0;1.25;0.25;0.5;2.5;1.25;1.25;0.75;0.5;1.0;0.5;0.5;-0.245605;0.03125;0.980469;-0.7;-0.98;0.7;316.0;-0.13083;-0.021104
0.15;9.25;7.25;6.75;4.0;1.0;0.5;0.25;0.0;2.0;0.75;1.25;0.5;0.0;0.5;0.25;0.5;-0.234375;0.022461;0.986328;-0.7;0.63;0.63;398.0;-0.232345;0.001568;5.0;4.75;3.5;3.0;0.75;1.0;0.25;0.5;2.5;1.0;1.25;0.75;0.25;1.0;0.75;0.25;-0.25;0.030762;0.976562;-0.84;-1.05;0.7;308.0;-0.136084;-0.017245
0.16;9.5;7.0;6.75;4.0;1.0;0.5;0.25;0.0;2.25;0.75;1.0;0.5;0.0;0.75;0.25;0.25;-0.226074;0.016602;0.986328;-0.77;0.56;0.56;400.0;-0.22975;0.008859;5.25;4.75;3.5;3.0;0.5;1.0;0.25;0.5;2.25;1.0;1.25;0.75;0.25;0.75;0.75;0.25;-0.253906;0.027832;0.971191;-0.84;-0.91;0.63;302.0;-0.147552;-0.021792
0.17;9.5;7.0;6.75;4.0;1.0;0.5;0.25;0.0;2.25;0.75;1.0;0.5;0.0;0.75;0.25;0.5;-0.22168;0.018066;0.986816;-0.63;0.56;0.63;401.0;-0.22757;0.007668;5.25;4.75;3.5;3.0;0.75;1.0;0.25;0.25;2.0;1.0;1.25;0.5;0.5;0.75;0.5;0.25;-0.255859;0.03125;0.969727;-0.77;-1.05;0.63;294.0;-0.160517;-0.019555
0.18;9.5;6.75;6.75;4.0;1.0;0.5;0.25;0.0;2.25;0.75;1.0;0.5;0.0;0.25;0.25;0.5;-0.222656;0.024902;0.983398;-0.77;0.7;0.49;394.0;-0.233904;0.006775;5.25;4.75;3.5;3.0;0.75;0.75;0.25;0.5;2.0;1.25;1.25;0.5;1.0;0.75;0.5;0.25;-0.255371;0.03418;0.973633;-0.84;-1.05;0.56;303.0;-0.149664;-0.028276
0.19;9.25;7.25;6.75;4.0;1.0;0.5;0.25;0.0;2.0;0.75;1.25;0.5;0.0;0.25;0.25;0.5;-0.22168;0.021973;0.987793;-0.56;0.63;0.49;395.0;-0.23613;0.000534;5.0;4.75;3.5;3.0;0.75;1.0;0.25;0.5;2.25;1.25;1.25;0.75;0.5;0.75;0.5;0.25;-0.255371;0.028809;0.978027;-0.84;-0.98;0.7;305.0;-0.144112;-0.024218
0.2;9.5;7.25;6.25;4.0;0.75;0.5;0.25;0.0;2.0;0.5;1.0;0.5;0.0;0.75;0.0;0.25;-0.223145;0.020508;0.983887;-0.7;0.7;0.49;384.0;-0.243999;0.003819;5.0;4.75;3.5;3.0;0.75;1.0;0.25;0.5;2.25;1.25;1.25;0.75;0.25;0.75;0.5;0.25;-0.253418;0.035156;0.976074;-0.84;-1.05;0.7;302.0;-0.146554;-0.020812
0.21;9.5;7.0;6.25;4.0;1.0;0.5;0.25;0.0;2.0;0.5;1.25;0.5;0.0;0.75;0.25;0.5;-0.220215;0.024414;0.980957;-0.63;0.49;0.56;391.0;-0.231486;0.002649;5.25;5.0;3.5;3.0;0.75;1.0;0.25;0.25;2.25;1.25;1.25;0.75;0.25;0.75;0.5;0.25;-0.251465;0.02832;0.965332;-0.91;-1.05;0.7;304.0;-0.153031;-0.015721
0.22;9.5;7.0;6.25;4.0;1.0;0.5;0.25;0.25;2.25;0.75;1.0;0.75;0.0;0.75;0.25;0.25;-0.223145;0.021484;0.981934;-0.63;0.56;0.56;401.0;-0.22379;0.001278;5.25;4.75;3.5;3.0;0.75;1.25;0.25;0.25;2.25;1.25;1.25;1.0;0.25;1.0;0.5;0.5;-0.250488;0.031738;0.972168;-0.91;-0.98;0.77;311.0;-0.140856;-0.019537
0.23;9.5;7.0;6.75;4.0;1.0;0.5;0.25;0.0;2.25;0.75;0.75;0.75;0.0;0.75;0.5;0.25;-0.229004;0.019043;0.984863;-0.7;0.56;0.56;403.0;-0.225308;0.006915;5.25;4.75;3.5;3.0;0.75;1.25;0.25;0.5;2.25;1.25;1.25;0.75;0.25;0.75;0.5;0.5;-0.255859;0.027344;0.966309;-0.84;-0.98;0.63;310.0;-0.14653;-0.02345
0.24;9.5;7.0;6.25;4.0;1.0;0.5;0.25;0.0;2.25;0.25;1.25;0.5;0.0;0.75;0.25;0.25;-0.222168;0.020996;0.986816;-0.7;0.42;0.56;391.0;-0.232697;0.005889;5.25;4.75;3.5;3.25;0.75;1.0;0.25;0.5;2.0;1.0;1.25;0.75;0.25;0.25;0.5;0.5;-0.252441;0.035645;0.973145;-0.84;-0.91;0.7;299.0;-0.165093;-0.030513
0.25;9.75;7.0;6.25;4.0;1.0;0.5;0.25;0.0;2.25;0.25;1.0;0.5;0.0;0.75;0.25;0.25;-0.228027;0.021484;0.985352;-0.77;0.56;0.56;391.0;-0.23729;0.007527;5.25;4.5;3.5;3.0;0.75;0.75;0.25;0.25;2.25;1.25;1.25;0.5;0.25;0.5;0.5;0.25;-0.254395;0.023438;0.975586;-0.77;-0.91;0.7;290.0;-0.156576;-0.009241
0.26;10.0;7.0;6.25;4.0;1.0;0.5;0.25;0.0;1.5;0.5;0.75;0.5;0.0;0.75;0.25;0.5;-0.222656;0.021484;0.990234;-0.63;0.42;0.63;384.0;-0.249907;0.000921;5.25;4.5;3.5;3.0;0.75;1.0;0.25;0.25;2.25;1.25;1.25;0.5;0.25;0.5;0.75;0.25;-0.251465;0.031738;0.97168;-0.91;-0.84;0.63;296.0;-0.151071;-0.012595
0.27;9.75;7.25;6.25;4.0;1.0;0.5;0.25;0.0;2.0;0.5;1.0;0.5;0.0;0.5;0.25;0.25;-0.220215;0.016113;0.983887;-0.77;0.7;0.56;390.0;-0.243361;0.003357;4.75;4.75;3.5;3.0;0.75;1.0;0.25;0.5;2.25;1.0;1.25;0.5;0.5;0.25;0.5;0.5;-0.253906;0.027832;0.978027;-0.77;-0.91;0.7;293.0;-0.155083;-0.02835
0.28;10.0;7.25;6.25;4.0;1.25;0.5;0.25;0.0;2.0;0.75;1.0;0.5;0.0;0.5;0.5;0.25;-0.223633;0.016113;0.991699;-0.77;0.56;0.56;402.0;-0.235537;0.004353;4.75;4.75;3.5;3.0;0.75;1.0;0.25;0.25;2.0;1.25;1.25;0.75;0.5;0.5;0.25;0.25;-0.251953;0.031738;0.975586;-0.84;-0.98;0.7;289.0;-0.158378;-0.024968
0.29;10.0;7.25;7.0;4.25;1.0;0.5;0.25;0.0;2.0;0.75;0.75;0.5;0.0;0.75;0.25;0.25;-0.223145;0.025391;0.98584;-0.63;0.42;0.63;407.0;-0.241475;0.006593;5.75;4.5;3.5;3.0;0.75;1.0;0.25;0.25;2.25;1.0;1.25;0.5;0.5;0.75;0.5;0.25;-0.258789;0.03418;0.973145;-0.91;-0.98;0.63;301.0;-0.15798;-0.012415
0.3;10.0;7.0;6.75;4.25;1.25;0.5;0.25;0.0;2.25;0.5;1.0;0.75;0.25;0.75;0.25;0.25;-0.224121;0.022949;0.988281;-0.63;0.49;0.63;414.0;-0.229687;0.003735;5.5;5.0;3.5;3.0;0.75;1.0;0.25;0.25;2.25;1.0;1.25;0.5;0.5;0.75;0.5;0.5;-0.252441;0.030273;0.972168;-0.91;-0.91;0.7;304.0;-0.157461;-0.017553
0.31;10.0;7.0;6.75;4.0;1.0;0.5;0.25;0.0;2.25;0.5;1.0;0.5;0.0;0.75;0.25;0.25;-0.222656;0.023438;0.98291;-0.63;0.42;0.63;402.0;-0.235511;0.009876;5.25;4.75;3.5;3.0;0.75;1.0;0.25;0.25;2.25;1.0;1.0;0.75;0.25;0.5;0.5;0.25;-0.260742;0.03125;0.975586;-0.91;-0.98;0.7;293.0;-0.162762;-0.015755
0.32;10.0;7.25;7.0;4.25;1.0;0.5;0.25;0.0;2.25;0.5;1.0;0.5;0.0;1.0;0.25;0.25;-0.226562;0.022461;0.98584;-0.77;0.49;0.63;413.0;-0.233574;0.008629;5.25;4.75;3.5;3.0;0.5;0.75;0.25;0.25;2.25;1.0;0.75;0.75;0.5;0.5;0.75;0.25;-0.253418;0.02832;0.974609;-0.91;-1.05;0.7;289.0;-0.158747;-0.017207
0.33;10.0;7.25;6.75;4.0;1.0;0.5;0.25;0.0;2.25;0.5;1.0;0.75;0.0;1.0;0.25;0.25;-0.226562;0.022461;0.987305;-0.77;0.56;0.49;410.0;-0.229833;0.007596;6.0;5.0;3.5;3.25;0.5;1.0;0.25;0.25;2.25;1.0;1.25;0.75;0.25;0.75;0.75;0.5;-0.256836;0.033203;0.975098;-0.84;-0.91;0.63;314.0;-0.157373;-0.017823
0.34;9.5;7.25;6.25;4.0;1.0;0.5;0.25;0.25;2.25;0.5;1.0;0.75;0.0;0.75;0.5;0.25;-0.226074;0.020508;0.984375;-0.63;0.49;0.56;403.0;-0.223779;-0.000803;5.25;4.75;3.5;3.25;0.75;1.0;0.25;0.25;2.0;1.25;1.25;0.5;0.25;0.75;0.25;0.25;-0.251953;0.027832;0.974609;-0.91;-0.98;0.77;295.0;-0.166105;-0.016698
0.35;9.25;7.25;6.75;4.0;1.0;0.5;0.25;0.0;2.25;0.75;1.25;0.5;0.0;0.75;0.5;0.25;-0.222168;0.020508;0.983887;-0.7;0.49;0.63;405.0;-0.221972;0.005546;4.5;4.75;3.5;3.0;0.5;1.0;0.25;0.25;2.25;1.25;1.25;0.5;0.25;0.75;0.25;0.5;-0.258789;0.03125;0.973145;-0.84;-0.98;0.63;285.0;-0.150172;-0.01696
0.36;9.75;7.5;6.75;4.25;1.0;0.5;0.25;0.0;2.0;0.5;1.0;0.5;0.0;0.75;0.25;0.25;-0.223633;0.016602;0.988281;-0.7;0.56;0.56;404.0;-0.241335;0.002905;5.0;4.75;3.5;3.0;0.5;1.0;0.25;0.25;2.25;1.25;1.0;0.25;0.25;0.75;0.5;0.5;-0.25;0.033691;0.976074;-0.84;-0.98;0.63;288.0;-0.156917;-0.011364
0.37;10.0;7.25;7.0;4.25;1.0;0.5;0.25;0.0;2.25;0.5;1.0;0.5;0.0;0.75;0.25;0.25;-0.222168;0.017578;0.984863;-0.7;0.63;0.49;411.0;-0.237223;0.007674;5.5;4.5;3.5;3.0;0.75;0.75;0.25;0.25;2.25;1.25;1.25;0.25;0.5;1.0;0.5;0.5;-0.249512;0.030762;0.972168;-0.84;-0.91;0.63;299.0;-0.148456;-0.007526
0.38;9.75;7.25;6.75;4.25;1.0;0.5;0.25;0.0;2.0;0.5;1.0;0.5;0.0;0.75;0.25;0.25;-0.231934;0.017578;0.985352;-0.77;0.63;0.56;402.0;-0.240235;0.003966;5.75;4.75;3.5;3.0;0.5;1.0;0.25;0.25;2.0;1.25;1.25;0.5;0.5;0.75;0.25;0.5;-0.254395;0.025879;0.975098;-0.77;-0.98;0.63;298.0;-0.164531;-0.017995
0.39;9.75;7.5;6.75;4.0;1.0;0.5;0.25;0.0;2.0;0.5;1.0;0.5;0.0;0.75;0.25;0.25;-0.225098;0.02002;0.989746;-0.56;0.56;0.49;401.0;-0.24099;0.004608;5.25;4.75;3.5;3.0;1.0;1.0;0.25;0.25;2.25;1.5;1.25;0.75;0.5;0.75;0.25;0.5;-0.253418;0.03125;0.973633;-0.77;-0.91;0.7;308.0;-0.147253;-0.017229
0.4;9.75;7.0;6.75;4.25;1.0;0.5;0.25;0.0;2.25;0.5;1.0;0.5;0.0;0.75;0.25;0.25;-0.221191;0.024414;0.983887;-0.7;0.49;0.56;403.0;-0.234719;0.007432;5.25;4.75;3.5;3.25;1.0;1.0;0.25;0.25;2.0;1.5;1.25;0.5;0.5;0.75;0.5;0.5;-0.25293;0.027832;0.973145;-0.91;-0.84;0.63;307.0;-0.151481;-0.020642
0.41;9.75;7.0;6.75;4.25;1.0;0.5;0.25;0.0;2.0;0.5;1.0;0.5;0.25;0.75;0.25;0.25;-0.224609;0.022461;0.987305;-0.7;0.49;0.56;401.0;-0.236724;0.002303;5.5;4.75;3.75;3.25;0.75;1.0;0.25;0.25;2.0;1.5;1.0;0.5;0.5;1.0;0.5;0.5;-0.251465;0.030273;0.970215;-0.77;-0.91;0.7;310.0;-0.154417;-0.016802
0.42;9.75;7.0;6.75;4.0;1.0;0.5;0.25;0.0;2.0;0.5;1.25;0.5;0.0;0.75;0.25;0.25;-0.223145;0.023926;0.981934;-0.7;0.49;0.56;399.0;-0.235422;0.005902;5.0;5.0;3.75;3.0;0.75;1.0;0.25;0.25;2.0;1.0;1.0;0.5;0.5;0.75;0.5;0.25;-0.255859;0.036133;0.974121;-0.84;-0.98;0.63;294.0;-0.165226;-0.019981
0.43;9.75;7.25;6.75;4.0;1.0;0.5;0.25;0.0;2.25;0.5;1.0;0.5;0.0;0.75;0.25;0.25;-0.226562;0.023926;0.985352;-0.7;0.56;0.56;402.0;-0.235465;0.008077;4.75;5.0;3.75;3.0;0.75;1.0;0.25;0.25;2.25;1.25;1.25;0.5;0.5;0.5;0.5;0.25;-0.255371;0.030762;0.973633;-0.84;-0.91;0.63;298.0;-0.154787;-0.019333
0.44;9.75;7.25;6.75;4.0;1.0;0.5;0.25;0.0;2.25;0.5;1.0;0.25;0.0;0.75;0.25;0.25;-0.220215;0.019043;0.97998;-0.63;0.63;0.56;399.0;-0.238674;0.010271;5.25;4.75;3.5;3.25;0.75;1.0;0.25;0.25;2.25;1.0;1.0;0.5;0.5;0.75;0.25;0.5;-0.248535;0.032715;0.974121;-0.84;-1.05;0.7;296.0;-0.163392;-0.01802
0.45;10.0;7.5;7.0;4.0;1.0;0.25;0.25;0.0;2.0;0.5;1.0;0.5;0.0;0.25;0.25;0.25;-0.220703;0.023438;0.982422;-0.63;0.56;0.63;399.0;-0.250586;0.006048;5.25;4.75;3.5;3.25;1.0;1.0;0.25;0.25;2.25;1.5;1.25;0.75;0.5;0.25;0.25;0.25;-0.256348;0.027832;0.966309;-0.91;-0.91;0.7;305.0;-0.159632;-0.020802
0.46;10.0;7.5;6.75;4.0;1.0;0.25;0.25;0.0;2.0;0.5;1.0;0.5;0.0;0.25;0.25;0.25;-0.224609;0.022949;0.983398;-0.7;0.56;0.63;396.0;-0.250472;0.005407;5.25;4.75;3.5;3.0;0.75;1.25;0.25;0.25;2.25;1.5;1.25;0.75;0.25;0.5;0.25;0.25;-0.254395;0.02832;0.969727;-0.77;-0.91;0.7;302.0;-0.156794;-0.017108
0.47;9.75;7.5;6.75;4.0;1.0;0.5;0.25;0.0;2.25;0.75;1.0;0.5;0.0;0.25;0.0;0.25;-0.226074;0.019531;0.990234;-0.77;0.56;0.56;400.0;-0.245355;0.006053;5.25;4.75;3.5;3.25;0.75;1.0;0.25;0.5;2.25;1.25;1.25;0.75;0.25;0.75;0.5;0.25;-0.255859;0.033203;0.975586;-0.84;-1.05;0.7;308.0;-0.150283;-0.021607
0.48;9.75;7.25;6.75;4.0;1.0;0.25;0.25;0.0;2.0;0.75;1.0;0.5;0.0;0.0;0.25;0.25;-0.226074;0.023926;0.980957;-0.63;0.63;0.49;391.0;-0.248664;0.005167;5.25;4.75;3.5;3.25;0.75;1.0;0.25;0.25;2.25;1.25;1.25;0.75;0.5;0.75;0.5;0.5;-0.257324;0.029785;0.976074;-0.77;-0.84;0.7;308.0;-0.147246;-0.021371
0.49;10.0;7.5;6.75;4.25;1.0;0.25;0.25;0.0;2.0;0.75;0.75;0.5;0.0;0.25;0.25;0.5;-0.226074;0.020996;0.989258;-0.7;0.49;0.63;401.0;-0.248409;0.003786;5.25;4.75;3.5;3.25;0.5;1.0;0.25;0.25;2.25;1.25;1.0;0.25;0.5;0.75;0.5;0.5;-0.251953;0.031738;0.971191;-0.84;-0.91;0.7;296.0;-0.157997;-0.015956
0.5;10.0;7.5;7.0;4.25;1.0;0.5;0.25;0.0;2.25;1.0;0.75;0.5;0.0;0.5;0.25;0.5;-0.220703;0.018555;0.984375;-0.7;0.56;0.56;416.0;-0.236464;0.006144;5.5;4.75;3.75;3.0;0.5;1.0;0.25;0.25;2.25;1.25;1.0;0.25;0.5;0.75;0.5;0.5;-0.253906;0.037109;0.967773;-0.84;-0.91;0.7;299.0;-0.160115;-0.011608
0.51;10.0;7.5;7.0;4.0;1.0;0.25;0.25;0.0;2.25;1.0;1.0;0.5;0.0;0.25;0.25;0.5;-0.225586;0.024414;0.98291;-0.77;0.56;0.56;410.0;-0.237151;0.008035;5.5;5.0;3.75;3.0;0.75;1.0;0.25;0.25;2.0;1.25;1.0;0.5;0.25;0.75;0.5;0.5;-0.248047;0.029297;0.974609;-0.84;-0.98;0.77;302.0;-0.165901;-0.014767
0.52;10.0;7.5;6.75;4.25;1.0;0.25;0.25;0.0;2.25;0.75;1.0;0.25;0.0;0.25;0.25;0.5;-0.223145;0.023438;0.984375;-0.7;0.49;0.63;404.0;-0.243849;0.007469;5.0;4.75;3.25;3.0;0.75;1.0;0.25;0.25;2.25;1.25;1.0;0.5;0.25;0.75;0.5;0.5;-0.255859;0.03125;0.974121;-0.84;-0.91;0.56;291.0;-0.151829;-0.014488
0.53;10.0;7.5;6.75;4.0;1.0;0.25;0.0;0.0;2.25;0.5;1.0;0.25;0.0;0.75;0.0;0.5;-0.230957;0.016113;0.980469;-0.7;0.49;0.63;396.0;-0.247383;0.009022;5.5;4.75;3.5;3.0;0.75;0.75;0.25;0.25;2.25;1.5;1.0;0.5;0.25;0.5;0.5;0.5;-0.247559;0.031738;0.97998;-0.84;-0.84;0.7;297.0;-0.158438;-0.009238
0.54;10.0;7.5;6.75;4.0;1.0;0.25;0.25;0.0;2.25;0.5;1.0;0.5;0.0;0.75;0.25;0.25;-0.22168;0.020996;0.981934;-0.63;0.56;0.63;405.0;-0.23838;0.009763;5.0;4.75;3.75;3.0;0.75;1.0;0.25;0.25;2.25;1.25;1.0;0.5;0.25;0.5;0.5;0.25;-0.250977;0.036621;0.97168;-0.84;-0.98;0.7;293.0;-0.161252;-0.01234
0.55;10.0;7.5;7.0;4.25;1.0;0.25;0.25;0.0;2.0;0.5;1.0;0.5;0.0;0.75;0.25;0.25;-0.227051;0.013672;0.985352;-0.56;0.56;0.56;407.0;-0.243294;0.006305;5.25;4.75;3.75;3.0;0.75;1.0;0.25;0.25;2.25;1.25;1.0;0.5;0.5;0.75;0.5;0.25;-0.253906;0.029297;0.97168;-0.91;-0.98;0.63;301.0;-0.156508;-0.01325
0.56;10.0;7.5;6.75;4.25;1.0;0.5;0.25;0.0;2.0;0.75;1.0;0.5;0.0;0.25;0.25;0.25;-0.222168;0.020508;0.989258;-0.7;0.49;0.56;405.0;-0.246581;0.00207;5.75;4.75;3.5;3.25;0.5;1.0;0.25;0.25;2.25;1.25;1.0;0.5;0.5;0.75;0.5;0.25;-0.250977;0.033691;0.96875;-0.77;-0.91;0.56;303.0;-0.161621;-0.014832
0.57;10.0;7.5;6.75;4.25;1.0;0.25;0.0;0.0;2.0;0.75;1.25;0.5;0.0;0.5;0.25;0.25;-0.228027;0.022949;0.987305;-0.63;0.42;0.49;403.0;-0.243469;0.001816;5.75;4.75;3.5;3.0;0.75;1.25;0.25;0.25;2.25;1.25;1.25;0.75;0.25;1.0;0.5;0.25;-0.260254;0.025391;0.975098;-0.77;-0.98;0.7;312.0;-0.151223;-0.013259
0.58;9.75;7.5;6.75;4.25;1.0;0.25;0.25;0.0;1.75;0.5;1.0;0.5;0.0;0.75;0.25;0.25;-0.22168;0.023926;0.984863;-0.56;0.49;0.63;398.0;-0.24648;0.002527;5.75;5.0;3.75;3.0;0.75;1.0;0.25;0.25;2.25;1.25;1.25;0.5;0.25;0.5;0.75;0.25;-0.255859;0.027832;0.97168;-0.84;-0.98;0.7;310.0;-0.161122;-0.011871
0.59;10.0;7.5;6.75;4.25;1.0;0.25;0.0;0.0;2.0;0.5;1.25;0.5;0.0;0.25;0.25;0.25;-0.222168;0.022949;0.984375;-0.63;0.63;0.63;398.0;-0.25075;0.000347;6.0;4.75;3.5;3.0;0.5;1.0;0.25;0.25;2.25;1.25;1.0;0.5;0.25;0.5;0.5;0.25;-0.250488;0.026855;0.974121;-0.84;-1.05;0.7;298.0;-0.169726;-0.009522
0.6;10.0;7.0;7.0;4.25;1.0;0.25;0.0;0.0;2.25;0.5;1.25;0.5;0.0;0.25;0.25;0.25;-0.225098;0.018555;0.985352;-0.56;0.49;0.63;400.0;-0.244231;0.005577;5.0;4.5;3.5;3.25;0.75;1.0;0.25;0.25;2.25;1.5;1.0;0.75;0.25;0.75;0.25;0.5;-0.25293;0.031738;0.975098;-0.84;-0.91;0.7;297.0;-0.150269;-0.015585
0.61;9.75;7.5;7.0;4.25;1.0;0.25;0.25;0.0;2.0;0.5;1.0;0.5;0.0;0.5;0.25;0.5;-0.225586;0.015625;0.98584;-0.7;0.56;0.63;403.0;-0.243728;0.003423;5.0;4.75;3.5;3.25;0.75;1.0;0.25;0.25;2.25;1.5;1.0;0.75;0.5;0.75;0.5;0.25;-0.253906;0.030762;0.969727;-0.84;-1.05;0.7;304.0;-0.147223;-0.019469
0.62;10.0;7.5;6.75;4.25;1.0;0.25;0.25;0.0;2.0;0.5;1.0;0.25;0.0;0.75;0.25;0.25;-0.225098;0.017578;0.988281;-0.63;0.42;0.63;401.0;-0.246376;0.007846;5.25;4.75;3.5;3.0;0.75;1.0;0.25;0.25;2.0;1.25;0.75;0.5;0.25;0.75;0.5;0.25;-0.253906;0.035645;0.975586;-0.84;-1.05;0.77;289.0;-0.166915;-0.013222
0.63;10.0;7.5;6.75;4.25;1.0;0.25;0.25;0.0;2.0;0.5;1.25;0.25;0.0;0.5;0.5;0.25;-0.223633;0.021973;0.981934;-0.56;0.49;0.56;404.0;-0.242183;0.005358;5.5;4.75;3.75;3.0;0.5;1.0;0.25;0.25;2.0;1.25;1.25;0.25;0.25;0.5;0.25;0.25;-0.252441;0.032715;0.970703;-0.77;-0.91;0.63;289.0;-0.177014;-0.011785
0.64;9.75;7.25;6.75;4.0;1.0;0.25;0.25;0.0;2.25;0.75;1.0;0.5;0.0;0.75;0.5;0.25;-0.22168;0.015625;0.979492;-0.42;0.42;0.63;405.0;-0.228183;0.009894;5.25;4.5;3.75;3.0;0.75;0.75;0.25;0.25;2.0;1.5;1.25;0.25;0.25;0.75;0.25;0.25;-0.255371;0.026367;0.970703;-0.84;-0.98;0.7;289.0;-0.163593;-0.00591
0.65;10.0;7.5;6.75;4.25;1.0;0.25;0.25;0.0;2.0;0.5;1.0;0.5;0.0;0.75;0.25;0.25;-0.228027;0.015137;0.986816;-0.63;0.56;0.56;404.0;-0.243126;0.005679;5.5;4.75;3.5;3.0;0.75;1.0;0.25;0.25;2.0;1.5;1.0;0.5;0.25;0.25;0.5;0.5;-0.25293;0.027344;0.971191;-0.91;-1.05;0.63;294.0;-0.167924;-0.016826
0.66;10.0;7.5;6.75;4.0;1.0;0.5;0.25;0.0;1.75;0.25;1.0;0.5;0.0;0.75;0.25;0.25;-0.225586;0.013184;0.98584;-0.56;0.35;0.7;397.0;-0.250063;0.0025;5.5;4.75;3.5;3.0;0.75;1.0;0.25;0.25;2.0;1.5;1.0;0.5;0.5;0.25;0.25;0.5;-0.248047;0.028809;0.971191;-0.84;-0.98;0.63;294.0;-0.170837;-0.019755
0.67;10.25;7.5;6.75;4.25;1.0;0.5;0.25;0.0;1.75;0.25;1.0;0.5;0.0;0.75;0.5;0.25;-0.223633;0.019531;0.98877;-0.63;0.49;0.49;406.0;-0.246766;0.000965;5.5;5.0;3.5;3.0;0.5;1.0;0.25;0.25;2.0;1.5;1.25;0.5;0.5;0.5;0.25;0.5;-0.250488;0.027832;0.970215;-0.84;-0.91;0.7;298.0;-0.165029;-0.021192
0.68;10.25;7.5;6.75;4.25;1.0;0.25;0.25;0.0;2.0;0.5;0.75;0.5;0.0;0.5;0.5;0.5;-0.227539;0.023438;0.980957;-0.7;0.49;0.56;406.0;-0.244499;0.004485;5.25;4.75;3.5;3.25;0.5;1.0;0.25;0.25;2.25;1.5;1.25;0.5;0.25;0.75;0.5;0.25;-0.254883;0.025879;0.978516;-0.84;-0.98;0.7;301.0;-0.152188;-0.01388
0.69;10.25;7.5;6.75;4.25;1.0;0.5;0.25;0.0;2.25;0.25;1.0;0.5;0.0;0.5;0.25;0.5;-0.219727;0.018066;0.991211;-0.63;0.56;0.56;410.0;-0.244099;0.00418;5.5;4.75;3.75;3.0;0.75;1.0;0.25;0.25;2.5;1.5;1.25;0.25;0.25;0.75;0.25;0.5;-0.252441;0.02832;0.973145;-0.84;-1.05;0.7;306.0;-0.155434;-0.003704
0.7;10.25;7.5;6.75;4.25;1.0;0.5;0.25;0.0;2.25;0.5;1.0;0.5;0.25;0.25;0.25;0.5;-0.220703;0.016602;0.978516;-0.63;0.56;0.56;413.0;-0.242096;0.000957;5.75;4.75;3.75;3.0;0.75;1.0;0.25;0.25;2.25;1.5;0.75;0.25;0.5;0.75;0.25;0.5;-0.256836;0.028809;0.970703;-0.84;-1.05;0.7;302.0;-0.167321;-0.007386
0.71;9.75;7.5;6.75;4.25;1.0;0.25;0.25;0.0;2.0;0.5;0.75;0.5;0.0;0.5;0.25;0.25;-0.223633;0.020996;0.987305;-0.63;0.63;0.49;396.0;-0.249214;0.00481;5.75;4.75;3.75;3.25;0.5;0.5;0.25;0.25;2.25;1.0;1.0;0.5;0.5;0.75;0.25;0.5;-0.255859;0.032227;0.976074;-0.77;-0.98;0.63;296.0;-0.169638;-0.010175
0.72;10.0;7.5;6.75;4.25;1.0;0.25;0.25;0.0;2.0;0.5;1.0;0.5;0.0;0.5;0.25;0.25;-0.219727;0.025391;0.988281;-0.63;0.63;0.63;402.0;-0.246916;0.004684;5.25;4.75;3.75;3.25;0.75;0.5;0.25;0.25;2.25;1.0;1.25;0.5;0.5;0.75;0.5;0.5;-0.258789;0.027832;0.975586;-0.84;-1.05;0.7;299.0;-0.155463;-0.013409
0.73;10.0;7.5;6.75;4.25;1.0;0.5;0.25;0.0;2.25;0.5;1.0;0.5;0.0;0.5;0.0;0.25;-0.219727;0.020508;0.987305;-0.56;0.63;0.56;405.0;-0.246409;0.00564;5.5;4.75;3.5;3.0;0.75;0.75;0.25;0.25;2.25;1.0;1.0;0.5;0.5;1.0;0.5;0.5;-0.256836;0.033691;0.971191;-0.77;-0.91;0.7;298.0;-0.154565;-0.011292
0.74;10.0;7.25;6.75;4.0;1.0;0.5;0.25;0.0;1.75;0.5;1.0;0.5;0.0;0.5;0.0;0.25;-0.221191;0.024902;0.986328;-0.56;0.49;0.56;393.0;-0.254162;0.003608;5.75;4.75;3.75;3.0;0.75;1.0;0.25;0.25;2.5;1.0;0.75;0.5;0.5;0.5;0.5;0.5;-0.255371;0.035156;0.975098;-0.84;-0.91;0.63;303.0;-0.1654;-0.010264
0.75;9.75;7.5;6.75;4.25;1.0;0.5;0.25;0.0;2.0;0.75;1.0;0.75;0.0;0.5;0.25;0.25;-0.221191;0.020508;0.981445;-0.63;0.49;0.63;407.0;-0.238515;0.000222;5.5;5.0;3.75;3.0;0.75;1.0;0.25;0.25;2.0;1.5;0.5;0.25;0.5;0.5;0.5;0.5;-0.250977;0.030762;0.977051;-0.91;-0.91;0.7;296.0;-0.175093;-0.014385
0.76;10.0;7.5;7.0;4.0;1.0;0.25;0.25;0.0;2.0;0.25;1.25;0.75;0.0;0.5;0.25;0.5;-0.229492;0.025879;0.985352;-0.7;0.63;0.49;406.0;-0.241384;0.002456;5.5;4.75;3.75;3.0;1.0;1.0;0.25;0.25;2.25;1.25;0.75;0.5;0.5;0.75;0.75;0.25;-0.257812;0.03418;0.975586;-0.84;-0.91;0.63;306.0;-0.156773;-0.011078
0.77;10.25;7.0;6.75;4.25;1.0;0.25;0.25;0.0;2.0;0.25;1.25;0.5;0.0;0.5;0.25;0.5;-0.223145;0.023926;0.98877;-0.49;0.42;0.56;401.0;-0.243723;0.005111;5.75;4.75;3.75;3.25;1.0;1.0;0.25;0.25;2.0;1.25;1.25;0.5;0.5;0.75;0.5;0.5;-0.256836;0.027344;0.979004;-0.77;-0.98;0.7;313.0;-0.160701;-0.017998
0.78;10.0;7.0;6.75;4.25;1.0;0.5;0.25;0.0;2.0;0.25;1.0;0.5;0.0;0.75;0.25;0.25;-0.228027;0.020996;0.98877;-0.56;0.56;0.63;399.0;-0.243701;0.005358;5.75;4.75;3.75;3.25;0.75;1.0;0.25;0.25;2.0;1.0;1.25;0.25;0.25;0.75;0.5;0.5;-0.245605;0.029785;0.977051;-0.91;-1.05;0.63;302.0;-0.170928;-0.013447
0.79;10.0;7.5;6.75;4.25;1.0;0.5;0.25;0.0;2.25;0.25;0.5;0.5;0.0;0.75;0.25;0.25;-0.221191;0.020996;0.979492;-0.63;0.42;0.49;402.0;-0.248103;0.007326;5.5;4.75;3.75;3.0;0.5;0.75;0.25;0.25;2.0;1.0;1.0;0.5;0.25;0.75;0.75;0.5;-0.25293;0.032227;0.970703;-0.91;-0.91;0.63;293.0;-0.162631;-0.013047
0.8;10.0;7.5;6.75;4.25;0.75;0.25;0.25;0.0;2.0;0.5;0.75;0.5;0.0;0.75;0.25;0.25;-0.223145;0.022461;0.983398;-0.63;0.56;0.49;398.0;-0.247384;0.006132;6.0;4.75;3.75;3.25;0.75;1.0;0.25;0.25;2.25;1.0;0.75;0.5;0.25;0.75;0.25;0.5;-0.257812;0.024902;0.970703;-0.77;-0.84;0.7;303.0;-0.177415;-0.009006
0.81;10.0;7.5;6.75;4.25;1.0;0.25;0.25;0.0;2.0;0.25;0.75;0.5;0.0;1.0;0.25;0.25;-0.229004;0.021484;0.979004;-0.63;0.56;0.63;401.0;-0.246106;0.007131;6.0;4.75;3.5;3.0;0.75;1.0;0.25;0.25;2.25;1.0;1.0;0.5;0.25;0.75;0.5;0.5;-0.254395;0.029785;0.972656;-0.84;-0.98;0.7;302.0;-0.166073;-0.009561
0.82;10.0;7.5;6.75;4.25;1.0;0.5;0.25;0.0;2.0;0.25;1.0;0.75;0.0;0.75;0.5;0.25;-0.226074;0.018066;0.980957;-0.7;0.56;0.49;410.0;-0.238089;0.000518;6.0;5.0;3.5;3.0;0.75;1.0;0.25;0.25;2.25;1.25;1.0;0.5;0.25;0.75;0.5;0.5;-0.251953;0.028809;0.974121;-0.91;-1.05;0.77;308.0;-0.16437;-0.010165
0.83;10.0;7.5;6.75;4.25;1.0;0.5;0.25;0.0;2.0;0.5;0.75;0.25;0.0;0.75;0.25;0.25;-0.222656;0.022461;0.981445;-0.7;0.56;0.56;401.0;-0.249045;0.006646;5.75;5.0;3.75;3.25;0.75;1.0;0.25;0.25;2.25;1.0;1.0;0.5;0.25;0.75;0.5;0.25;-0.255859;0.030273;0.973633;-0.84;-1.05;0.7;307.0;-0.170664;-0.011594
0.84;10.0;7.5;6.75;4.25;1.0;0.5;0.25;0.0;1.75;0.5;0.75;0.25;0.0;0.75;0.25;0.25;-0.224609;0.018066;0.979004;-0.63;0.56;0.56;398.0;-0.253591;0.004239;5.5;5.0;3.5;3.0;0.75;1.0;0.25;0.25;2.25;1.25;0.25;0.5;0.25;0.75;0.5;0.5;-0.25;0.025391;0.976074;-0.91;-0.84;0.7;294.0;-0.171175;-0.009369
0.85;10.25;7.5;6.75;4.25;1.0;0.25;0.25;0.0;1.75;0.5;0.75;0.5;0.0;0.5;0.25;0.25;-0.227051;0.019043;0.984375;-0.63;0.63;0.56;398.0;-0.255948;0.003869;5.5;4.75;3.75;3.0;0.75;1.0;0.25;0.25;2.25;1.0;0.25;0.5;0.25;1.0;0.5;0.5;-0.25;0.029785;0.96875;-0.77;-0.84;0.7;294.0;-0.169416;-0.006228
0.86;10.0;7.5;6.75;4.25;1.0;0.5;0.25;0.0;1.75;0.5;1.0;0.5;0.0;0.75;0.25;0.25;-0.222168;0.018555;0.98291;-0.63;0.42;0.63;403.0;-0.246885;0.001242;5.75;4.75;3.5;3.0;0.5;1.0;0.25;0.25;2.0;1.0;0.5;0.5;0.25;1.0;0.5;0.5;-0.24707;0.029297;0.970703;-0.84;-0.91;0.63;290.0;-0.1725;-0.011358
0.87;10.0;7.5;6.75;4.25;1.0;0.5;0.25;0.0;1.75;0.5;1.0;0.5;0.0;0.5;0.25;0.25;-0.228027;0.022949;0.975586;-0.63;0.56;0.56;401.0;-0.250702;0.00022;5.25;4.75;3.75;3.0;0.75;1.0;0.25;0.25;2.25;1.5;1.25;0.5;0.5;0.75;0.5;0.25;-0.252441;0.024902;0.971191;-0.77;-0.91;0.63;306.0;-0.149255;-0.013492
0.88;10.0;7.75;6.75;4.25;1.0;0.5;0.25;0.0;2.0;0.5;1.0;0.5;0.0;0.25;0.25;0.25;-0.220703;0.022461;0.97998;-0.63;0.56;0.49;405.0;-0.251059;0.000589;5.25;4.75;3.75;3.0;0.5;1.0;0.25;0.25;2.0;1.0;0.75;0.75;0.5;0.75;0.5;0.25;-0.253906;0.033203;0.96875;-0.91;-0.98;0.77;291.0;-0.165916;-0.02009
0.89;10.0;7.5;6.75;4.25;1.0;0.5;0.25;0.0;2.0;0.5;1.0;0.5;0.0;0.5;0.25;0.25;-0.223633;0.025391;0.98877;-0.63;0.42;0.56;405.0;-0.24622;0.002643;5.5;4.5;3.5;3.0;0.5;1.0;0.25;0.25;2.25;1.0;0.5;0.25;0.5;1.0;0.5;0.5;-0.246582;0.033691;0.975098;-0.91;-0.98;0.7;287.0;-0.163768;-0.008464
0.9;10.0;7.5;6.75;4.25;0.75;0.25;0.25;0.0;2.0;0.25;0.75;0.5;0.0;0.75;0.5;0.25;-0.228516;0.02002;0.982422;-0.63;0.7;0.56;398.0;-0.246151;0.005084;5.25;4.5;3.5;3.0;0.5;1.0;0.25;0.25;2.25;1.0;0.75;0.25;0.5;0.75;0.5;0.5;-0.254395;0.029785;0.971191;-0.84;-0.84;0.7;285.0;-0.162174;-0.012223
0.91;10.25;7.75;6.75;4.25;0.75;0.25;0.25;0.0;2.0;0.25;0.75;0.5;0.0;0.25;0.25;0.25;-0.227051;0.023926;0.985352;-0.63;0.49;0.56;396.0;-0.260816;0.003343;5.5;4.75;3.5;3.0;0.75;1.0;0.25;0.25;2.0;1.5;0.75;0.25;0.5;0.75;0.25;0.5;-0.250977;0.033203;0.972168;-0.84;-0.84;0.63;293.0;-0.169195;-0.012962
0.92;10.25;7.5;6.75;4.25;0.75;0.5;0.25;0.0;2.0;0.5;1.0;0.5;0.25;0.25;0.0;0.25;-0.223145;0.023438;0.985352;-0.7;0.49;0.56;402.0;-0.254268;-0.000176;5.25;4.75;3.5;3.0;0.75;1.0;0.25;0.25;2.0;0.75;0.75;0.25;0.5;0.75;0.25;0.5;-0.256836;0.029785;0.97168;-0.91;-0.91;0.63;281.0;-0.179262;-0.016519
0.93;10.75;7.5;7.0;4.25;1.0;0.25;0.25;0.0;2.25;0.5;1.0;0.5;0.0;0.25;0.25;0.25;-0.221191;0.016602;0.98584;-0.49;0.56;0.56;414.0;-0.249607;0.008799;5.5;4.75;3.5;3.25;1.0;0.75;0.25;0.25;2.0;1.25;1.0;0.5;0.5;0.5;0.5;0.25;-0.247559;0.030762;0.978516;-0.7;-0.91;0.77;298.0;-0.168188;-0.01687
0.94;10.25;7.75;7.5;4.25;0.75;0.25;0.25;0.0;2.0;0.5;1.0;0.5;0.0;0.5;0.25;0.25;-0.223145;0.016113;0.98584;-0.63;0.35;0.49;413.0;-0.250317;0.005817;5.75;5.0;3.75;3.25;1.0;1.0;0.25;0.25;2.25;1.0;1.25;0.5;0.25;0.75;0.25;0.25;-0.25293;0.028809;0.977051;-0.84;-1.05;0.7;310.0;-0.171914;-0.011197
0.95;10.25;7.75;7.25;4.5;1.0;0.25;0.25;0.0;2.0;0.5;1.0;0.5;0.0;0.5;0.0;0.25;-0.225586;0.023926;0.979004;-0.63;0.49;0.49;413.0;-0.254132;0.004541;5.75;5.0;3.75;3.0;0.75;1.0;0.25;0.25;2.25;0.75;0.75;0.25;0.25;0.75;0.0;0.5;-0.249023;0.030273;0.973633;-0.77;-0.98;0.7;291.0;-0.189833;-0.006438
0.96;10.0;7.5;7.0;4.5;1.0;0.25;0.25;0.0;2.0;0.5;1.0;0.5;0.0;0.5;0.25;0.25;-0.226562;0.017578;0.983398;-0.63;0.56;0.56;408.0;-0.247354;0.003629;5.5;5.0;3.75;3.0;0.75;1.0;0.25;0.25;2.25;1.0;0.75;0.25;0.25;0.75;0.25;0.5;-0.255859;0.029297;0.973145;-0.77;-0.91;0.7;294.0;-0.177781;-0.007607
0.97;10.0;7.5;6.75;4.5;1.0;0.25;0.25;0.0;1.75;0.5;1.0;0.75;0.0;0.75;0.25;0.25;-0.22168;0.017578;0.983887;-0.56;0.49;0.56;406.0;-0.244644;-0.000527;5.25;4.75;3.75;3.0;0.75;1.0;0.25;0.25;2.0;1.25;0.75;0.5;0.25;0.75;0.25;0.5;-0.250488;0.02832;0.973633;-0.77;-0.84;0.7;290.0;-0.170931;-0.012997
0.98;10.0;7.75;6.75;4.5;1.0;0.0;0.25;0.0;2.0;0.75;0.75;0.75;0.0;0.75;0.25;0.25;-0.226074;0.025391;0.986328;-0.56;0.56;0.56;409.0;-0.241917;0.004087;5.25;4.5;3.5;3.0;0.5;1.0;0.25;0.25;2.25;1.25;0.75;0.5;0.25;1.25;0.25;0.5;-0.254395;0.02832;0.972168;-0.91;-0.91;0.7;290.0;-0.153669;-0.006918
0.99;10.0;7.75;6.75;4.5;1.0;0.25;0.25;0.0;2.0;0.5;0.75;0.5;0.0;0.75;0.25;0.25;-0.223633;0.017578;0.980957;-0.63;0.56;0.56;407.0;-0.247829;0.003769;5.5;4.75;3.5;3.0;0.75;0.75;0.25;0.25;2.25;0.75;1.0;0.5;0.5;0.75;0.5;0.5;-0.25293;0.029785;0.972656;-0.7;-0.91;0.63;293.0;-0.162883;-0.013517
1.0;10.25;7.75;7.0;4.75;1.0;0.25;0.25;0.0;2.0;0.5;1.0;0.5;0.0;0.25;0.25;0.25;-0.223633;0.022949;0.981934;-0.56;0.49;0.49;414.0;-0.253446;0.000681;5.5;4.75;3.5;3.25;0.75;0.75;0.25;0.25;2.25;1.0;0.75;0.25;0.25;0.75;0.5;0.5;-0.255371;0.029297;0.972656;-0.84;-0.98;0.77;291.0;-0.170419;-0.00751
1.01;10.5;7.5;7.0;4.25;1.0;0.25;0.25;0.25;2.0;0.75;1.25;0.5;0.0;0.25;0.25;0.25;-0.226562;0.021484;0.980957;-0.7;0.63;0.56;418.0;-0.243945;0.001379;6.0;4.75;3.5;3.25;0.5;1.0;0.25;0.25;2.0;1.0;0.75;0.25;0.25;0.75;0.5;0.5;-0.253418;0.024414;0.96875;-0.84;-0.91;0.7;293.0;-0.180401;-0.012101
1.02;10.0;7.75;6.75;4.5;1.0;0.25;0.25;0.25;2.0;0.75;1.0;0.25;0.0;0.25;0.25;0.25;-0.219727;0.022949;0.989746;-0.56;0.63;0.56;409.0;-0.249442;-0.00054;5.5;4.75;3.5;3.0;0.5;1.0;0.25;0.25;2.0;1.0;1.0;0.25;0.25;0.75;0.5;0.25;-0.252441;0.029297;0.97168;-0.77;-0.91;0.7;286.0;-0.1736;-0.01174
1.03;10.0;7.75;6.75;4.5;1.0;0.5;0.25;0.25;2.25;0.5;0.75;0.5;0.0;0.25;0.0;0.25;-0.224121;0.018555;0.987305;-0.7;0.7;0.49;410.0;-0.252408;-0.001267;5.5;4.75;3.75;3.0;0.5;0.75;0.25;0.25;2.25;1.0;0.75;0.25;0.25;0.5;0.75;0.25;-0.258301;0.02832;0.976074;-0.84;-0.91;0.7;287.0;-0.172359;-0.005596
1.04;10.5;7.75;7.0;4.75;1.0;0.5;0.25;0.25;2.0;0.5;1.0;0.5;0.0;0.25;0.25;0.25;-0.223633;0.018555;0.992188;-0.7;0.49;0.63;424.0;-0.251367;-0.004374;6.0;4.75;3.75;3.0;0.75;1.0;0.25;0.25;2.0;1.0;0.75;0.25;0.25;0.5;0.75;0.25;-0.255371;0.033203;0.971191;-0.84;-0.98;0.63;295.0;-0.181298;-0.008806
1.05;10.75;7.75;7.0;4.75;1.0;0.25;0.25;0.0;2.0;0.5;1.0;0.25;0.0;0.5;0.25;0.25;-0.22168;0.021973;0.990234;-0.63;0.49;0.63;419.0;-0.254963;0.005166;5.75;4.5;3.75;3.25;0.75;1.0;0.25;0.25;2.0;1.5;1.0;0.25;0.25;0.25;0.5;0.5;-0.256836;0.033203;0.976074;-0.84;-0.84;0.63;298.0;-0.173907;-0.012675
1.06;9.75;7.5;7.0;4.5;1.0;0.25;0.25;0.0;1.75;0.25;1.0;0.25;0.0;0.5;0.25;0.25;-0.225586;0.021484;0.985352;-0.56;0.56;0.63;396.0;-0.257624;0.002177;5.25;4.75;3.75;3.0;0.75;0.75;0.25;0.25;2.25;1.0;1.0;0.25;0.5;0.5;0.5;0.5;-0.251465;0.032715;0.974609;-0.84;-0.91;0.7;291.0;-0.165952;-0.011604
1.07;9.75;7.5;7.25;4.5;1.0;0.5;0.25;0.0;1.75;0.25;1.0;0.5;0.0;0.5;0.25;0.25;-0.217773;0.025391;0.980957;-0.56;0.49;0.56;404.0;-0.253582;-0.001313;5.25;5.25;4.0;3.0;0.75;0.75;0.25;0.25;2.25;1.0;0.75;0.5;0.5;0.75;0.5;0.5;-0.251953;0.029297;0.968262;-0.7;-0.77;0.63;302.0;-0.166831;-0.013436
1.08;10.0;7.5;7.0;4.25;1.0;0.5;0.25;0.0;1.75;0.25;1.0;0.5;0.0;0.5;0.25;0.25;-0.224609;0.023926;0.982422;-0.63;0.49;0.56;401.0;-0.254294;0.000446;5.5;4.75;3.75;3.25;0.75;0.75;0.25;0.25;2.25;1.5;0.75;0.5;0.25;0.75;0.25;0.5;-0.251465;0.026855;0.971191;-0.77;-0.91;0.7;300.0;-0.165477;-0.00723
1.09;10.25;8.0;7.0;4.5;1.0;0.5;0.25;0.0;2.0;0.25;1.0;0.5;0.25;0.75;0.25;0.25;-0.224609;0.019043;0.979492;-0.7;0.49;0.56;420.0;-0.24708;-0.001707;5.75;4.75;3.75;3.25;0.75;0.75;0.25;0.25;2.25;1.0;0.75;0.75;0.25;0.25;0.5;0.5;-0.246094;0.028809;0.969238;-0.84;-0.91;0.7;298.0;-0.175353;-0.013877
1.1;10.25;7.75;7.0;4.75;1.25;0.5;0.25;0.0;2.0;0.25;1.0;0.25;0.0;0.75;0.25;0.25;-0.228027;0.022949;0.989258;-0.63;0.35;0.63;419.0;-0.250959;0.002749;5.5;4.5;3.75;3.0;0.5;1.0;0.25;0.25;2.0;0.75;0.75;0.5;0.5;0.5;0.5;0.5;-0.252441;0.036133;0.969238;-0.77;-0.84;0.63;285.0;-0.175872;-0.018705
1.11;10.25;7.75;6.75;4.75;1.0;0.5;0.25;0.0;2.0;0.5;0.5;0.25;0.0;0.75;0.5;0.25;-0.222168;0.018555;0.987793;-0.7;0.7;0.56;412.0;-0.250417;0.003159;5.75;5.0;3.5;3.0;0.75;1.0;0.25;0.25;2.0;1.0;0.75;0.5;0.5;0.75;0.5;0.5;-0.257812;0.024902;0.97168;-0.91;-0.98;0.7;298.0;-0.172121;-0.017968
1.12;10.25;7.75;6.75;4.5;0.75;0.5;0.25;0.0;2.0;0.5;0.5;0.5;0.0;0.5;0.5;0.5;-0.227539;0.021484;0.987793;-0.7;0.63;0.56;409.0;-0.249374;0.000155;6.0;5.0;3.75;3.25;0.75;1.0;0.25;0.25;2.25;1.0;1.0;0.5;0.5;0.75;0.75;0.5;-0.254883;0.029785;0.970215;-0.77;-1.05;0.63;316.0;-0.162481;-0.015922
1.13;10.25;7.5;7.0;4.25;1.0;0.25;0.25;0.0;2.0;0.25;0.75;0.5;0.0;0.25;0.25;0.25;-0.222656;0.023438;0.986328;-0.63;0.56;0.56;399.0;-0.25885;0.005504;5.25;5.0;3.75;3.25;0.75;1.0;0.25;0.25;2.25;1.0;1.0;0.5;0.5;0.75;0.25;0.5;-0.253418;0.031738;0.973633;-0.7;-0.98;0.7;302.0;-0.166538;-0.018173
1.14;9.75;7.75;6.75;4.25;1.0;0.25;0.25;0.0;2.0;0.25;0.75;0.5;0.25;0.25;0.25;0.25;-0.228027;0.023438;0.987305;-0.56;0.42;0.63;396.0;-0.25519;-0.000493;5.5;4.75;3.75;3.0;0.75;1.0;0.25;0.25;2.25;0.75;0.75;0.5;0.5;0.75;0.25;0.5;-0.253906;0.025391;0.976074;-0.77;-1.05;0.63;294.0;-0.1732;-0.01341
1.15;10.25;7.75;7.0;4.25;1.0;0.25;0.25;0.0;2.0;0.5;0.75;0.5;0.0;0.25;0.25;0.25;-0.218262;0.018555;0.983887;-0.56;0.42;0.49;405.0;-0.256328;0.004846;6.0;4.75;3.75;3.25;1.0;0.75;0.25;0.25;2.25;1.0;0.75;0.5;0.5;0.75;0.5;0.5;-0.256348;0.029297;0.978027;-0.84;-0.91;0.7;308.0;-0.169052;-0.009912
1.16;10.5;7.5;7.5;4.25;0.5;0.5;0.25;0.0;2.0;0.25;1.0;0.5;0.0;0.5;0.25;0.25;-0.21875;0.021973;0.98291;-0.63;0.49;0.56;411.0;-0.253951;0.004756;6.0;4.75;3.5;3.25;0.75;1.0;0.25;0.25;2.0;1.0;1.0;0.5;0.5;0.75;0.25;0.5;-0.255371;0.027344;0.972168;-0.84;-1.05;0.77;301.0;-0.175132;-0.017915
1.17;10.75;7.5;7.0;4.25;0.75;0.25;0.25;0.0;2.0;0.5;1.0;0.25;0.0;0.25;0.25;0.25;-0.226074;0.013672;0.98877;-0.63;0.49;0.56;405.0;-0.258261;0.008233;6.0;4.75;3.75;3.25;0.75;1.25;0.25;0.25;2.0;1.0;0.75;0.5;0.5;0.75;0.25;0.5;-0.249512;0.030762;0.973145;-0.84;-0.91;0.63;304.0;-0.179582;-0.018413
1.18;10.25;7.75;6.75;4.5;1.0;0.25;0.25;0.0;2.0;0.5;0.75;0.25;0.0;0.25;0.25;0.25;-0.220703;0.021973;0.991699;-0.63;0.56;0.63;402.0;-0.259829;0.004648;5.75;4.75;3.75;3.25;0.75;1.0;0.25;0.25;2.0;1.0;0.75;0.5;0.5;0.75;0.5;0.5;-0.252441;0.030762;0.973633;-0.77;-0.91;0.7;302.0;-0.17217;-0.017702
1.19;10.25;7.75;6.75;4.75;1.0;0.25;0.25;0.0;1.75;0.5;0.5;0.5;0.0;0.25;0.25;0.25;-0.223633;0.022949;0.984863;-0.7;0.56;0.63;401.0;-0.264731;-0.000769;5.5;5.0;3.75;3.0;0.5;1.0;0.25;0.25;2.25;1.25;0.75;0.75;0.25;1.0;0.5;0.5;-0.25293;0.029297;0.972656;-0.84;-0.98;0.7;304.0;-0.157066;-0.012364
1.2;10.25;7.5;7.0;4.5;1.0;0.25;0.25;0.0;1.75;0.25;1.0;0.5;0.0;0.5;0.5;0.25;-0.225098;0.027344;0.990723;-0.63;0.42;0.63;407.0;-0.251659;0.000956;5.5;5.0;3.75;3.0;0.5;0.75;0.25;0.25;2.0;1.25;0.75;0.5;0.25;0.75;0.5;0.5;-0.25293;0.02832;0.970215;-0.77;-0.98;0.7;293.0;-0.170285;-0.011936
1.21;10.25;7.5;6.75;4.25;0.75;0.25;0.25;0.0;2.0;0.25;1.0;0.5;0.0;0.5;0.5;0.25;-0.226562;0.021484;0.984375;-0.63;0.42;0.63;401.0;-0.247704;0.003956;5.75;5.0;3.75;3.25;0.5;0.75;0.25;0.25;2.0;1.0;1.0;0.75;0.25;0.75;0.5;0.5;-0.251465;0.03125;0.976074;-0.7;-0.91;0.7;301.0;-0.170128;-0.017335
1.22;10.25;7.75;7.0;4.5;1.25;0.25;0.25;0.25;2.0;0.25;1.0;0.5;0.0;0.75;0.25;0.25;-0.225586;0.021484;0.987793;-0.77;0.7;0.56;420.0;-0.245871;0.000364;6.0;4.75;3.5;3.25;0.5;1.0;0.25;0.25;2.25;1.0;1.0;0.5;0.5;0.5;0.5;0.5;-0.253418;0.031738;0.97168;-0.7;-1.05;0.63;302.0;-0.169512;-0.017356
1.23;10.25;7.75;7.0;4.75;1.0;0.25;0.25;0.25;2.0;0.25;0.75;0.5;0.0;0.5;0.25;0.25;-0.227539;0.018066;0.985352;-0.7;0.63;0.56;414.0;-0.253989;-0.001899;5.75;5.25;3.75;3.0;0.75;0.5;0.25;0.25;2.25;1.0;1.0;0.25;0.5;0.75;0.5;0.25;-0.251953;0.033691;0.968262;-0.84;-1.05;0.7;300.0;-0.172905;-0.006374
1.24;10.25;7.75;7.0;4.25;1.0;0.25;0.25;0.0;2.0;0.25;0.75;0.25;0.25;0.5;0.25;0.25;-0.217285;0.015137;0.982422;-0.7;0.63;0.56;404.0;-0.256818;0.004851;6.0;5.25;3.75;3.25;0.75;0.5;0.25;0.25;2.25;1.0;1.0;0.5;0.5;0.75;0.5;0.25;-0.254883;0.033691;0.973145;-0.84;-0.91;0.7;308.0;-0.172567;-0.010147
1.25;10.25;7.75;6.75;4.25;1.25;0.25;0.25;0.0;2.0;0.25;0.75;0.25;0.0;0.5;0.25;0.25;-0.222656;0.019531;0.983887;-0.7;0.49;0.56;401.0;-0.25827;0.007368;6.0;4.75;3.75;3.25;0.5;0.75;0.25;0.25;2.25;1.0;0.75;0.5;0.5;0.75;0.5;0.25;-0.25;0.028809;0.971191;-0.91;-0.98;0.7;300.0;-0.172536;-0.009839
1.26;10.5;7.75;7.0;4.25;1.25;0.25;0.25;0.0;1.75;0.25;0.75;0.5;0.0;0.25;0.5;0.25;-0.224609;0.020508;0.985352;-0.63;0.56;0.63;407.0;-0.259681;0.002593;5.5;4.75;3.75;3.0;0.75;0.75;0.25;0.25;2.25;1.0;0.75;0.5;0.5;0.75;0.5;0.25;-0.257812;0.02832;0.97168;-0.84;-0.98;0.63;295.0;-0.166457;-0.009206
1.27;10.75;7.75;7.5;4.25;1.0;0.5;0.25;0.0;1.75;0.25;0.75;0.25;0.0;0.25;0.25;0.25;-0.22168;0.016602;0.984863;-0.56;0.56;0.63;410.0;-0.268917;0.004877;5.25;4.75;3.75;3.0;1.0;0.75;0.25;0.25;2.25;1.0;1.0;0.75;0.5;0.75;0.5;0.25;-0.252441;0.030762;0.972656;-0.84;-1.05;0.7;301.0;-0.156491;-0.013374
1.28;10.75;7.75;7.5;4.5;1.0;0.5;0.25;0.0;1.75;0.5;0.75;0.25;0.0;0.5;0.0;0.0;-0.223145;0.025879;0.985352;-0.77;0.7;0.56;414.0;-0.268671;0.006329;4.75;5.0;3.75;3.0;0.75;1.0;0.25;0.25;2.25;1.0;1.0;0.25;0.25;0.75;0.5;0.25;-0.252441;0.02832;0.975586;-0.84;-1.05;0.77;289.0;-0.164136;-0.011265
1.29;10.75;7.5;7.0;4.5;1.0;0.5;0.25;0.0;2.25;0.5;0.75;0.25;0.0;0.25;0.25;0.25;-0.226074;0.022461;0.976562;-0.7;0.63;0.56;415.0;-0.255651;0.008066;5.5;4.75;3.75;3.0;0.75;1.0;0.25;0.25;2.25;1.0;0.5;0.25;0.25;1.0;0.5;0.5;-0.255859;0.029785;0.967285;-0.84;-0.98;0.7;293.0;-0.169276;-0.004453
1.3;10.0;7.5;6.75;4.25;1.0;0.5;0.25;0.0;2.0;0.5;0.75;0.5;0.0;0.25;0.0;0.25;-0.222656;0.022461;0.984863;-0.7;0.77;0.49;397.0;-0.258208;0.003086;5.75;5.0;3.75;3.0;0.5;1.0;0.25;0.25;2.25;1.25;1.25;0.25;0.5;0.25;0.5;0.5;-0.253418;0.033691;0.972656;-0.77;-1.05;0.7;303.0;-0.169663;-0.015658
1.31;10.25;7.75;7.0;4.25;1.0;0.5;0.25;0.0;2.25;0.5;0.75;0.25;0.0;0.5;0.25;0.25;-0.226074;0.016113;0.987305;-0.7;0.7;0.49;411.0;-0.250596;0.008268;5.75;5.0;3.75;3.25;0.75;1.0;0.25;0.25;2.0;1.25;1.5;0.25;0.25;0.25;0.5;0.5;-0.250977;0.028809;0.973633;-0.63;-0.84;0.7;306.0;-0.17428;-0.01785
1.32;10.25;7.75;7.25;4.5;1.0;0.5;0.25;0.0;1.75;0.25;1.0;0.25;0.0;0.5;0.25;0.25;-0.224609;0.020508;0.981445;-0.56;0.63;0.56;410.0;-0.259908;0.001267;5.75;5.25;3.75;3.25;0.75;1.0;0.25;0.25;2.0;0.5;1.25;0.5;0.5;0.5;0.5;0.5;-0.253906;0.027344;0.974121;-0.77;-0.91;0.63;304.0;-0.180906;-0.025023
1.33;10.25;7.5;7.25;4.75;1.0;0.5;0.25;0.0;1.75;0.25;0.5;0.5;0.0;0.25;0.0;0.25;-0.227539;0.023438;0.987305;-0.63;0.49;0.56;402.0;-0.271319;-0.000257;6.0;4.75;3.75;3.0;0.5;1.0;0.25;0.25;2.0;0.5;1.25;0.25;0.5;0.5;0.5;0.5;-0.252441;0.027832;0.975098;-0.7;-0.91;0.7;293.0;-0.182308;-0.017483
1.34;10.25;7.5;7.0;4.25;1.0;0.5;0.25;0.0;1.75;0.25;1.0;0.5;0.0;0.25;0.0;0.25;-0.223145;0.024414;0.984863;-0.63;0.42;0.63;399.0;-0.263989;0.000777;6.0;4.75;3.75;3.25;0.5;1.0;0.25;0.25;2.0;0.75;1.25;0.25;0.25;0.75;0.25;0.5;-0.251953;0.027344;0.973145;-0.77;-0.91;0.7;296.0;-0.18316;-0.013114
1.35;10.0;7.75;6.75;4.25;1.0;0.25;0.25;0.0;2.0;0.25;0.75;0.25;0.0;0.25;0.25;0.25;-0.225586;0.023926;0.983398;-0.63;0.63;0.56;393.0;-0.262201;0.00522;6.0;5.0;3.75;3.0;0.75;1.0;0.25;0.25;2.0;1.0;1.25;0.5;0.25;0.75;0.25;0.5;-0.25293;0.031738;0.975098;-0.77;-0.91;0.7;304.0;-0.175828;-0.013518
1.36;10.0;7.75;7.25;4.25;1.25;0.25;0.25;0.0;1.75;0.5;0.75;0.25;0.0;0.25;0.25;0.25;-0.223633;0.020996;0.990234;-0.63;0.7;0.63;402.0;-0.262289;0.004935;5.75;4.75;3.75;3.0;0.75;1.0;0.25;0.25;2.0;1.0;1.0;0.5;0.25;0.75;0.25;0.5;-0.255371;0.030273;0.975098;-0.84;-1.05;0.77;296.0;-0.175485;-0.0124
1.37;10.75;7.75;7.0;4.25;1.0;0.25;0.25;0.0;1.75;0.25;0.5;0.25;0.0;0.25;0.25;0.25;-0.222656;0.023438;0.989258;-0.56;0.63;0.56;398.0;-0.273395;0.006526;5.5;4.75;3.75;3.0;0.75;1.0;0.25;0.25;2.25;1.0;0.75;0.25;0.25;0.75;0.5;0.5;-0.259277;0.03125;0.972168;-0.77;-0.84;0.7;294.0;-0.170026;-0.006975
1.38;10.25;7.75;6.75;4.5;1.0;0.25;0.25;0.0;1.75;0.5;0.5;0.25;0.0;0.25;0.0;0.5;-0.225098;0.016113;0.98584;-0.63;0.49;0.63;394.0;-0.270562;0.00251;6.0;4.75;3.75;3.25;0.75;1.0;0.25;0.25;2.0;1.0;0.75;0.5;0.25;1.0;0.5;0.5;-0.25293;0.02832;0.973633;-0.84;-0.91;0.63;304.0;-0.172501;-0.0116
1.39;10.25;7.75;6.75;4.5;1.0;0.25;0.25;0.0;2.0;0.5;1.0;0.25;0.0;0.5;0.25;0.5;-0.220703;0.022461;0.985352;-0.7;0.63;0.49;409.0;-0.250359;0.003634;6.0;4.75;3.5;3.25;0.75;1.0;0.25;0.5;2.0;1.25;1.0;0.5;0.25;1.0;0.5;0.5;-0.257812;0.03125;0.976074;-0.7;-0.98;0.63;311.0;-0.16201;-0.017945
1.4;10.25;7.75;6.75;4.25;1.0;0.25;0.25;0.0;2.0;0.5;0.5;0.5;0.0;0.25;0.0;0.25;-0.225586;0.021973;0.984375;-0.63;0.49;0.56;396.0;-0.264545;0.005697;6.0;4.75;3.75;3.0;0.75;1.0;0.25;0.25;2.25;0.75;1.0;0.5;0.25;0.75;0.5;0.5;-0.253418;0.032715;0.969238;-0.7;-0.98;0.7;303.0;-0.170894;-0.009255
1.41;10.5;7.5;6.75;4.25;1.0;0.5;0.25;0.0;2.25;0.5;0.5;0.5;0.0;0.25;0.25;0.25;-0.220703;0.019043;0.988281;-0.56;0.35;0.56;406.0;-0.254405;0.007189;5.75;4.75;3.75;3.0;0.5;1.0;0.25;0.25;2.25;1.25;1.0;0.5;0.25;0.75;0.5;0.5;-0.254883;0.033203;0.973633;-0.63;-0.91;0.77;302.0;-0.161442;-0.009686
1.42;10.25;7.75;7.0;4.25;1.0;0.25;0.25;0.0;2.0;0.5;0.5;0.25;0.0;0.5;0.25;0.25;-0.223633;0.018066;0.98584;-0.7;0.7;0.49;401.0;-0.259237;0.008865;5.75;4.75;3.75;3.0;0.75;1.0;0.25;0.25;2.25;1.25;1.0;0.5;0.25;0.75;0.5;0.5;-0.254883;0.032715;0.969727;-0.77;-0.98;0.7;305.0;-0.161086;-0.008988
1.43;10.25;7.5;7.0;4.25;0.75;0.25;0.25;0.0;1.75;0.5;0.5;0.25;0.0;0.75;0.25;0.0;-0.217773;0.022949;0.986328;-0.56;0.49;0.63;393.0;-0.26231;0.009384;6.0;5.0;3.75;3.25;0.75;1.0;0.25;0.25;2.25;1.0;1.0;0.5;0.25;0.75;0.5;0.5;-0.254883;0.030762;0.967773;-0.77;-0.91;0.7;311.0;-0.17025;-0.011937
1.44;10.0;7.75;7.0;4.25;0.75;0.25;0.25;0.0;1.75;0.5;0.5;0.25;0.0;0.25;0.0;0.0;-0.223633;0.017578;0.984863;-0.56;0.63;0.49;385.0;-0.275398;0.006158;5.75;5.0;3.5;3.0;0.75;0.5;0.25;0.25;2.0;0.75;1.25;0.5;0.25;1.0;0.5;0.5;-0.255859;0.032227;0.966309;-0.77;-0.98;0.7;295.0;-0.166902;-0.010431
1.45;10.25;7.75;7.0;4.25;1.0;0.5;0.25;0.0;1.75;0.5;0.75;0.5;0.0;0.25;0.25;0.25;-0.221191;0.026367;0.985352;-0.63;0.49;0.56;404.0;-0.260098;0.000418;5.75;4.75;3.75;3.0;0.75;0.75;0.25;0.25;2.25;1.0;0.75;0.5;0.25;0.5;0.5;0.5;-0.256836;0.032227;0.970703;-0.91;-0.84;0.63;294.0;-0.173334;-0.007459
1.46;10.25;7.75;7.25;4.5;1.0;0.5;0.25;0.0;2.0;0.5;1.0;0.5;0.0;0.5;0.25;0.25;-0.219727;0.015625;0.985352;-0.7;0.49;0.56;419.0;-0.248882;0.001979;5.5;4.75;3.5;3.0;0.75;1.0;0.25;0.25;2.25;1.0;0.75;0.5;0.5;0.5;0.5;0.5;-0.254883;0.02832;0.972168;-0.7;-0.91;0.63;294.0;-0.167204;-0.015907
1.47;10.25;7.5;7.0;4.25;1.0;0.5;0.25;0.0;2.0;0.25;0.75;0.25;0.0;0.25;0.25;0.5;-0.223145;0.019043;0.97998;-0.56;0.56;0.56;401.0;-0.259135;0.004426;5.75;4.75;3.75;3.0;0.75;1.0;0.25;0.25;2.5;1.25;1.0;0.5;0.5;0.75;0.5;0.5;-0.251953;0.033691;0.968262;-0.7;-0.91;0.63;311.0;-0.153792;-0.009156
1.48;10.25;7.5;7.0;4.25;1.0;0.5;0.25;0.0;2.0;0.25;0.75;0.25;0.0;0.0;0.5;0.25;-0.225098;0.020508;0.981445;-0.63;0.42;0.49;400.0;-0.260549;0.003978;5.75;4.75;3.75;3.0;0.75;1.0;0.25;0.25;2.5;1.0;1.0;0.25;0.5;0.25;0.5;0.5;-0.248047;0.030762;0.971191;-0.7;-0.98;0.7;301.0;-0.169722;-0.009984
1.49;10.5;7.5;7.0;4.25;1.0;0.5;0.25;0.0;2.0;0.25;1.0;0.5;0.0;0.25;0.25;0.25;-0.222168;0.023438;0.986328;-0.56;0.49;0.56;408.0;-0.255678;0.003341;5.75;5.0;3.5;3.25;0.75;1.0;0.25;0.25;2.0;1.0;0.75;0.5;0.5;0.25;0.75;0.5;-0.253418;0.028809;0.974609;-0.7;-0.84;0.56;299.0;-0.176797;-0.023693
1.5;10.25;7.75;6.75;4.25;1.0;0.5;0.25;0.0;2.0;0.5;1.0;0.5;0.0;0.75;0.25;0.25;-0.217773;0.015625;0.98584;-0.56;0.63;0.49;412.0;-0.24463;0.003327;6.0;4.75;3.5;3.5;0.75;1.0;0.25;0.25;1.75;1.0;0.75;0.5;0.5;0.5;0.75;0.5;-0.248535;0.027832;0.976074;-0.7;-0.91;0.63;301.0;-0.17862;-0.025244
1.51;10.0;7.75;6.75;4.25;0.75;0.5;0.25;0.0;2.0;0.5;0.75;0.5;0.0;0.25;0.25;0.25;-0.22168;0.026367;0.98291;-0.63;0.56;0.63;399.0;-0.255425;0.000966;5.75;5.0;3.75;3.25;0.75;1.0;0.25;0.25;2.0;1.0;1.0;0.25;0.5;0.75;0.5;0.5;-0.25293;0.036133;0.974609;-0.77;-0.91;0.7;304.0;-0.174062;-0.01722
1.52;10.25;7.75;6.75;4.25;1.0;0.25;0.25;0.0;2.0;0.5;0.75;0.5;0.0;0.25;0.0;0.25;-0.226074;0.024902;0.985352;-0.63;0.63;0.42;399.0;-0.261028;0.004825;6.0;4.75;3.75;3.25;0.75;1.0;0.25;0.25;2.25;1.25;1.0;0.25;0.25;0.5;0.5;0.5;-0.255371;0.030273;0.971191;-0.7;-0.91;0.63;306.0;-0.172397;-0.008728
1.53;10.5;7.5;7.0;4.25;1.0;0.25;0.25;0.0;1.75;0.5;0.75;0.5;0.0;0.25;0.25;0.25;-0.225586;0.015625;0.981934;-0.7;0.56;0.56;402.0;-0.260924;0.004252;6.0;4.75;3.75;3.25;0.75;1.0;0.25;0.5;2.75;1.5;1.0;0.5;0.25;0.5;0.5;0.5;-0.253906;0.033691;0.972656;-0.77;-1.05;0.56;323.0;-0.153811;-0.00932
1.54;10.25;7.5;6.75;4.25;1.0;0.25;0.25;0.0;2.0;0.5;0.75;0.25;0.0;0.25;0.25;0.25;-0.222168;0.02002;0.984863;-0.7;0.56;0.56;396.0;-0.258622;0.00747;5.5;4.75;3.75;3.0;0.75;0.75;0.25;0.25;2.25;1.25;0.75;0.5;0.25;0.75;0.5;0.5;-0.248047;0.029297;0.976562;-0.63;-0.84;0.63;297.0;-0.162596;-0.006436
1.55;10.25;7.75;7.25;4.75;1.0;0.5;0.25;0.0;2.0;0.5;0.75;0.5;0.0;0.5;0.25;0.25;-0.220215;0.024414;0.98877;-0.63;0.56;0.63;419.0;-0.252398;0.00116;5.75;4.75;3.75;3.25;0.75;1.0;0.25;0.25;2.25;1.0;1.0;0.5;0.25;0.75;0.5;0.5;-0.258301;0.031738;0.967773;-0.7;-1.05;0.63;306.0;-0.166061;-0.011784
1.56;10.25;7.5;7.5;4.25;1.0;0.5;0.25;0.0;2.0;0.5;1.25;0.25;0.0;0.25;0.25;0.25;-0.227539;0.023438;0.985352;-0.63;0.56;0.63;414.0;-0.251318;0.00556;6.0;5.25;3.75;3.25;1.0;1.0;0.25;0.25;2.25;1.0;1.25;0.5;0.25;1.0;0.25;0.5;-0.251953;0.028809;0.973145;-0.63;-0.91;0.7;319.0;-0.169172;-0.011386
1.57;10.25;7.5;7.0;4.25;1.0;0.5;0.25;0.0;1.75;0.75;1.0;0.25;0.0;0.25;0.25;0.25;-0.219238;0.02832;0.984375;-0.7;0.49;0.49;405.0;-0.255512;0.00319;6.0;5.25;3.5;3.25;0.75;1.0;0.25;0.25;2.25;1.25;1.0;0.5;0.5;0.75;0.25;0.5;-0.253418;0.029297;0.97168;-0.7;-0.98;0.63;313.0;-0.170314;-0.016219
1.58;10.25;7.5;7.5;4.25;1.0;0.5;0.25;0.0;2.0;0.5;1.0;0.5;0.0;0.5;0.25;0.25;-0.225098;0.02002;0.981445;-0.7;0.42;0.56;417.0;-0.24771;0.005267;6.0;5.0;3.75;3.25;1.0;1.0;0.25;0.25;2.25;1.5;0.75;0.5;0.25;0.75;0.25;0.5;-0.248535;0.027832;0.97168;-0.7;-0.98;0.63;314.0;-0.17127;-0.008274
1.59;10.25;7.75;7.5;4.5;1.0;0.5;0.25;0.0;1.5;0.5;1.0;0.5;0.0;0.25;0.5;0.25;-0.227539;0.02002;0.981445;-0.7;0.56;0.56;415.0;-0.256869;-0.003632;5.75;4.75;3.75;3.0;0.75;1.0;0.25;0.25;2.25;1.0;0.75;0.75;0.25;0.75;0.25;0.25;-0.251953;0.029785;0.970703;-0.7;-0.84;0.63;298.0;-0.173105;-0.009213
1.6;10.0;7.5;7.0;4.75;1.0;0.5;0.25;0.0;1.75;0.25;1.0;0.5;0.0;0.25;0.5;0.25;-0.221191;0.021484;0.979004;-0.7;0.63;0.56;408.0;-0.253927;-0.004457;5.5;4.75;3.75;3.0;1.0;1.0;0.25;0.25;2.25;1.25;1.0;0.5;0.25;1.0;0.5;0.5;-0.257324;0.02832;0.974121;-0.77;-0.91;0.56;308.0;-0.154187;-0.007978
1.61;10.25;7.75;6.75;4.25;1.0;0.5;0.25;0.25;1.75;0.25;1.0;0.5;0.0;0.25;0.25;0.0;-0.225098;0.023926;0.985352;-0.56;0.42;0.49;404.0;-0.25986;-0.004415;5.5;5.25;3.75;3.0;1.0;1.0;0.25;0.25;2.0;1.25;1.25;0.5;0.5;0.75;0.5;0.5;-0.252441;0.037109;0.977539;-0.7;-0.91;0.56;312.0;-0.161417;-0.019552
1.62;10.0;7.5;6.75;4.25;1.0;0.5;0.25;0.0;2.0;0.5;0.75;0.25;0.0;0.5;0.25;0.25;-0.219727;0.021973;0.985352;-0.63;0.56;0.49;399.0;-0.252895;0.005651;5.25;5.25;3.75;3.5;0.75;0.75;0.25;0.25;2.25;1.25;0.75;0.75;0.5;0.75;0.5;0.5;-0.253906;0.03125;0.969238;-0.7;-0.91;0.63;310.0;-0.160975;-0.020447
1.63;9.75;7.5;7.0;4.25;1.0;0.5;0.25;0.0;1.75;0.25;0.75;0.5;0.0;0.5;0.25;0.25;-0.226562;0.020508;0.984375;-0.56;0.56;0.56;396.0;-0.2567;0.000511;5.75;4.75;3.75;3.0;0.75;1.25;0.25;0.5;2.25;1.25;1.0;0.5;0.25;0.75;0.75;0.25;-0.254395;0.02832;0.96582;-0.63;-0.84;0.7;314.0;-0.156297;-0.015795
1.64;10.25;7.5;7.25;4.5;1.0;0.5;0.25;0.0;1.75;0.25;0.75;0.25;0.0;0.25;0.0;0.25;-0.222168;0.021973;0.983887;-0.56;0.42;0.49;399.0;-0.271103;0.002736;5.5;5.0;3.75;3.0;0.75;1.25;0.25;0.25;2.0;1.5;1.0;0.5;0.5;1.0;0.25;0.5;-0.249512;0.031738;0.963867;-0.77;-0.98;0.56;309.0;-0.160453;-0.01786
1.65;10.5;7.25;7.5;4.75;1.0;0.5;0.25;0.0;2.0;0.25;0.75;0.25;0.0;0.5;0.25;0.25;-0.223145;0.016602;0.990723;-0.63;0.42;0.56;414.0;-0.258118;0.006216;5.75;4.75;3.75;3.0;0.5;1.0;0.25;0.25;2.25;1.0;1.0;0.75;0.25;0.75;0.25;0.5;-0.250977;0.03125;0.966309;-0.7;-0.84;0.63;300.0;-0.167138;-0.012443
1.66;10.0;7.25;7.25;4.5;1.0;0.5;0.25;0.25;2.0;0.25;1.0;0.25;0.0;0.5;0.25;0.25;-0.227539;0.018555;0.983398;-0.56;0.49;0.56;410.0;-0.249963;0.000973;5.5;4.75;3.5;3.5;0.75;1.0;0.25;0.25;2.25;1.0;1.25;0.5;0.25;0.75;0.25;0.5;-0.253906;0.026367;0.975586;-0.7;-0.91;0.77;303.0;-0.165775;-0.016357
1.67;10.0;7.5;6.75;4.25;1.0;0.5;0.25;0.0;2.0;0.25;1.0;0.5;0.0;0.25;0.0;0.0;-0.226562;0.02002;0.990723;-0.49;0.42;0.7;395.0;-0.26061;0.002975;5.25;4.75;3.75;3.25;0.5;1.0;0.25;0.25;2.5;1.25;0.75;0.5;0.5;1.0;0.5;0.25;-0.259766;0.031738;0.979004;-0.63;-0.84;0.63;304.0;-0.1525;-0.010263
1.68;10.0;7.5;6.75;4.25;1.0;0.5;0.25;0.0;2.25;0.5;1.0;0.25;0.0;0.5;0.25;0.25;-0.225098;0.018555;0.983398;-0.56;0.56;0.49;405.0;-0.245022;0.007164;5.75;4.75;3.75;3.0;0.5;1.0;0.25;0.25;2.25;1.25;1.0;0.5;0.5;0.75;0.5;0.25;-0.255859;0.028809;0.97168;-0.7;-0.91;0.56;303.0;-0.161421;-0.011709
1.69;10.0;7.25;6.75;4.25;1.0;0.5;0.25;0.0;2.0;0.5;1.0;0.25;0.0;0.25;0.25;0.0;-0.219238;0.01709;0.986816;-0.56;0.49;0.56;395.0;-0.254593;0.006052;5.5;4.5;3.75;3.0;0.5;1.0;0.25;0.25;2.25;1.0;1.25;0.5;0.5;0.75;0.75;0.5;-0.250977;0.03125;0.969727;-0.7;-0.84;0.63;302.0;-0.149192;-0.015394
1.7;10.0;7.5;6.75;4.25;1.0;0.5;0.25;0.0;1.75;0.5;1.0;0.5;0.0;0.5;0.25;0.0;-0.223145;0.021484;0.983887;-0.56;0.56;0.56;400.0;-0.252969;0.001384;5.5;4.5;3.75;3.0;0.5;1.0;0.25;0.25;2.25;1.0;0.75;0.5;0.5;0.5;0.5;0.5;-0.258301;0.029297;0.966797;-0.7;-0.84;0.7;291.0;-0.166508;-0.014303
1.71;9.75;7.5;6.75;4.5;1.0;0.5;0.25;0.0;2.0;0.5;0.75;0.5;0.0;0.25;0.25;0.25;-0.222656;0.02002;0.988281;-0.56;0.42;0.49;400.0;-0.252624;1.5e-05;5.5;4.75;3.75;3.0;0.75;1.0;0.25;0.25;2.0;1.0;1.0;0.5;0.25;0.75;0.5;0.5;-0.254395;0.029785;0.973145;-0.63;-0.84;0.7;296.0;-0.167667;-0.014234
1.72;9.75;7.25;7.0;4.0;1.0;0.5;0.25;0.25;2.0;0.75;0.75;0.5;0.0;0.25;0.0;0.25;-0.220215;0.022949;0.986328;-0.56;0.42;0.56;398.0;-0.24988;0.002087;5.5;4.75;3.75;3.0;0.75;1.0;0.25;0.25;2.25;1.0;1.0;0.5;0.25;0.75;0.5;0.5;-0.249512;0.030762;0.975098;-0.77;-0.84;0.63;300.0;-0.162608;-0.010791
1.73;10.0;7.5;7.0;4.25;1.0;0.25;0.25;0.25;2.0;0.75;0.75;0.5;0.0;0.75;0.25;0.25;-0.222656;0.021973;0.983398;-0.63;0.7;0.56;411.0;-0.240875;0.003522;5.5;5.0;3.5;3.0;0.75;1.0;0.25;0.25;2.25;1.25;1.0;0.75;0.5;1.0;0.5;0.5;-0.251465;0.029297;0.974609;-0.63;-0.91;0.63;310.0;-0.149669;-0.017023
1.74;9.75;7.5;6.75;4.0;1.0;0.25;0.25;0.25;2.25;0.75;1.0;0.75;0.0;0.25;0.5;0.25;-0.221191;0.020996;0.981934;-0.63;0.56;0.56;410.0;-0.231334;0.000679;5.25;4.75;3.5;3.0;0.75;1.0;0.25;0.25;2.25;1.25;1.0;0.5;0.5;1.0;0.5;0.5;-0.250977;0.029785;0.96875;-0.63;-0.77;0.63;301.0;-0.148482;-0.014292
1.75;9.75;7.5;6.75;4.25;1.0;0.5;0.25;0.0;2.25;0.5;1.25;0.75;0.0;0.25;0.25;0.25;-0.222656;0.017578;0.980957;-0.56;0.56;0.56;409.0;-0.237963;0.000357;4.75;4.5;3.5;2.75;1.0;1.0;0.25;0.5;2.25;1.25;1.0;0.5;0.5;0.75;0.5;0.5;-0.254395;0.032227;0.967285;-0.84;-0.84;0.63;295.0;-0.142151;-0.019285
1.76;10.0;7.5;6.75;4.0;1.0;0.5;0.25;0.0;2.25;0.5;1.0;1.0;0.0;0.5;0.25;0.5;-0.226074;0.023438;0.97998;-0.49;0.42;0.49;412.0;-0.233019;0.001345;5.25;4.5;3.5;2.75;0.5;1.0;0.25;0.25;2.5;1.0;1.25;0.75;0.25;0.75;0.5;0.5;-0.246094;0.030273;0.969238;-0.7;-0.84;0.63;295.0;-0.143684;-0.010551
1.77;10.0;7.25;6.75;4.0;1.0;0.5;0.25;0.25;2.25;0.5;0.5;0.5;0.0;0.75;0.25;0.5;-0.224121;0.018066;0.984375;-0.63;0.49;0.56;405.0;-0.238682;0.005244;5.5;4.25;3.5;3.0;0.5;0.75;0.25;0.25;2.5;1.25;1.25;0.75;0.5;0.75;0.5;0.5;-0.256348;0.032715;0.975586;-0.77;-0.98;0.7;300.0;-0.139098;-0.010493
1.78;10.0;7.0;6.75;4.0;1.0;0.5;0.25;0.0;2.0;0.5;0.75;0.25;0.0;0.5;0.25;0.5;-0.227539;0.017578;0.984375;-0.56;0.49;0.63;392.0;-0.24821;0.008414;4.75;4.5;3.5;3.0;0.5;1.0;0.25;0.25;2.25;1.0;1.25;0.75;0.5;0.75;0.5;0.5;-0.256348;0.030762;0.967285;-0.77;-0.91;0.63;291.0;-0.142501;-0.022239
1.79;9.75;7.0;6.75;3.5;1.0;0.5;0.25;0.0;2.25;0.5;0.75;0.5;0.0;0.5;0.0;0.25;-0.219727;0.023926;0.988281;-0.63;0.56;0.49;386.0;-0.245575;0.013407;4.75;4.5;3.75;3.0;0.75;1.0;0.25;0.25;2.5;1.0;1.25;0.75;0.5;1.0;0.5;0.5;-0.254883;0.032715;0.973145;-0.84;-0.98;0.56;303.0;-0.134601;-0.015252
1.8;10.0;7.5;6.75;4.0;1.0;0.5;0.25;0.25;2.0;0.5;0.5;0.5;0.0;0.5;0.25;0.25;-0.224121;0.022949;0.985352;-0.63;0.7;0.56;400.0;-0.250227;0.001938;5.0;4.5;3.5;3.0;0.75;1.0;0.25;0.25;2.0;1.0;1.5;0.75;0.5;1.0;0.5;0.5;-0.253906;0.030762;0.968262;-0.84;-1.05;0.63;298.0;-0.141729;-0.023053
1.81;9.75;7.25;6.75;4.25;1.0;0.5;0.25;0.0;2.0;0.5;0.5;0.5;0.0;0.5;0.25;0.5;-0.225098;0.016602;0.980469;-0.63;0.56;0.49;395.0;-0.248569;0.003489;5.25;4.25;3.5;3.0;0.5;1.0;0.25;0.25;2.25;1.25;1.25;0.75;0.5;1.0;0.5;0.5;-0.256348;0.025391;0.97168;-0.7;-0.91;0.56;299.0;-0.137176;-0.016176
1.82;9.75;7.0;6.75;4.25;1.0;0.5;0.25;0.0;2.0;0.5;0.75;0.5;0.0;0.5;0.5;0.25;-0.221191;0.021973;0.98291;-0.56;0.56;0.49;397.0;-0.241614;0.004272;5.25;4.25;3.5;3.0;0.75;1.0;0.25;0.25;2.5;1.25;1.25;0.75;0.5;1.25;0.25;0.5;-0.248047;0.03125;0.971191;-0.77;-0.91;0.56;305.0;-0.133382;-0.009915
1.83;9.75;7.5;6.75;4.25;1.0;0.5;0.25;0.0;2.0;0.25;1.25;0.5;0.25;0.75;0.25;0.25;-0.225098;0.022461;0.983398;-0.63;0.56;0.56;406.0;-0.239037;-0.001048;5.25;4.5;3.5;3.0;0.75;1.0;0.25;0.25;2.5;1.0;1.0;0.75;0.5;1.0;0.5;0.5;-0.256836;0.028809;0.970703;-0.7;-0.98;0.63;303.0;-0.141715;-0.013032
1.84;10.0;7.0;7.0;4.0;1.0;0.5;0.25;0.25;2.0;0.25;1.0;0.5;0.0;0.5;0.25;0.25;-0.225586;0.020508;0.982422;-0.63;0.63;0.56;401.0;-0.244935;0.002595;4.75;4.5;3.5;3.0;0.75;1.0;0.25;0.25;2.5;1.25;1.0;0.5;0.5;1.0;0.5;0.5;-0.25;0.031738;0.971191;-0.63;-0.91;0.63;297.0;-0.136471;-0.011874
1.85;9.75;7.0;6.75;4.0;1.0;0.5;0.25;0.25;2.0;0.5;1.0;0.5;0.0;0.25;0.25;0.25;-0.226074;0.020996;0.985352;-0.63;0.49;0.49;396.0;-0.244015;0.00058;5.0;4.5;3.5;3.0;1.0;1.0;0.25;0.25;2.5;1.5;1.0;0.25;0.5;1.25;0.5;0.5;-0.255371;0.032227;0.967773;-0.77;-0.84;0.63;305.0;-0.134402;-0.005199
1.86;9.75;7.25;6.75;3.75;1.0;0.5;0.25;0.0;2.25;0.5;1.25;0.5;0.25;0.5;0.25;0.25;-0.221191;0.022461;0.981934;-0.49;0.42;0.56;402.0;-0.233165;0.005202;5.25;4.5;3.5;3.0;0.75;1.0;0.25;0.25;2.75;1.25;1.0;0.25;0.5;0.75;0.25;0.5;-0.257812;0.03418;0.971191;-0.77;-0.84;0.63;298.0;-0.149671;-0.0042
1.87;9.5;7.25;6.75;3.75;1.0;0.5;0.25;0.0;2.25;0.5;1.25;0.5;0.0;0.75;0.25;0.25;-0.222656;0.021973;0.989258;-0.7;0.63;0.56;399.0;-0.230579;0.008224;4.75;4.5;3.5;3.0;0.5;1.0;0.25;0.25;2.5;1.25;1.0;0.5;0.5;0.75;0.25;0.5;-0.252441;0.03125;0.962891;-0.7;-0.91;0.63;289.0;-0.146408;-0.013462
1.88;10.0;7.0;6.75;4.25;1.0;0.5;0.25;0.0;2.0;0.25;1.0;0.25;0.0;0.75;0.25;0.25;-0.222656;0.020996;0.981934;-0.56;0.56;0.56;396.0;-0.246994;0.007549;4.75;4.5;3.75;3.0;0.5;1.0;0.25;0.25;2.5;1.25;1.25;0.5;0.5;1.0;0.25;0.5;-0.256836;0.027832;0.970703;-0.84;-0.77;0.7;297.0;-0.139672;-0.011898
1.89;10.25;7.25;6.75;4.25;1.0;0.5;0.25;0.0;2.0;0.5;1.0;0.25;0.0;0.75;0.25;0.25;-0.225098;0.021484;0.983398;-0.63;0.63;0.49;404.0;-0.24572;0.007572;5.0;4.25;3.75;3.0;0.5;1.0;0.25;0.25;2.5;1.25;1.25;0.5;0.5;1.0;0.5;0.5;-0.25293;0.026367;0.974609;-0.77;-0.91;0.7;300.0;-0.134602;-0.010135
1.9;9.75;7.0;6.75;4.25;1.0;0.5;0.25;0.25;2.25;0.5;1.0;0.5;0.0;1.0;0.25;0.25;-0.224121;0.022461;0.98584;-0.7;0.56;0.49;409.0;-0.228783;0.004336;5.0;4.5;3.5;3.0;0.5;1.0;0.25;0.25;2.5;1.0;1.25;0.75;0.5;1.0;0.5;0.25;-0.250977;0.032715;0.967285;-0.77;-0.84;0.56;298.0;-0.138365;-0.014431
1.91;9.5;7.0;7.0;4.0;1.0;0.5;0.25;0.0;2.25;0.5;1.0;0.5;0.0;1.0;0.25;0.25;-0.228516;0.021484;0.983398;-0.63;0.56;0.49;402.0;-0.229636;0.010054;4.75;4.25;3.75;2.75;0.75;1.0;0.25;0.5;2.75;1.0;1.25;0.75;0.5;1.0;0.5;0.25;-0.254883;0.033203;0.967285;-0.77;-0.84;0.56;304.0;-0.126879;-0.012225
1.92;9.75;7.0;7.0;4.0;1.0;0.5;0.25;0.0;2.25;0.5;1.25;0.5;0.0;1.0;0.0;0.25;-0.22168;0.017578;0.983398;-0.63;0.56;0.63;405.0;-0.232142;0.010508;4.75;4.25;3.75;3.0;0.75;1.0;0.25;0.25;2.5;1.25;1.25;0.75;0.5;1.0;0.5;0.25;-0.256348;0.033203;0.972656;-0.7;-0.77;0.63;302.0;-0.131141;-0.01178
1.93;9.75;7.0;7.0;4.0;1.0;0.5;0.25;0.0;2.25;0.75;1.25;0.5;0.0;1.0;0.25;0.25;-0.224609;0.021973;0.986816;-0.56;0.49;0.56;411.0;-0.224407;0.010231;4.75;4.25;3.5;3.0;0.75;1.0;0.25;0.25;2.25;1.25;1.25;0.75;0.5;1.25;0.25;0.25;-0.254395;0.028809;0.972656;-0.77;-0.84;0.7;294.0;-0.135413;-0.014122
1.94;9.25;7.0;6.75;4.0;1.0;0.5;0.25;0.0;2.25;0.75;1.0;0.5;0.0;1.0;0.25;0.25;-0.224121;0.021484;0.98291;-0.56;0.42;0.63;399.0;-0.224784;0.009132;4.75;4.25;3.5;3.0;0.75;1.0;0.25;0.25;2.75;1.5;1.25;0.75;0.5;1.0;0.25;0.25;-0.255371;0.028809;0.969727;-0.84;-0.98;0.7;302.0;-0.126813;-0.008033
1.95;9.5;7.0;6.75;4.0;1.0;0.5;0.25;0.0;2.25;1.0;1.5;0.5;0.0;1.0;0.25;0.5;-0.224609;0.016602;0.98291;-0.56;0.49;0.56;412.0;-0.214438;0.007298;4.75;4.5;3.5;3.0;0.75;0.75;0.25;0.5;2.75;1.5;1.5;0.75;0.5;1.5;0.5;0.25;-0.253906;0.02832;0.974121;-0.84;-0.91;0.7;316.0;-0.111418;-0.010775
1.96;9.75;7.0;6.75;4.25;1.0;0.5;0.25;0.25;2.0;0.5;1.25;0.5;0.0;0.75;0.25;0.25;-0.227051;0.016113;0.980957;-0.49;0.42;0.49;406.0;-0.23352;0.00012;5.0;4.5;3.5;3.0;0.75;0.75;0.25;0.5;2.5;1.5;1.25;0.5;0.5;1.25;0.5;0.25;-0.257324;0.035645;0.97168;-0.77;-0.7;0.56;307.0;-0.12848;-0.010763
1.97;9.75;7.0;6.25;4.0;1.0;0.5;0.25;0.25;2.5;0.75;1.0;0.5;0.0;0.75;0.0;0.25;-0.220703;0.017578;0.985352;-0.63;0.49;0.56;401.0;-0.228394;0.007201;5.0;4.5;3.5;3.0;0.75;0.75;0.25;0.25;2.5;1.25;1.25;0.75;0.5;0.75;0.5;0.25;-0.258301;0.03125;0.975098;-0.77;-0.84;0.63;299.0;-0.138773;-0.011843
1.98;9.5;7.0;6.25;4.0;1.0;0.5;0.25;0.0;2.5;1.0;1.25;0.5;0.0;0.5;0.25;0.0;-0.223145;0.020996;0.989258;-0.56;0.49;0.56;399.0;-0.224159;0.009722;4.75;4.5;3.5;2.75;0.75;0.75;0.25;0.25;2.5;1.25;1.25;0.75;0.25;1.0;0.5;0.5;-0.255859;0.030273;0.96582;-0.84;-0.91;0.63;294.0;-0.130318;-0.007258
1.99;9.5;7.0;6.75;4.0;1.0;0.5;0.25;0.0;2.5;0.75;1.0;0.75;0.0;0.5;0.25;0.0;-0.225586;0.021973;0.981934;-0.63;0.49;0.56;402.0;-0.228165;0.009248;4.75;4.25;3.5;2.75;0.5;0.75;0.25;0.25;2.75;1.25;1.5;0.75;0.25;1.0;0.75;0.5;-0.250977;0.034668;0.968262;-0.84;-0.91;0.63;298.0;-0.114715;-0.004989
2.0;9.5;7.5;7.25;4.0;1.0;0.5;0.25;0.0;2.5;0.75;1.0;1.0;0.25;0.75;0.25;0.25;-0.227051;0.02002;0.980469;-0.63;0.42;0.42;422.0;-0.22017;0.003399;5.0;4.25;3.5;2.75;0.75;1.0;0.25;0.25;2.5;1.25;1.25;0.75;0.5;1.0;0.25;0.5;-0.255859;0.032715;0.970703;-0.91;-0.84;0.63;297.0;-0.133523;-0.010343
2.01;10.0;7.0;7.25;4.25;1.0;0.5;0.25;0.0;2.5;0.75;1.25;0.75;0.0;0.5;0.25;0.25;-0.221191;0.019531;0.987305;-0.56;0.35;0.49;421.0;-0.226328;0.008094;5.0;4.25;3.5;2.75;0.75;1.0;0.25;0.5;2.75;1.0;1.0;0.75;0.5;0.75;0.25;0.5;-0.253418;0.031738;0.969727;-0.77;-0.98;0.56;297.0;-0.138443;-0.013429
2.02;9.75;7.0;7.0;4.0;1.0;0.5;0.25;0.0;2.5;0.75;1.25;0.75;0.0;0.5;0.25;0.25;-0.222168;0.020508;0.980957;-0.63;0.42;0.49;413.0;-0.22438;0.008496;4.75;4.25;3.5;3.0;1.0;1.0;0.25;0.5;2.75;1.25;1.25;0.5;0.5;0.75;0.25;0.5;-0.254883;0.029297;0.976074;-0.77;-0.84;0.7;303.0;-0.133617;-0.013479
2.03;9.5;7.5;7.0;4.0;1.0;0.5;0.25;0.0;2.5;0.75;1.25;0.5;0.25;0.75;0.25;0.5;-0.22168;0.022461;0.988281;-0.56;0.35;0.56;418.0;-0.220647;0.00496;4.75;4.25;3.5;2.75;0.75;1.0;0.25;0.25;2.75;1.5;1.0;0.5;0.5;0.75;0.25;0.5;-0.253418;0.031738;0.967773;-0.7;-0.84;0.7;293.0;-0.133733;-0.004942
2.04;9.75;7.25;6.75;4.0;1.0;0.5;0.25;0.25;2.25;1.0;1.25;0.75;0.0;0.75;0.25;0.5;-0.219238;0.015137;0.981934;-0.49;0.35;0.56;419.0;-0.218487;0.00079;5.0;4.5;3.75;3.25;0.75;0.75;0.25;0.25;2.5;1.5;1.25;0.5;0.5;0.75;0.5;0.5;-0.256836;0.035645;0.968262;-0.7;-0.98;0.63;306.0;-0.138827;-0.011006
2.05;10.0;7.0;6.75;4.25;1.0;0.5;0.25;0.25;2.25;1.0;1.25;0.75;0.0;0.75;0.5;0.25;-0.219238;0.020508;0.98584;-0.56;0.42;0.56;424.0;-0.216821;0.001446;4.75;4.25;3.5;3.0;1.0;1.0;0.25;0.25;2.75;1.0;1.25;0.5;0.25;1.0;0.25;0.5;-0.253906;0.027344;0.975098;-0.7;-0.84;0.7;296.0;-0.137047;-0.003826
2.06;9.75;7.25;6.75;4.25;1.0;0.5;0.25;0.25;2.5;1.0;1.0;0.75;0.0;0.5;0.5;0.25;-0.224121;0.018066;0.977539;-0.77;0.35;0.56;422.0;-0.219216;0.001863;4.75;4.5;3.5;3.0;0.75;1.0;0.25;0.25;2.75;1.25;1.25;0.75;0.5;1.0;0.5;0.5;-0.248047;0.027344;0.97168;-0.77;-1.05;0.7;306.0;-0.125248;-0.012175
2.07;9.75;7.25;7.0;4.25;1.0;0.5;0.25;0.25;2.5;1.0;1.25;0.5;0.0;0.5;0.5;0.25;-0.222168;0.022461;0.980957;-0.56;0.28;0.63;425.0;-0.219456;0.003717;4.75;4.5;3.75;3.0;0.75;1.0;0.25;0.25;2.75;1.5;1.25;0.75;0.5;1.0;0.25;0.5;-0.251953;0.028809;0.975586;-0.77;-1.05;0.63;309.0;-0.12821;-0.009826
2.08;9.5;7.0;7.5;4.5;1.25;0.5;0.25;0.25;2.75;1.0;1.25;0.5;0.0;0.75;0.25;0.5;-0.227051;0.022461;0.995605;-0.7;0.49;0.63;436.0;-0.212476;0.006668;4.75;4.5;3.5;3.0;0.75;1.0;0.25;0.25;2.75;1.5;1.5;0.75;0.5;1.0;0.5;0.5;-0.251465;0.030762;0.979492;-0.77;-0.98;0.63;312.0;-0.118694;-0.012433
2.09;9.5;7.25;7.25;4.25;1.25;0.5;0.25;0.25;2.75;1.0;1.25;0.75;0.25;0.75;0.25;0.25;-0.226562;0.026855;0.979004;-0.49;0.35;0.63;437.0;-0.209871;0.003247;5.25;4.5;3.5;3.0;0.75;1.0;0.25;0.5;2.75;1.5;1.25;0.75;0.5;1.0;0.5;0.5;-0.251465;0.032227;0.978027;-0.7;-0.98;0.63;319.0;-0.125446;-0.014306
2.1;9.75;7.0;7.0;4.25;1.0;0.75;0.25;0.25;2.75;1.0;1.25;0.5;0.0;0.75;0.25;0.25;-0.216309;0.021973;0.984863;-0.56;0.56;0.49;428.0;-0.214629;0.006571;5.25;4.5;3.5;3.0;0.75;1.0;0.25;0.5;2.75;1.5;1.25;0.75;0.5;1.25;0.5;0.5;-0.257324;0.027832;0.969727;-0.84;-1.05;0.63;321.0;-0.121556;-0.012918
2.11;9.75;7.5;7.0;4.25;1.0;0.75;0.25;0.25;2.75;1.0;1.0;0.75;0.0;0.75;0.5;0.25;-0.225098;0.023926;0.987305;-0.7;0.63;0.63;436.0;-0.212965;0.002799;5.25;4.25;3.5;3.0;0.75;0.75;0.25;0.25;2.75;1.5;1.25;0.75;0.5;1.0;0.5;0.5;-0.25;0.03125;0.972168;-0.7;-0.84;0.56;309.0;-0.124338;-0.005496
2.12;10.0;7.0;7.25;4.25;1.25;0.5;0.25;0.0;2.5;0.5;1.25;0.75;0.0;0.75;0.25;0.25;-0.222656;0.021973;0.982422;-0.63;0.56;0.56;424.0;-0.225244;0.009026;5.0;4.25;3.5;3.0;0.75;1.0;0.25;0.25;3.0;1.5;1.25;0.75;0.5;1.0;0.5;0.5;-0.252441;0.030762;0.97168;-0.7;-0.98;0.63;313.0;-0.11773;-0.005874
2.13;10.0;7.0;7.5;4.25;1.25;0.5;0.25;0.0;2.5;0.5;1.0;0.75;0.25;1.0;0.25;0.5;-0.216797;0.022949;0.986816;-0.49;0.63;0.56;430.0;-0.22091;0.007649;5.25;4.25;3.75;3.0;0.75;1.0;0.25;0.25;2.25;1.5;1.25;0.75;0.5;1.25;0.75;0.5;-0.254395;0.025879;0.979492;-0.77;-1.05;0.7;313.0;-0.125823;-0.012847
2.14;10.0;7.0;7.0;4.25;1.0;0.5;0.25;0.25;2.75;1.0;1.0;0.75;0.25;0.75;0.25;0.5;-0.218262;0.022461;0.981934;-0.56;0.42;0.56;432.0;-0.212321;0.00431;5.0;4.5;3.75;3.0;0.75;1.0;0.25;0.25;2.75;1.5;1.5;0.75;0.5;1.25;0.75;0.5;-0.25293;0.02832;0.975098;-0.77;-1.05;0.7;323.0;-0.114081;-0.009661
2.15;10.0;7.0;6.0;4.25;1.25;0.5;0.25;0.0;2.75;1.0;1.25;0.75;0.25;0.5;0.25;0.25;-0.222656;0.023926;0.985352;-0.49;0.56;0.63;418.0;-0.214639;0.005527;5.25;4.75;3.75;3.25;1.0;1.0;0.25;0.25;2.75;1.25;1.75;0.75;0.5;1.25;0.75;0.5;-0.253418;0.028809;0.969727;-0.63;-0.84;0.56;334.0;-0.12057;-0.012665
2.16;9.75;7.0;6.75;4.0;1.25;0.5;0.25;0.0;2.75;1.0;1.25;0.75;0.25;0.75;0.0;0.25;-0.220215;0.025391;0.986328;-0.63;0.49;0.56;421.0;-0.214735;0.009842;5.25;4.5;3.75;3.25;1.0;1.25;0.25;0.25;2.5;1.5;1.25;0.75;0.5;1.5;0.75;0.5;-0.255371;0.029297;0.970703;-0.77;-1.05;0.7;331.0;-0.121823;-0.01316
2.17;9.5;6.75;7.0;4.25;1.25;0.5;0.25;0.0;2.75;1.0;1.0;0.75;0.25;0.5;0.25;0.25;-0.218262;0.023438;0.983398;-0.63;0.49;0.63;419.0;-0.215364;0.00843;5.25;4.5;3.75;3.0;1.0;1.0;0.25;0.5;2.75;1.75;1.25;0.75;0.5;1.5;0.5;0.5;-0.250488;0.030762;0.971191;-0.77;-0.91;0.7;332.0;-0.116083;-0.009321
2.18;9.75;7.0;6.25;4.25;1.0;0.5;0.25;0.25;2.75;1.0;1.0;0.5;0.25;0.25;0.5;0.25;-0.225586;0.020996;0.978516;-0.56;0.42;0.7;414.0;-0.217537;0.002403;4.75;4.5;3.75;3.25;0.75;1.25;0.25;0.5;2.75;1.75;1.25;0.75;0.5;1.25;0.5;0.5;-0.251953;0.031738;0.966797;-0.63;-0.98;0.63;327.0;-0.116684;-0.017708
2.19;9.75;7.0;7.0;4.25;1.0;0.5;0.25;0.25;3.0;1.0;1.0;0.5;0.25;0.25;0.25;0.25;-0.218262;0.015625;0.98877;-0.63;0.42;0.63;424.0;-0.218801;0.007142;5.0;4.5;3.75;3.0;0.75;1.0;0.25;0.25;2.75;1.5;1.5;0.75;0.5;1.5;0.75;0.5;-0.253418;0.03125;0.97168;-0.7;-0.84;0.7;325.0;-0.110321;-0.008324
2.2;9.5;7.0;7.25;4.25;1.0;0.5;0.25;0.25;3.0;1.0;1.25;0.75;0.25;0.5;0.25;0.25;-0.226562;0.019531;0.979004;-0.56;0.77;0.63;432.0;-0.208738;0.005137;5.5;4.5;3.5;3.0;0.75;1.0;0.25;0.25;3.0;1.75;1.5;0.75;0.5;1.5;0.25;0.75;-0.250488;0.026367;0.977051;-0.7;-0.77;0.77;330.0;-0.1138;-0.003619
2.21;9.75;7.0;6.75;4.0;1.0;0.5;0.25;0.25;3.0;1.0;1.25;0.75;0.25;0.75;0.25;0.25;-0.220703;0.02832;0.987305;-0.63;0.84;0.56;428.0;-0.205295;0.00717;5.25;4.75;3.5;3.0;0.75;1.0;0.25;0.25;2.75;1.5;1.25;0.75;0.5;1.25;0.25;0.5;-0.254883;0.030273;0.97998;-0.7;-0.7;0.63;317.0;-0.130133;-0.008528
2.22;9.5;7.0;6.75;4.25;1.0;0.5;0.25;0.25;2.75;1.0;1.25;0.75;0.0;0.75;0.5;0.25;-0.222168;0.025391;0.982422;-0.49;0.77;0.56;425.0;-0.206384;0.004605;4.75;4.5;3.75;3.0;1.0;1.0;0.25;0.25;3.0;1.5;1.25;0.75;0.25;1.5;0.5;0.5;-0.249023;0.028809;0.978516;-0.49;-0.56;0.63;321.0;-0.113469;-0.000612
2.23;9.5;7.25;6.75;4.0;1.0;0.5;0.25;0.0;2.75;1.0;1.25;1.0;0.0;0.75;0.75;0.5;-0.223633;0.022949;0.98291;-0.56;0.84;0.7;428.0;-0.200071;0.005357;4.75;4.5;3.5;3.0;0.75;0.75;0.25;0.25;2.75;1.25;1.25;0.75;0.5;1.25;0.5;0.5;-0.252441;0.030762;0.975098;-0.56;-0.49;0.56;305.0;-0.120898;-0.008194
2.24;9.75;6.75;6.75;4.0;1.0;0.5;0.25;0.0;2.75;1.0;1.25;1.0;0.0;0.75;0.25;0.5;-0.228516;0.021484;0.983887;-0.49;0.7;0.63;420.0;-0.207135;0.009306;5.0;4.25;3.5;2.75;0.75;0.75;0.25;0.25;2.75;1.5;1.25;0.75;0.5;1.0;0.25;0.5;-0.26123;0.032227;0.968262;-0.49;-0.49;0.63;300.0;-0.125159;-0.003653
2.25;9.5;6.5;6.75;4.0;1.25;0.5;0.25;0.0;2.75;1.0;1.25;0.75;0.25;0.75;0.25;0.5;-0.224609;0.027832;0.987305;-0.56;0.98;0.56;417.0;-0.204698;0.009516;4.75;4.25;3.5;2.75;0.75;1.0;0.25;0.25;2.75;1.5;1.75;0.75;0.5;1.0;0.25;0.5;-0.252441;0.029785;0.969238;-0.56;-0.42;0.63;306.0;-0.116298;-0.009403
2.26;9.0;6.25;6.75;4.0;1.25;0.5;0.25;0.0;2.75;1.0;1.25;0.75;0.25;0.75;0.25;0.5;-0.222656;0.016602;0.98584;-0.56;0.77;0.56;409.0;-0.200645;0.009223;4.25;4.0;3.25;2.5;0.5;1.0;0.25;0.25;2.75;1.5;1.25;0.75;0.5;1.25;0.5;0.5;-0.253906;0.032227;0.969727;-0.56;-0.42;0.56;289.0;-0.101923;-0.007
2.27;9.0;6.0;6.75;4.0;1.0;0.5;0.25;0.0;2.75;0.75;1.5;0.75;0.25;0.75;0.25;0.5;-0.223633;0.023926;0.980957;-0.56;0.98;0.49;404.0;-0.19994;0.008659;4.25;3.75;3.0;2.75;0.5;1.0;0.25;0.25;2.75;1.5;1.25;0.75;0.5;1.25;0.25;0.5;-0.25;0.029785;0.973633;-0.56;-0.49;0.63;283.0;-0.104484;-0.008167
2.28;8.75;6.25;6.25;3.5;1.0;0.5;0.25;0.0;2.75;0.75;1.25;0.75;0.0;0.5;0.25;0.25;-0.218262;0.020996;0.989746;-0.49;0.91;0.49;382.0;-0.2088;0.013194;4.25;4.0;3.25;2.75;0.75;1.0;0.25;0.25;2.75;1.5;1.25;0.75;0.5;1.0;0.25;0.5;-0.258301;0.03125;0.970215;-0.7;-0.56;0.56;289.0;-0.113264;-0.009286
2.29;8.75;6.25;6.25;3.5;1.0;0.25;0.25;0.0;2.75;1.0;1.25;0.75;0.0;0.75;0.25;0.25;-0.224121;0.015625;0.984863;-0.56;0.91;0.49;384.0;-0.202161;0.016778;4.25;3.75;3.0;2.5;0.5;1.0;0.25;0.25;2.75;1.75;1.0;0.75;0.5;1.0;0.25;0.5;-0.251465;0.030273;0.96875;-0.7;-0.49;0.49;278.0;-0.106703;-0.005535
2.3;8.75;6.25;6.25;3.5;1.0;0.25;0.25;0.25;3.0;0.75;1.25;1.0;0.25;0.75;0.25;0.5;-0.224609;0.019531;0.989258;-0.7;0.91;0.49;396.0;-0.191893;0.008112;4.0;3.5;3.0;2.25;0.5;0.75;0.25;0.25;2.75;1.75;1.25;0.75;0.5;1.5;0.25;0.5;-0.25;0.030273;0.970703;-0.84;-0.56;0.49;274.0;-0.086043;0.002018
2.31;8.5;6.25;6.25;3.5;1.0;0.5;0.25;0.25;3.0;0.75;1.75;1.0;0.0;1.0;0.25;0.25;-0.222656;0.020508;0.983398;-0.7;0.7;0.42;400.0;-0.184796;0.008477;3.75;3.5;3.0;2.25;0.5;0.75;0.0;0.25;2.75;1.5;1.25;0.75;0.5;1.25;0.5;0.25;-0.254883;0.03125;0.977539;-0.77;-0.56;0.56;263.0;-0.090295;-0.004252
2.32;8.5;6.25;5.75;3.25;1.0;0.5;0.25;0.0;3.25;1.0;1.5;0.75;0.0;0.75;0.25;0.25;-0.222656;0.021973;0.984863;-0.63;0.77;0.56;385.0;-0.186943;0.018395;3.75;3.5;2.75;2.25;0.5;0.75;0.25;0.25;2.75;1.5;1.25;0.75;0.5;1.25;0.5;0.5;-0.253418;0.026855;0.966797;-0.7;-0.63;0.49;266.0;-0.08313;-0.003225
2.33;8.5;5.0;6.0;3.25;1.0;0.5;0.25;0.0;3.0;1.0;1.5;1.0;0.0;0.75;0.25;0.25;-0.226074;0.022461;0.984375;-0.49;0.7;0.42;375.0;-0.181051;0.020314;3.75;3.0;2.75;2.25;0.5;0.75;0.25;0.25;2.5;1.75;1.25;0.75;0.5;1.25;0.5;0.5;-0.254395;0.02832;0.975586;-0.77;-0.56;0.49;260.0;-0.077797;-0.003151
2.34;8.5;5.25;6.0;3.25;1.0;0.5;0.25;0.0;3.0;1.25;1.25;0.75;0.25;1.5;0.5;0.25;-0.219238;0.016113;0.98291;-0.63;0.63;0.49;387.0;-0.168221;0.021925;3.5;3.0;2.75;2.25;0.5;0.75;0.25;0.25;3.0;1.75;1.75;0.75;0.5;1.25;0.5;0.5;-0.25293;0.033203;0.975098;-0.77;-0.56;0.56;270.0;-0.059105;0.000637
2.35;8.25;5.75;5.75;3.25;1.0;0.5;0.25;0.0;3.0;1.25;1.25;1.0;0.0;1.0;0.25;0.25;-0.224121;0.019043;0.982422;-0.56;0.35;0.56;379.0;-0.179687;0.017698;3.5;3.0;2.75;2.25;0.5;0.75;0.25;0.25;3.0;1.5;1.25;1.0;0.5;1.25;0.75;0.5;-0.253906;0.030273;0.972656;-0.63;-0.77;0.56;267.0;-0.060503;-0.001628
2.36;8.75;5.5;6.0;3.5;1.0;0.5;0.25;0.0;3.0;1.25;1.25;1.0;0.0;0.75;0.5;0.25;-0.224121;0.023926;0.987305;-0.7;0.35;0.42;389.0;-0.182116;0.017217;3.75;3.0;2.75;1.75;0.5;0.75;0.25;0.25;3.0;1.75;1.25;0.75;0.25;1.0;0.5;0.25;-0.252441;0.03125;0.969238;-0.84;-0.77;0.56;255.0;-0.072786;0.014235
2.37;9.0;5.5;6.0;3.5;1.0;0.5;0.25;0.0;3.25;1.25;1.0;0.75;0.0;0.75;0.5;0.25;-0.227539;0.02002;0.985352;-0.77;0.49;0.49;389.0;-0.185585;0.023538;3.75;3.0;2.75;2.0;0.5;0.5;0.25;0.25;3.0;1.75;1.25;1.0;0.5;1.25;0.5;0.25;-0.254395;0.030273;0.970215;-0.77;-0.91;0.63;263.0;-0.064789;0.008533
2.38;8.5;5.75;6.0;3.5;1.0;0.5;0.25;0.0;3.25;1.0;1.0;1.25;0.0;0.75;0.25;0.25;-0.225098;0.023926;0.984375;-0.7;0.49;0.63;386.0;-0.185556;0.016772;3.5;3.0;2.75;2.0;0.5;0.5;0.25;0.25;3.0;1.5;1.25;1.25;0.5;1.25;0.5;0.25;-0.254883;0.026367;0.981445;-0.77;-1.05;0.56;260.0;-0.061416;0.003457
2.39;8.75;6.0;6.0;3.5;1.0;0.5;0.25;0.0;3.25;1.0;1.25;1.25;0.0;1.0;0.25;0.5;-0.227051;0.023926;0.981934;-0.56;0.35;0.56;398.0;-0.180095;0.015026;3.5;3.0;2.75;2.0;0.5;0.75;0.25;0.25;3.0;1.75;1.25;1.0;0.5;1.5;0.75;0.25;-0.254883;0.03418;0.974121;-0.84;-0.98;0.63;268.0;-0.052995;0.004844
2.4;8.75;6.0;6.25;3.5;1.0;0.5;0.25;0.25;3.0;1.0;1.25;1.0;0.0;0.75;0.5;0.5;-0.22168;0.023926;0.981934;-0.63;0.42;0.56;400.0;-0.184936;0.009636;3.5;3.0;2.75;2.0;0.5;0.5;0.25;0.25;3.0;1.5;1.75;1.0;0.5;1.25;0.75;0.5;-0.259277;0.028809;0.978516;-0.84;-1.05;0.56;267.0;-0.050796;0.001453
2.41;8.75;6.0;6.25;3.75;1.25;0.5;0.25;0.0;3.0;0.75;1.25;1.0;0.25;0.75;0.25;0.5;-0.22168;0.025391;0.983887;-0.7;0.14;0.63;398.0;-0.19227;0.009944;3.5;3.0;2.75;2.25;0.5;0.5;0.25;0.25;3.0;1.5;1.5;1.0;0.5;1.25;1.0;0.5;-0.256836;0.030273;0.970703;-0.7;-1.05;0.7;270.0;-0.051488;-0.000704
2.42;8.75;5.75;6.25;4.0;1.25;0.5;0.25;0.0;3.0;1.0;1.25;0.75;0.0;1.25;0.25;0.5;-0.225586;0.017578;0.984863;-0.56;0.49;0.49;401.0;-0.186507;0.016588;4.0;3.0;3.0;2.0;0.5;0.5;0.25;0.25;3.0;1.75;1.5;0.75;0.5;1.25;1.0;0.5;-0.255371;0.03125;0.980469;-0.77;-0.98;0.7;276.0;-0.058212;0.008731
2.43;8.75;6.0;6.75;3.75;1.0;0.5;0.25;0.0;3.0;0.75;1.25;1.0;0.0;1.5;0.25;0.5;-0.222168;0.023438;0.98291;-0.63;0.56;0.56;406.0;-0.185586;0.016369;3.5;3.0;3.0;2.0;0.5;0.75;0.25;0.5;3.0;1.75;1.75;1.0;0.5;1.25;0.5;0.5;-0.25;0.027344;0.978027;-0.7;-1.05;0.7;277.0;-0.055424;-0.004926
2.44;8.75;6.0;6.0;3.5;1.0;0.5;0.25;0.0;3.0;0.75;1.25;1.0;0.0;0.75;0.5;0.5;-0.226074;0.019531;0.985352;-0.63;0.42;0.56;390.0;-0.189252;0.012906;3.5;3.25;3.0;2.25;0.75;0.75;0.25;0.25;3.0;1.75;1.25;1.0;0.5;1.25;0.75;0.5;-0.255371;0.030273;0.97168;-0.63;-0.98;0.7;279.0;-0.063595;-0.000774
2.45;9.0;6.0;6.0;3.5;1.25;0.5;0.25;0.25;2.75;1.0;1.25;1.0;0.0;0.75;0.5;0.5;-0.219727;0.020996;0.984863;-0.7;0.49;0.7;399.0;-0.189376;0.007747;4.0;3.25;3.0;2.25;0.75;0.75;0.25;0.25;3.0;1.5;1.25;1.0;0.5;1.5;0.5;0.5;-0.259277;0.02832;0.978027;-0.56;-0.98;0.84;281.0;-0.074383;0.003086
2.46;8.75;6.25;6.25;3.5;1.25;0.5;0.25;0.25;3.0;1.0;1.5;1.0;0.0;0.75;0.5;0.5;-0.225586;0.024414;0.983887;-0.63;0.42;0.63;408.0;-0.183049;0.008051;3.75;3.25;2.75;2.25;0.5;0.5;0.25;0.25;3.0;1.75;1.25;1.0;0.5;1.5;0.25;0.75;-0.255859;0.030273;0.971191;-0.63;-1.05;0.77;271.0;-0.066792;0.003203
2.47;8.75;6.0;6.25;3.5;1.0;0.5;0.25;0.25;3.0;1.25;1.25;1.0;0.0;1.0;0.25;0.5;-0.224609;0.02002;0.981445;-0.63;0.49;0.63;402.0;-0.182703;0.011644;3.75;3.25;3.0;2.25;0.5;0.5;0.25;0.25;3.0;1.75;1.5;1.0;0.5;1.25;0.5;0.75;-0.254395;0.032227;0.973633;-0.63;-0.98;0.84;277.0;-0.065066;0.000576
2.48;8.75;6.0;6.25;3.75;1.0;0.5;0.25;0.25;3.0;1.0;1.25;0.75;0.25;1.0;0.5;0.25;-0.222656;0.01709;0.985352;-0.63;0.42;0.56;403.0;-0.185006;0.00948;4.0;3.25;3.0;2.25;0.75;0.75;0.25;0.25;3.0;1.75;1.75;1.0;0.5;1.25;0.75;0.5;-0.253906;0.031738;0.976562;-0.7;-0.98;0.7;290.0;-0.064509;-0.000905
2.49;8.75;6.0;6.25;3.75;1.0;0.5;0.25;0.25;3.0;0.75;1.25;1.0;0.25;1.75;0.5;0.25;-0.226562;0.022949;0.983887;-0.7;0.35;0.56;410.0;-0.175037;0.009814;4.0;3.0;3.0;2.25;0.75;1.0;0.25;0.5;3.0;1.75;1.5;1.0;0.5;1.5;0.5;0.5;-0.254395;0.02832;0.968262;-0.63;-1.05;0.7;291.0;-0.065308;-0.004488
2.5;8.75;6.25;6.75;3.5;1.25;0.5;0.25;0.25;3.25;1.0;1.5;1.0;0.0;1.5;0.5;0.25;-0.219727;0.020508;0.985352;-0.63;0.35;0.63;423.0;-0.172624;0.015389;3.75;3.25;2.75;2.25;0.75;0.5;0.25;0.5;3.0;1.75;1.25;0.75;0.5;1.5;0.25;0.5;-0.255859;0.033691;0.973145;-0.56;-1.05;0.7;273.0;-0.071816;0.002696
2.51;9.0;6.0;6.25;4.0;1.25;0.5;0.25;0.25;3.0;1.25;1.5;1.0;0.0;0.75;0.5;0.5;-0.220215;0.015625;0.984863;-0.63;0.28;0.63;417.0;-0.181748;0.00682;3.75;3.25;3.0;2.5;0.75;0.75;0.25;0.25;3.0;1.75;1.5;0.75;0.5;1.25;0.5;0.5;-0.254395;0.030762;0.97168;-0.63;-1.05;0.7;282.0;-0.074029;0.000621
2.52;9.0;6.25;6.25;3.75;1.25;0.5;0.25;0.0;3.0;1.25;1.25;1.0;0.0;0.75;0.5;0.5;-0.226074;0.01709;0.981445;-0.63;0.35;0.56;410.0;-0.186986;0.012358;3.75;3.5;3.0;2.5;0.75;1.0;0.25;0.25;3.0;1.5;1.75;0.75;0.5;1.25;0.5;0.5;-0.253418;0.03125;0.970703;-0.56;-0.98;0.7;287.0;-0.077972;-0.005463
2.53;9.0;6.25;6.75;3.5;1.25;0.5;0.25;0.0;3.0;1.0;1.5;1.25;0.0;1.0;0.25;0.5;-0.229004;0.019531;0.988281;-0.49;0.49;0.63;415.0;-0.1855;0.013402;4.25;3.0;3.0;2.75;0.75;0.75;0.25;0.5;3.0;1.5;1.75;1.0;0.75;1.25;0.5;0.5;-0.256348;0.030273;0.971191;-0.56;-0.98;0.7;297.0;-0.074133;-0.01194
2.54;8.75;6.25;6.75;3.75;1.0;0.5;0.25;0.0;3.0;1.0;1.25;1.25;0.0;1.0;0.25;0.25;-0.222656;0.022949;0.989746;-0.56;0.49;0.63;408.0;-0.190049;0.012729;4.0;3.0;3.0;2.25;0.75;0.75;0.25;0.5;3.0;1.5;1.5;1.0;0.5;1.5;0.5;0.5;-0.254395;0.03418;0.976074;-0.56;-0.98;0.7;285.0;-0.067447;-0.002372
2.55;8.5;6.25;6.75;3.5;1.0;0.5;0.25;0.25;3.25;1.0;1.75;0.5;0.0;1.25;0.25;0.25;-0.219727;0.021973;0.980957;-0.56;0.49;0.56;409.0;-0.181346;0.017635;4.0;3.5;3.0;2.25;0.75;0.5;0.25;0.25;3.0;1.5;1.5;1.0;0.5;1.25;0.75;0.5;-0.254883;0.02832;0.976074;-0.63;-0.91;0.7;284.0;-0.072696;0.000988
2.56;8.75;6.5;6.25;3.75;1.25;0.5;0.25;0.25;3.25;1.0;1.5;0.5;0.0;1.25;0.25;0.5;-0.222168;0.020508;0.984863;-0.42;0.49;0.49;413.0;-0.184299;0.014376;4.0;3.5;3.0;2.25;0.75;1.0;0.25;0.5;3.0;1.5;1.5;1.25;0.5;1.25;1.0;0.5;-0.255371;0.032715;0.977539;-0.56;-0.91;0.7;300.0;-0.06614;-0.013552
2.57;9.0;6.25;6.25;4.0;1.25;0.5;0.25;0.25;3.25;0.5;1.5;0.75;0.0;1.0;0.25;0.25;-0.222656;0.020508;0.976562;-0.56;0.7;0.56;410.0;-0.193613;0.01178;4.0;3.0;3.0;2.25;0.75;1.25;0.25;0.5;3.0;1.75;1.25;1.25;0.5;1.25;1.0;0.5;-0.253418;0.037109;0.970215;-0.63;-0.84;0.7;298.0;-0.060945;-0.011837
2.58;8.75;6.0;6.25;4.0;1.25;0.5;0.25;0.25;3.25;0.5;1.5;0.75;0.0;1.0;0.25;0.25;-0.224609;0.020996;0.986816;-0.49;0.56;0.49;405.0;-0.190757;0.012209;4.0;3.0;2.75;2.25;0.75;1.0;0.25;0.5;2.75;1.75;1.25;1.25;0.5;1.25;1.0;0.5;-0.256836;0.034668;0.972168;-0.77;-0.98;0.7;288.0;-0.061775;-0.013764
2.59;9.0;6.25;6.75;4.0;1.0;0.5;0.25;0.25;3.0;1.0;1.25;1.0;0.0;1.25;0.5;0.25;-0.219238;0.022461;0.98291;-0.42;0.56;0.7;420.0;-0.185749;0.010056;3.75;3.25;2.75;2.25;0.5;0.75;0.25;0.25;2.75;1.5;1.5;1.0;0.5;1.0;1.0;0.5;-0.254395;0.033691;0.972656;-0.7;-0.84;0.63;272.0;-0.067614;-0.009199
2.6;9.0;5.25;6.25;4.0;1.0;0.5;0.25;0.25;3.25;1.0;1.5;1.0;0.25;1.25;0.5;0.5;-0.219727;0.019531;0.981445;-0.21;0.63;0.56;414.0;-0.168331;0.010751;4.0;3.25;2.75;2.25;0.75;0.75;0.25;0.25;3.0;1.75;1.5;1.0;0.5;1.25;1.0;0.75;-0.26123;0.032227;0.970703;-0.84;-0.84;0.63;288.0;-0.058392;-0.003131
2.61;8.75;5.5;6.25;3.5;1.0;0.5;0.25;0.25;3.25;1.25;1.5;1.0;0.0;1.25;0.25;0.25;-0.225098;0.024414;0.984375;-0.35;0.56;0.63;404.0;-0.171581;0.017429;4.0;3.5;3.0;2.25;0.75;1.0;0.25;0.5;3.0;1.75;1.75;1.25;0.75;1.25;1.0;0.5;-0.25293;0.032227;0.967773;-0.84;-0.84;0.63;308.0;-0.058792;-0.017214
2.62;8.75;6.0;6.25;3.5;1.0;0.5;0.25;0.25;3.25;1.0;1.25;1.0;0.0;1.25;0.25;0.25;-0.221191;0.016602;0.980957;-0.35;0.84;0.63;404.0;-0.180361;0.015754;4.0;3.5;3.0;2.25;0.5;1.0;0.25;0.5;3.0;1.75;1.5;1.0;0.75;0.75;1.0;0.5;-0.256348;0.035645;0.974121;-0.77;-0.91;0.63;294.0;-0.07093;-0.017403
2.63;9.5;6.0;6.25;3.5;1.0;0.5;0.25;0.25;3.0;0.75;1.5;1.0;0.0;1.25;0.25;0.25;-0.224121;0.020508;0.98584;-0.42;0.7;0.56;408.0;-0.188899;0.014169;4.0;3.5;3.0;2.25;0.75;1.0;0.25;0.5;3.0;1.75;1.75;1.0;0.75;1.25;1.0;0.5;-0.256348;0.029297;0.972656;-0.91;-0.98;0.56;305.0;-0.061315;-0.014581
2.64;8.75;6.0;6.25;3.5;1.25;0.5;0.25;0.25;3.0;1.0;1.25;1.0;0.25;1.0;0.25;0.25;-0.226074;0.023926;0.97998;-0.35;0.77;0.63;403.0;-0.185198;0.010077;3.75;3.5;3.0;2.25;0.75;1.0;0.25;0.5;3.0;1.75;1.5;1.0;0.75;1.5;1.0;0.5;-0.254883;0.02832;0.969727;-0.84;-1.05;0.63;302.0;-0.057184;-0.013298
2.65;8.5;6.0;6.25;3.5;1.0;0.5;0.25;0.25;3.25;1.25;1.5;1.0;0.25;1.0;0.5;0.5;-0.223145;0.020996;0.97998;-0.28;0.7;0.56;411.0;-0.16838;0.009007;4.0;3.25;3.0;2.25;0.75;1.0;0.25;0.5;3.25;1.75;1.5;1.0;0.75;1.5;1.0;0.5;-0.25293;0.03125;0.967773;-0.77;-0.98;0.56;305.0;-0.053752;-0.007538
2.66;8.25;6.0;6.25;3.5;1.0;0.5;0.25;0.25;3.25;1.25;1.5;1.0;0.25;0.75;0.5;0.25;-0.221191;0.027832;0.983887;-0.35;0.63;0.49;404.0;-0.17201;0.008521;3.75;3.5;3.0;2.25;0.75;1.0;0.25;0.25;3.25;1.75;1.25;1.25;0.5;1.5;1.0;0.5;-0.25293;0.03125;0.969238;-0.84;-0.98;0.63;299.0;-0.055993;-0.002788
2.67;8.25;5.75;6.25;3.5;1.25;0.5;0.25;0.25;3.25;1.25;1.75;1.0;0.25;0.75;0.5;0.25;-0.222168;0.020996;0.979004;-0.35;0.56;0.56;408.0;-0.16736;0.009117;3.5;3.5;3.0;2.25;0.75;1.0;0.25;0.5;3.0;1.75;1.75;1.0;0.5;1.5;1.0;0.5;-0.250488;0.027344;0.978027;-0.84;-0.98;0.63;299.0;-0.052991;-0.011907
2.68;8.25;5.75;6.25;3.5;1.0;0.5;0.25;0.25;3.0;1.25;1.5;0.75;0.25;1.0;0.75;0.5;-0.216797;0.020996;0.98584;-0.49;0.7;0.56;402.0;-0.167545;0.008578;3.75;3.25;3.0;2.25;0.75;1.0;0.25;0.5;3.25;1.75;1.75;1.0;0.5;1.25;0.75;0.5;-0.254395;0.030273;0.969727;-0.91;-0.91;0.49;298.0;-0.057588;-0.006821
2.69;8.5;6.0;6.25;3.5;1.25;0.5;0.25;0.25;3.0;1.0;1.25;0.75;0.0;1.25;0.5;0.25;-0.216797;0.021973;0.978516;-0.49;0.63;0.49;400.0;-0.180866;0.01467;4.0;3.5;3.0;2.25;0.5;0.75;0.25;0.5;3.0;1.75;1.75;1.0;0.5;1.25;0.75;0.75;-0.251465;0.029297;0.980469;-1.05;-1.05;0.63;295.0;-0.064031;-0.01003
2.7;8.5;6.25;6.0;3.5;1.25;0.5;0.25;0.25;3.25;1.25;1.5;1.25;0.25;0.75;0.5;0.25;-0.228027;0.024902;0.980469;-0.49;0.49;0.63;412.0;-0.171399;0.005803;3.75;3.25;3.0;2.25;0.5;1.0;0.25;0.5;3.0;1.5;1.75;1.0;0.5;1.25;0.75;0.75;-0.257324;0.026367;0.970215;-0.91;-0.98;0.7;290.0;-0.061548;-0.013254
2.71;8.25;6.25;6.25;3.5;1.0;0.5;0.25;0.0;3.25;1.25;1.75;1.0;0.0;0.75;0.5;0.25;-0.224609;0.021973;0.983887;-0.49;0.63;0.49;403.0;-0.17436;0.013428;3.5;3.5;3.0;2.25;0.5;0.75;0.25;0.5;3.0;1.5;1.75;1.0;0.5;1.25;0.75;0.5;-0.251465;0.035156;0.969727;-0.84;-0.91;0.7;285.0;-0.06254;-0.011549
2.72;9.0;5.75;6.0;3.5;1.25;0.5;0.25;0.0;3.25;1.25;1.25;1.0;0.0;0.75;0.25;0.5;-0.222168;0.024902;0.981934;-0.63;0.42;0.49;399.0;-0.18303;0.018829;4.0;3.5;2.75;2.5;0.75;0.75;0.25;0.25;3.25;1.75;1.5;1.25;0.5;1.25;0.75;0.5;-0.254883;0.032715;0.969727;-0.84;-0.98;0.63;296.0;-0.063969;-0.003943
2.73;8.5;6.0;6.25;3.75;1.25;0.5;0.25;0.0;3.25;1.25;1.75;1.0;0.25;0.25;0.5;0.25;-0.224121;0.022949;0.984375;-0.56;0.49;0.63;407.0;-0.179629;0.00918;4.0;3.5;3.0;2.0;0.5;1.0;0.25;0.25;3.25;1.75;1.75;1.25;0.75;1.25;1.0;0.75;-0.250488;0.029785;0.976562;-0.77;-0.91;0.63;303.0;-0.050736;-0.008791
2.74;8.25;6.0;6.25;3.5;1.25;0.5;0.25;0.25;3.25;1.5;1.75;1.25;0.25;0.25;0.5;0.25;-0.221191;0.017578;0.98291;-0.7;0.42;0.56;411.0;-0.169983;0.00438;3.75;3.25;3.0;2.25;1.0;1.0;0.25;0.5;3.0;1.75;1.5;1.0;0.5;1.5;0.75;0.5;-0.255371;0.032227;0.973145;-0.84;-0.98;0.63;297.0;-0.061108;-0.007025
2.75;8.5;6.0;6.25;3.5;1.25;0.5;0.25;0.25;3.25;1.25;1.75;1.25;0.25;0.75;0.5;0.25;-0.222656;0.021973;0.985352;-0.63;0.49;0.63;416.0;-0.16787;0.00662;3.5;3.0;3.0;2.25;0.75;0.75;0.25;0.5;3.0;1.75;1.25;0.75;0.5;1.5;0.5;0.5;-0.254883;0.03125;0.971191;-0.84;-0.7;0.63;277.0;-0.063325;0.000262
2.76;8.25;6.0;6.25;3.5;1.25;0.5;0.25;0.25;3.25;1.25;1.75;1.25;0.25;1.0;0.25;0.5;-0.225098;0.015625;0.98584;-0.56;0.42;0.56;414.0;-0.165101;0.006349;3.75;3.0;2.75;2.25;0.5;1.0;0.25;0.5;3.0;1.75;1.5;0.75;0.5;1.5;0.75;0.75;-0.249023;0.030762;0.96875;-0.7;-0.91;0.63;284.0;-0.054936;-0.00676
2.77;8.75;5.5;6.25;3.5;1.0;0.5;0.25;0.25;3.25;1.0;1.5;1.25;0.0;1.25;0.25;0.5;-0.221191;0.020996;0.988281;-0.63;0.7;0.49;406.0;-0.169825;0.013668;4.0;3.0;2.75;2.5;0.5;0.75;0.25;0.5;3.0;1.75;1.5;0.75;0.5;1.25;0.5;0.5;-0.259277;0.032227;0.973145;-0.7;-0.84;0.63;280.0;-0.070719;-0.004235
2.78;8.25;6.0;6.0;3.5;1.0;0.5;0.25;0.25;3.25;1.25;1.5;1.0;0.25;1.25;0.25;0.25;-0.224121;0.018066;0.97998;-0.7;0.42;0.49;403.0;-0.168689;0.010505;4.0;3.0;3.0;2.5;0.75;0.75;0.25;0.25;3.0;1.75;1.5;1.0;0.75;1.25;0.75;0.5;-0.251953;0.036133;0.973145;-0.7;-0.7;0.63;290.0;-0.064719;-0.00439
2.79;8.25;6.25;6.25;3.5;1.25;0.5;0.25;0.25;3.25;1.25;1.5;1.25;0.25;1.0;0.5;0.25;-0.225586;0.021973;0.98584;-0.63;0.42;0.56;415.0;-0.167243;0.006675;3.5;3.0;2.75;2.25;0.75;0.5;0.25;0.25;3.0;1.5;1.75;1.0;0.5;1.25;0.75;0.5;-0.256836;0.032715;0.967773;-0.84;-0.84;0.63;273.0;-0.054213;-0.000374
2.8;8.5;6.25;6.0;3.5;1.25;0.5;0.25;0.25;3.25;1.25;1.75;1.0;0.25;0.75;0.5;0.5;-0.224121;0.023438;0.980469;-0.77;0.42;0.56;414.0;-0.169397;0.005919;3.75;3.0;2.75;2.25;0.5;1.0;0.25;0.25;3.0;1.75;1.5;1.0;0.5;1.25;0.5;0.75;-0.252441;0.030273;0.976562;-0.7;-0.91;0.63;277.0;-0.061537;-0.00475
2.81;9.0;6.25;6.25;3.5;1.0;0.5;0.25;0.0;3.0;1.0;1.25;1.25;0.0;0.75;0.5;0.5;-0.21875;0.021484;0.985352;-0.7;0.49;0.49;404.0;-0.186882;0.011192;4.0;3.25;3.0;2.25;0.75;1.0;0.25;0.25;3.0;1.75;1.5;1.0;0.5;1.25;0.5;0.75;-0.254883;0.034668;0.974609;-0.77;-0.91;0.56;289.0;-0.070799;-0.003365
2.82;8.75;6.25;6.75;3.5;1.25;0.5;0.25;0.0;3.5;1.25;1.25;1.25;0.0;1.25;0.5;0.5;-0.224609;0.019531;0.983887;-0.7;0.63;0.56;425.0;-0.169255;0.018622;3.75;3.5;3.0;2.25;1.0;1.0;0.25;0.25;3.0;1.75;1.5;1.25;0.5;1.5;0.75;0.75;-0.260742;0.031738;0.970215;-0.77;-0.91;0.63;300.0;-0.060104;-0.007311
2.83;8.75;6.25;6.25;3.75;1.25;0.5;0.25;0.25;3.25;1.25;1.5;1.25;0.0;1.25;0.5;0.5;-0.226074;0.021484;0.987793;-0.77;0.49;0.49;425.0;-0.168093;0.008814;3.5;3.5;2.75;2.25;0.75;1.0;0.25;0.25;3.0;1.75;1.5;0.75;0.5;1.5;1.0;0.5;-0.248535;0.033691;0.973633;-0.77;-0.91;0.63;286.0;-0.056734;-0.003563
2.84;9.0;6.25;6.25;3.5;1.25;0.5;0.25;0.25;3.25;1.0;1.5;1.0;0.0;0.75;0.5;0.5;-0.221191;0.020508;0.98291;-0.84;0.49;0.56;414.0;-0.18076;0.011037;3.5;3.5;3.0;2.25;0.5;0.75;0.25;0.25;3.0;2.0;1.5;0.75;0.5;1.5;0.75;0.5;-0.257812;0.034668;0.972168;-0.77;-0.91;0.7;283.0;-0.058971;0.001048
2.85;8.75;6.25;6.25;4.0;1.25;0.75;0.25;0.25;3.25;1.25;1.75;1.25;0.25;1.5;0.25;0.5;-0.225586;0.020996;0.985352;-0.7;0.49;0.56;436.0;-0.16509;0.00342;4.0;3.0;2.75;2.25;0.5;0.25;0.25;0.25;2.75;1.75;1.5;1.0;0.75;1.25;0.75;0.5;-0.256836;0.027832;0.973633;-0.77;-0.98;0.7;271.0;-0.061645;-0.001521
2.86;8.5;6.0;6.25;3.5;1.25;0.5;0.25;0.25;3.25;1.25;1.75;1.25;0.25;1.25;0.25;0.5;-0.218262;0.02002;0.980957;-0.77;0.7;0.56;419.0;-0.163508;0.007991;3.75;3.0;2.75;2.25;0.5;0.5;0.25;0.25;2.5;1.5;1.5;0.75;0.5;1.5;0.75;0.5;-0.252441;0.033691;0.977539;-0.77;-0.98;0.7;262.0;-0.067442;-0.00131
2.87;8.5;6.25;6.25;3.5;1.25;0.5;0.25;0.25;3.25;1.0;1.25;1.25;0.0;0.75;0.5;0.5;-0.227051;0.020996;0.985352;-0.7;0.49;0.7;409.0;-0.17778;0.008406;4.25;3.5;2.75;2.25;0.75;0.75;0.25;0.5;3.0;1.5;1.5;0.75;0.5;1.5;0.75;0.5;-0.260254;0.02832;0.978516;-0.84;-0.98;0.7;290.0;-0.072746;-0.002967
2.88;8.75;6.25;6.75;3.5;1.25;0.75;0.25;0.25;3.0;1.0;1.25;1.25;0.0;0.75;0.5;0.5;-0.22168;0.023438;0.98291;-0.77;0.63;0.49;417.0;-0.184131;0.005985;3.75;3.25;3.0;2.5;0.75;0.5;0.25;0.5;3.0;1.75;1.75;0.75;0.5;1.5;0.75;0.5;-0.251953;0.02832;0.976562;-0.77;-1.05;0.7;291.0;-0.060763;-0.002746
2.89;9.0;6.25;6.75;3.75;1.0;0.75;0.25;0.25;3.0;1.25;1.5;1.25;0.0;1.0;0.5;0.25;-0.228027;0.020996;0.984863;-0.84;0.63;0.56;427.0;-0.179791;0.006269;3.75;3.0;3.0;2.75;0.75;0.5;0.25;0.5;3.0;1.5;1.5;0.75;0.5;1.5;0.5;0.75;-0.251953;0.030762;0.970215;-0.84;-0.98;0.7;284.0;-0.068428;-0.003988
2.9;8.75;6.25;6.25;4.0;1.25;0.75;0.25;0.25;3.0;1.25;1.25;1.25;0.0;0.75;0.5;0.25;-0.229004;0.015625;0.983398;-0.7;0.56;0.56;418.0;-0.183471;0.002988;3.75;3.0;2.75;2.25;0.75;0.5;0.25;0.5;3.0;1.5;1.5;0.75;0.5;1.25;0.75;0.5;-0.255859;0.031738;0.971191;-0.77;-1.12;0.7;274.0;-0.062856;-0.000878
2.91;8.75;6.25;6.25;3.5;1.0;0.75;0.25;0.25;3.25;1.25;1.5;1.0;0.25;0.75;0.5;0.25;-0.229492;0.022461;0.986816;-0.7;0.42;0.56;415.0;-0.176503;0.006814;3.75;3.25;3.0;2.25;0.75;0.75;0.25;0.5;3.0;1.75;1.5;1.0;0.5;1.0;0.75;0.5;-0.259277;0.031738;0.970703;-0.77;-1.19;0.77;286.0;-0.067175;-0.007976
2.92;8.75;6.0;6.25;3.75;1.0;0.75;0.25;0.25;3.25;1.25;1.25;1.0;0.25;1.0;0.5;0.5;-0.228516;0.018066;0.98584;-0.63;0.7;0.7;417.0;-0.173422;0.006848;3.75;3.5;2.75;2.0;0.5;0.75;0.25;0.5;3.0;1.5;1.25;1.0;0.5;1.25;0.5;0.5;-0.248047;0.02832;0.97168;-0.77;-1.19;0.63;273.0;-0.072298;-0.006165
2.93;8.75;6.25;6.25;3.75;1.0;0.5;0.25;0.25;3.25;1.25;1.25;1.0;0.0;1.25;0.5;0.25;-0.220703;0.023926;0.985352;-0.56;0.56;0.63;415.0;-0.175625;0.012563;4.0;3.5;2.75;2.5;0.75;0.75;0.25;0.25;3.0;1.75;1.5;1.0;0.5;1.25;0.75;0.5;-0.256836;0.034668;0.975098;-0.84;-1.05;0.7;290.0;-0.070632;-0.004474
2.94;8.75;6.0;6.25;3.75;1.25;0.5;0.25;0.25;3.0;1.0;1.25;0.75;0.0;1.25;0.5;0.5;-0.224121;0.021973;0.98291;-0.56;0.56;0.7;407.0;-0.181227;0.012368;4.0;3.5;2.75;2.5;0.5;0.5;0.25;0.25;2.75;1.75;1.75;1.0;0.5;1.0;0.75;0.5;-0.253906;0.032715;0.970215;-0.77;-1.05;0.63;281.0;-0.074326;-0.008529
2.95;9.0;6.0;6.25;3.75;1.25;0.5;0.25;0.0;3.0;1.0;1.25;1.25;0.0;1.0;0.5;0.5;-0.225586;0.023438;0.984375;-0.63;0.56;0.63;410.0;-0.182356;0.011867;4.0;3.5;3.0;2.5;0.75;0.75;0.25;0.5;3.0;1.75;1.75;1.25;0.5;1.0;0.75;0.5;-0.259766;0.026367;0.969238;-0.84;-1.05;0.63;300.0;-0.070038;-0.014158
2.96;9.0;6.0;6.25;3.75;1.0;0.5;0.25;0.0;3.25;1.0;1.25;1.0;0.0;0.75;0.5;0.5;-0.226562;0.022461;0.987793;-0.56;0.56;0.63;405.0;-0.185098;0.015058;4.0;3.5;3.0;2.5;0.75;1.0;0.25;0.5;3.0;1.75;1.25;1.25;0.5;1.0;0.75;0.5;-0.25;0.034668;0.969727;-0.7;-1.05;0.63;298.0;-0.07655;-0.014789
2.97;9.0;6.25;6.25;3.75;1.25;0.5;0.25;0.0;3.25;1.25;1.25;1.0;0.0;0.75;0.75;0.0;-0.224121;0.020996;0.984375;-0.49;0.56;0.63;413.0;-0.182948;0.016308;4.25;3.5;3.0;2.5;1.0;1.0;0.25;0.5;2.75;1.75;1.5;1.25;0.5;1.25;0.75;0.5;-0.254883;0.030762;0.971191;-0.77;-1.05;0.7;305.0;-0.077401;-0.015765
2.98;9.25;6.25;6.75;4.0;1.25;0.5;0.25;0.25;3.25;1.0;1.25;1.25;0.0;0.75;0.5;0.25;-0.226074;0.023926;0.985352;-0.56;0.49;0.56;428.0;-0.186903;0.009398;4.25;3.5;3.0;2.75;0.75;1.0;0.25;0.5;2.75;1.5;1.5;1.25;0.5;1.25;0.75;0.75;-0.256348;0.03125;0.978027;-0.77;-1.05;0.7;304.0;-0.079845;-0.020791
2.99;9.0;6.25;6.75;3.75;1.0;0.5;0.25;0.0;3.0;1.0;1.25;1.25;0.0;1.25;0.25;0.25;-0.220703;0.021484;0.98584;-0.7;0.56;0.63;413.0;-0.188123;0.014315;4.25;3.75;3.0;2.5;0.5;1.0;0.25;0.5;3.0;1.75;1.75;1.0;0.5;1.0;0.75;1.0;-0.253906;0.038086;0.976074;-0.77;-1.05;0.7;306.0;-0.074692;-0.017777
3.0;8.75;6.25;6.75;3.5;1.0;0.5;0.25;0.0;3.0;1.25;1.25;1.0;0.0;1.25;0.25;0.25;-0.227539;0.019531;0.982422;-0.63;0.56;0.63;407.0;-0.185714;0.01796;4.0;3.75;3.0;2.5;0.5;0.75;0.25;0.5;2.75;1.75;1.5;1.0;0.5;1.0;0.75;1.0;-0.253906;0.035156;0.973145;-0.84;-1.05;0.7;293.0;-0.077704;-0.019016
3.01;9.25;6.5;6.75;3.75;1.0;0.5;0.25;0.0;2.75;1.0;1.25;1.0;0.0;0.75;0.5;0.5;-0.219238;0.013672;0.983887;-0.49;0.7;0.56;412.0;-0.198292;0.01008;4.25;3.75;3.0;2.5;0.75;0.75;0.25;0.25;3.0;1.75;1.25;1.0;0.5;1.25;0.75;0.5;-0.249512;0.033691;0.978027;-0.7;-1.05;0.63;295.0;-0.081661;-0.00272
3.02;9.0;6.5;6.25;3.75;1.25;0.5;0.25;0.25;2.75;1.0;1.25;0.75;0.25;0.75;0.25;0.25;-0.226074;0.021484;0.987793;-0.56;0.63;0.63;405.0;-0.200485;0.005719;4.25;3.75;3.0;2.5;0.75;1.0;0.25;0.25;3.0;1.75;1.5;0.75;0.5;1.5;0.5;0.5;-0.252441;0.030762;0.970215;-0.84;-1.05;0.7;298.0;-0.083075;-0.001497
3.03;8.75;6.25;6.25;3.5;1.25;0.5;0.25;0.25;3.25;1.0;1.25;0.75;0.0;0.75;0.25;0.25;-0.224609;0.021484;0.981445;-0.56;0.56;0.63;402.0;-0.191081;0.015317;4.0;3.75;3.25;2.5;0.5;1.0;0.25;0.5;2.75;1.5;1.5;1.0;0.5;1.5;0.5;0.5;-0.252441;0.029785;0.970703;-0.7;-0.98;0.7;295.0;-0.084847;-0.014594
3.04;8.75;6.25;6.75;3.5;1.25;0.5;0.25;0.25;3.25;1.25;1.5;1.0;0.0;0.75;0.0;0.5;-0.224609;0.020996;0.985352;-0.49;0.56;0.56;415.0;-0.185734;0.013169;4.0;3.5;3.25;2.5;0.5;0.5;0.25;0.5;2.75;1.5;1.25;1.25;0.5;1.5;0.75;0.5;-0.251953;0.03125;0.967285;-0.84;-1.05;0.63;290.0;-0.075861;-0.010441
3.05;8.75;6.0;6.75;3.75;1.0;0.5;0.25;0.25;3.0;1.0;1.25;1.0;0.25;1.25;0.25;0.5;-0.228516;0.025879;0.987305;-0.56;0.56;0.56;413.0;-0.182245;0.008949;4.5;4.25;3.25;2.75;0.75;1.0;0.25;0.5;3.0;1.5;1.25;1.0;0.5;1.25;0.75;0.5;-0.258789;0.036621;0.970215;-0.84;-0.91;0.63;313.0;-0.096379;-0.013908
3.06;9.0;6.25;6.0;3.75;1.0;0.25;0.25;0.25;3.0;1.25;1.0;1.0;0.25;0.25;0.5;0.25;-0.229004;0.021973;0.980957;-0.63;0.56;0.7;398.0;-0.195167;0.006709;4.5;3.5;3.25;2.75;0.5;0.5;0.25;0.25;2.75;1.75;1.75;1.0;0.5;1.25;0.75;0.5;-0.251465;0.030273;0.970215;-0.77;-0.98;0.63;298.0;-0.082844;-0.00502
3.07;9.0;6.25;6.25;3.5;1.0;0.5;0.25;0.25;3.0;0.75;1.5;0.5;0.25;0.5;0.5;0.25;-0.220215;0.020508;0.984375;-0.56;0.56;0.63;398.0;-0.197165;0.009799;4.5;3.5;3.0;2.75;0.5;1.0;0.25;0.25;2.75;1.5;1.25;1.25;0.5;1.0;0.75;0.5;-0.257324;0.025391;0.965332;-0.84;-1.12;0.77;293.0;-0.09259;-0.014265
3.08;9.0;6.25;6.25;3.75;1.0;0.5;0.25;0.25;3.0;0.5;1.75;0.5;0.0;0.75;0.25;0.25;-0.228027;0.022949;0.983887;-0.63;0.63;0.56;398.0;-0.2009;0.011172;4.25;3.5;3.0;2.75;0.5;1.0;0.25;0.25;2.75;1.5;1.25;1.25;0.5;1.0;0.75;0.5;-0.256836;0.027832;0.97168;-0.84;-0.98;0.56;290.0;-0.089558;-0.015467
3.09;9.0;6.25;6.25;4.0;1.0;0.5;0.25;0.25;3.0;1.0;1.5;0.5;0.0;0.75;0.5;0.5;-0.226074;0.025391;0.98584;-0.63;0.56;0.63;408.0;-0.192069;0.009229;4.25;3.75;3.25;2.75;1.0;1.0;0.25;0.5;2.75;1.5;1.25;1.0;0.5;1.25;0.75;0.5;-0.249512;0.029785;0.97168;-0.91;-0.98;0.7;305.0;-0.09266;-0.01517
3.1;9.0;6.25;6.25;3.5;1.0;0.5;0.25;0.25;3.0;1.0;1.25;1.0;0.0;1.0;0.25;0.5;-0.227051;0.020508;0.979004;-0.63;0.7;0.49;405.0;-0.188676;0.01085;4.25;3.75;3.0;2.25;0.75;1.0;0.25;0.5;2.75;1.5;1.75;0.75;0.75;1.25;1.0;0.75;-0.253418;0.027832;0.971191;-0.84;-1.05;0.7;302.0;-0.074571;-0.017628
3.11;9.0;6.25;6.25;3.5;1.0;0.5;0.25;0.25;2.75;1.0;1.25;1.25;0.25;1.25;0.25;0.25;-0.225098;0.023438;0.980469;-0.7;0.56;0.63;407.0;-0.18627;0.005762;4.25;3.75;3.0;2.25;0.5;1.0;0.25;0.5;2.75;1.5;1.25;1.0;0.75;1.25;1.0;0.5;-0.254395;0.030273;0.964844;-0.7;-1.05;0.63;295.0;-0.0793;-0.017757
3.12;8.75;6.25;6.25;3.5;1.0;0.5;0.25;0.0;2.75;1.0;1.25;1.0;0.25;0.75;0.25;0.25;-0.225098;0.016602;0.983398;-0.77;0.7;0.63;392.0;-0.196535;0.009417;4.25;3.75;3.0;2.5;1.0;1.0;0.25;0.5;2.75;1.5;1.25;0.75;0.5;1.25;0.75;0.5;-0.252441;0.033691;0.975586;-0.84;-1.05;0.7;296.0;-0.091835;-0.01139
3.13;8.75;6.0;6.25;3.75;1.0;0.5;0.25;0.0;2.75;1.25;1.25;1.0;0.25;0.75;0.25;0.25;-0.223633;0.021973;0.985352;-0.77;0.56;0.49;396.0;-0.192686;0.009151;4.25;3.75;3.25;2.5;0.5;1.0;0.25;0.5;2.75;1.5;1.5;1.25;0.5;1.25;0.75;0.5;-0.253906;0.032227;0.972656;-0.7;-0.98;0.84;302.0;-0.08418;-0.018244
3.14;8.75;6.25;6.0;3.5;1.25;0.5;0.25;0.0;2.75;1.0;1.25;0.5;0.0;0.75;0.25;0.5;-0.225586;0.022949;0.98584;-0.77;0.63;0.56;386.0;-0.201588;0.015386;4.5;4.0;3.25;2.5;0.5;1.0;0.25;0.25;2.75;1.5;1.25;1.25;0.25;1.25;0.75;0.5;-0.25293;0.035156;0.972656;-0.7;-0.98;0.7;298.0;-0.096018;-0.008619
3.15;8.75;6.25;6.0;3.5;1.0;0.5;0.25;0.25;3.0;1.0;1.25;1.25;0.0;0.75;0.25;0.5;-0.224121;0.024902;0.989258;-0.77;0.7;0.56;399.0;-0.187196;0.006371;4.25;4.0;3.0;2.5;0.75;0.5;0.25;0.5;2.75;1.75;1.5;1.0;0.25;1.25;0.5;0.5;-0.255859;0.029297;0.970215;-0.7;-0.98;0.63;293.0;-0.09077;-0.006933
3.16;8.75;6.25;6.0;3.5;1.0;0.5;0.25;0.0;3.0;1.0;1.25;1.25;0.0;0.5;0.25;0.5;-0.221191;0.019043;0.983398;-0.7;0.56;0.49;393.0;-0.192595;0.009579;4.25;4.25;3.0;2.5;0.5;1.0;0.25;0.5;2.75;1.75;1.25;0.75;0.25;1.0;0.5;0.5;-0.253418;0.025879;0.970215;-0.7;-0.98;0.7;290.0;-0.104615;-0.012006
3.17;9.0;6.25;6.25;3.5;1.0;0.5;0.25;0.0;3.0;1.0;1.5;1.0;0.0;0.75;0.25;0.5;-0.225098;0.023926;0.98291;-0.7;0.63;0.56;401.0;-0.191032;0.013161;4.5;3.75;3.25;2.75;0.5;1.0;0.25;0.5;2.75;1.75;1.5;1.0;0.5;1.25;0.75;0.5;-0.250977;0.03125;0.966797;-0.7;-0.98;0.63;307.0;-0.088839;-0.015729
3.18;9.0;6.0;6.25;3.5;1.0;0.5;0.25;0.0;2.75;1.0;1.5;1.25;0.25;0.5;0.5;0.5;-0.224609;0.021973;0.983398;-0.77;0.56;0.56;401.0;-0.187826;0.005307;4.5;3.75;3.5;3.0;0.5;1.0;0.25;0.5;3.0;1.75;1.75;1.0;0.5;1.0;1.0;0.75;-0.254395;0.032715;0.972168;-0.77;-0.98;0.63;322.0;-0.082863;-0.017706
3.19;8.75;6.0;6.25;3.5;1.0;0.5;0.25;0.0;2.75;1.0;1.5;1.0;0.0;0.5;0.5;0.25;-0.226562;0.022949;0.984375;-0.77;0.56;0.63;391.0;-0.193418;0.010798;4.25;3.75;3.25;3.0;0.5;1.0;0.25;0.5;3.0;1.75;1.75;1.0;0.5;1.0;0.5;0.75;-0.256348;0.032227;0.974121;-0.77;-1.05;0.7;310.0;-0.087209;-0.01872
3.2;9.0;6.0;6.25;3.5;1.25;0.5;0.25;0.25;2.75;1.0;1.5;1.0;0.0;0.75;0.25;0.25;-0.225586;0.020996;0.985352;-0.7;0.63;0.63;400.0;-0.193296;0.009317;4.0;3.75;3.0;2.5;0.5;0.75;0.25;0.5;3.0;1.75;1.25;1.0;0.5;1.25;0.5;0.75;-0.256348;0.028809;0.971191;-0.7;-0.98;0.7;292.0;-0.079673;-0.010801
3.21;9.5;6.0;6.0;3.5;1.0;0.5;0.25;0.0;2.75;0.75;1.5;0.75;0.25;0.75;0.25;0.5;-0.229004;0.02002;0.984863;-0.77;0.49;0.63;394.0;-0.200004;0.011781;4.5;3.75;3.0;2.25;1.0;1.0;0.25;0.5;3.0;1.5;1.25;1.0;0.5;1.25;0.75;0.5;-0.250977;0.030273;0.973145;-0.77;-0.98;0.77;302.0;-0.085828;-0.007479
3.22;9.0;6.0;6.25;3.75;1.0;0.5;0.25;0.0;3.0;0.75;1.25;0.5;0.0;1.0;0.5;0.5;-0.223633;0.024414;0.981934;-0.84;0.56;0.56;395.0;-0.194391;0.017853;4.5;4.25;3.25;2.5;0.75;1.25;0.25;0.5;2.75;1.5;1.25;1.0;0.25;1.25;0.75;0.5;-0.255371;0.03418;0.969238;-0.77;-0.98;0.63;307.0;-0.101194;-0.01428
3.23;9.0;6.25;6.25;4.0;1.0;0.5;0.25;0.0;2.75;1.0;1.25;0.75;0.0;0.75;0.25;0.5;-0.225586;0.021973;0.986816;-0.84;0.56;0.49;398.0;-0.202411;0.01039;4.5;4.25;3.5;2.75;0.75;1.0;0.25;0.5;2.75;1.5;1.5;1.25;0.25;1.25;0.75;0.75;-0.256836;0.025879;0.973145;-0.77;-0.98;0.7;318.0;-0.096149;-0.017716
3.24;9.0;6.0;6.25;3.75;1.25;0.5;0.25;0.25;2.75;1.0;1.25;1.0;0.0;0.75;0.25;0.5;-0.224609;0.019531;0.980469;-0.7;0.49;0.63;402.0;-0.194941;0.007272;4.5;3.5;3.0;3.0;1.0;1.0;0.25;0.25;3.0;1.5;1.25;1.0;0.25;1.25;0.75;1.0;-0.253418;0.032715;0.974121;-0.7;-0.98;0.63;305.0;-0.087685;-0.006802
3.25;9.5;6.25;6.0;3.75;1.0;0.5;0.25;0.0;2.75;0.75;1.25;0.5;0.0;1.0;0.5;0.5;-0.226074;0.025879;0.981934;-0.84;0.56;0.56;397.0;-0.202301;0.015121;4.75;4.25;3.0;3.0;0.75;1.0;0.25;0.5;2.75;1.5;1.25;1.0;0.5;1.0;0.75;0.75;-0.252441;0.03125;0.970703;-0.84;-1.05;0.7;312.0;-0.105014;-0.021989
3.26;9.25;6.25;6.0;3.5;1.0;0.5;0.25;0.0;2.75;1.0;1.25;0.5;0.0;1.0;0.5;0.5;-0.222168;0.015625;0.982422;-0.7;0.42;0.7;394.0;-0.19701;0.016627;4.75;4.25;3.25;2.75;0.75;1.0;0.25;0.5;2.75;1.75;1.25;1.25;0.5;1.25;0.75;0.75;-0.250488;0.025879;0.977051;-0.84;-1.12;0.7;320.0;-0.095183;-0.019281
3.27;8.75;6.0;6.25;3.75;1.0;0.5;0.25;0.0;2.75;0.75;1.25;0.5;0.0;0.75;0.5;0.5;-0.222656;0.024902;0.983887;-0.77;0.63;0.56;386.0;-0.200681;0.013851;4.5;4.25;3.25;3.0;1.0;1.0;0.25;0.5;2.75;1.75;1.25;1.25;0.5;1.25;0.5;0.5;-0.254883;0.029785;0.96875;-0.7;-1.05;0.7;319.0;-0.10118;-0.01966
3.28;9.0;6.75;6.75;3.75;1.0;0.5;0.25;0.0;2.75;0.5;1.25;0.5;0.0;1.0;0.5;0.5;-0.222168;0.021484;0.984863;-0.7;0.56;0.7;402.0;-0.206725;0.012872;4.5;4.25;3.0;2.75;1.0;1.0;0.25;0.5;2.75;1.5;1.25;1.25;0.5;1.25;0.5;0.5;-0.256348;0.029785;0.968262;-0.7;-1.05;0.7;310.0;-0.100893;-0.019513
3.29;9.0;7.25;6.25;4.0;1.0;0.5;0.25;0.25;2.5;0.75;1.25;0.75;0.25;1.25;0.5;0.5;-0.228027;0.019531;0.985352;-0.7;0.56;0.56;415.0;-0.199493;-0.002011;4.75;4.25;3.25;2.75;0.75;1.0;0.25;0.5;2.75;1.75;1.5;1.0;0.5;1.25;0.5;0.5;-0.253418;0.032227;0.974121;-0.77;-1.05;0.63;315.0;-0.101752;-0.015677
3.3;9.0;6.25;6.25;3.75;1.0;0.5;0.25;0.25;2.25;1.0;1.25;0.75;0.0;1.25;0.25;0.5;-0.226562;0.02002;0.988281;-0.7;0.49;0.56;396.0;-0.200845;0.005141;4.75;4.0;3.25;2.75;0.75;1.0;0.25;0.5;2.75;1.75;1.5;1.0;0.5;1.25;0.5;0.75;-0.256836;0.033691;0.969238;-0.77;-0.98;0.63;314.0;-0.097052;-0.015875
3.31;9.0;6.5;6.25;3.75;1.0;0.5;0.25;0.25;2.5;0.75;1.0;0.5;0.0;1.0;0.25;0.25;-0.226562;0.023926;0.983887;-0.7;0.56;0.56;390.0;-0.213206;0.009371;4.75;4.25;3.25;2.75;0.75;1.0;0.25;0.5;2.75;1.75;1.25;1.0;0.5;1.5;0.75;0.75;-0.254395;0.03418;0.976074;-0.77;-0.98;0.77;319.0;-0.094231;-0.015353
3.32;9.0;6.25;6.0;3.5;1.0;0.5;0.25;0.0;2.5;0.75;1.0;0.75;0.0;1.0;0.5;0.25;-0.226562;0.024414;0.984375;-0.7;0.56;0.56;383.0;-0.205228;0.013103;4.5;4.25;3.5;3.0;0.75;1.0;0.25;0.5;2.75;1.75;1.5;1.0;0.5;1.25;0.75;0.75;-0.255859;0.032715;0.969727;-0.7;-1.05;0.7;323.0;-0.095744;-0.019675
3.33;9.5;6.25;6.25;3.5;1.0;0.5;0.25;0.0;2.5;0.75;1.0;0.75;0.0;1.0;0.25;0.25;-0.223145;0.027832;0.984863;-0.63;0.49;0.7;389.0;-0.213103;0.015797;4.75;4.25;3.25;2.75;0.75;1.0;0.25;0.5;2.5;1.75;1.25;0.75;0.5;1.0;1.0;0.75;-0.255371;0.030273;0.973633;-0.63;-0.98;0.7;311.0;-0.104006;-0.019582
3.34;9.25;6.25;6.25;3.75;1.25;0.5;0.25;0.25;2.25;0.5;1.25;0.5;0.0;1.25;0.25;0.25;-0.223145;0.029785;0.98877;-0.77;0.63;0.56;392.0;-0.213261;0.008886;4.75;4.25;3.25;2.5;0.75;1.0;0.25;0.5;2.5;1.5;1.25;0.75;0.5;1.0;0.75;0.75;-0.250488;0.030273;0.973145;-0.7;-0.98;0.7;302.0;-0.110276;-0.017738
3.35;9.25;6.25;6.25;4.0;1.0;0.5;0.25;0.0;2.75;0.75;1.25;0.5;0.0;0.5;0.25;0.25;-0.222168;0.02002;0.98291;-0.77;0.56;0.63;391.0;-0.215904;0.013207;4.5;4.25;3.25;2.75;0.75;1.0;0.25;0.5;2.5;1.5;1.25;0.75;0.5;1.0;0.75;0.75;-0.251953;0.030273;0.972656;-0.7;-0.91;0.7;303.0;-0.109293;-0.020975
3.36;9.5;6.5;6.25;3.75;1.0;0.5;0.25;0.0;2.75;1.0;1.0;0.5;0.0;0.5;0.25;0.5;-0.226074;0.019043;0.985352;-0.7;0.49;0.56;395.0;-0.215737;0.01463;4.5;4.25;3.25;2.75;0.75;1.0;0.25;0.5;2.5;1.5;1.5;0.75;0.5;1.25;0.5;0.5;-0.251465;0.033203;0.972656;-0.7;-0.84;0.7;303.0;-0.109315;-0.018342
3.37;9.5;6.25;6.25;3.5;1.0;0.5;0.25;0.0;2.75;0.5;1.25;0.5;0.0;0.75;0.25;0.5;-0.222168;0.024414;0.980957;-0.7;0.56;0.56;389.0;-0.213549;0.016943;4.75;4.0;3.25;2.75;0.75;1.0;0.25;0.5;2.75;1.5;1.5;1.0;0.5;1.0;0.5;0.5;-0.25293;0.031738;0.96875;-0.7;-0.91;0.7;308.0;-0.106213;-0.016639
3.38;9.5;6.25;6.25;4.0;1.0;0.5;0.25;0.0;2.75;0.5;1.0;0.5;0.0;0.75;0.25;0.5;-0.225098;0.020996;0.983887;-0.84;0.56;0.56;392.0;-0.21789;0.014212;4.75;4.25;3.25;3.0;0.75;1.0;0.25;0.5;2.25;1.5;1.25;1.25;0.5;0.75;0.75;0.5;-0.252441;0.029785;0.970703;-0.77;-0.98;0.63;307.0;-0.118255;-0.030467
3.39;9.5;6.25;6.25;4.0;1.0;0.5;0.25;0.0;2.75;0.5;1.25;0.25;0.0;1.0;0.25;0.5;-0.224609;0.023438;0.983887;-0.77;0.63;0.56;394.0;-0.214076;0.016499;4.75;4.5;3.5;3.0;0.5;1.0;0.25;0.5;2.25;1.5;1.25;0.75;0.25;1.0;0.75;0.5;-0.255859;0.030273;0.970703;-0.7;-0.98;0.7;304.0;-0.126521;-0.021323
3.4;9.25;6.5;6.75;3.75;1.0;0.5;0.25;0.0;2.5;0.5;1.25;0.25;0.0;1.25;0.25;0.5;-0.227051;0.022461;0.983887;-0.84;0.77;0.56;396.0;-0.214825;0.016241;4.75;4.5;3.5;3.0;0.5;1.0;0.25;0.5;2.5;1.5;1.25;0.75;0.5;1.0;0.5;0.5;-0.260742;0.030762;0.967773;-0.7;-0.98;0.7;307.0;-0.124775;-0.020687
3.41;9.75;6.75;6.25;3.75;1.0;0.25;0.25;0.0;2.0;0.75;1.0;0.75;0.0;1.25;0.25;0.5;-0.220703;0.020508;0.984375;-0.7;0.42;0.56;393.0;-0.220793;0.009497;4.75;4.25;3.5;3.0;0.5;1.0;0.25;0.5;2.25;1.5;1.0;0.75;0.5;0.75;0.5;0.5;-0.255371;0.035156;0.974609;-0.7;-0.84;0.7;295.0;-0.134522;-0.023656
3.42;9.25;6.25;6.25;3.75;1.0;0.5;0.25;0.0;2.5;0.75;1.0;0.75;0.0;1.25;0.25;0.25;-0.221191;0.020508;0.982422;-0.7;0.56;0.49;391.0;-0.208586;0.01424;4.75;4.25;3.25;2.75;0.75;1.0;0.25;0.5;2.5;1.5;1.0;0.75;0.5;0.75;0.75;0.5;-0.255371;0.027344;0.975586;-0.7;-0.98;0.63;299.0;-0.121672;-0.018929
3.43;9.0;6.5;6.25;3.75;0.75;0.5;0.25;0.0;2.75;0.75;1.0;0.5;0.0;1.25;0.25;0.25;-0.21875;0.019043;0.983398;-0.7;0.49;0.56;389.0;-0.207978;0.016711;4.75;4.5;3.5;2.75;0.5;1.0;0.25;0.5;2.5;1.5;1.25;1.0;0.5;1.0;0.25;0.5;-0.253418;0.036133;0.973633;-0.77;-0.91;0.63;304.0;-0.125031;-0.020702
3.44;9.25;6.75;6.25;3.75;1.0;0.5;0.25;0.0;2.75;0.75;1.0;0.5;0.0;0.75;0.5;0.25;-0.228027;0.017578;0.98584;-0.7;0.7;0.56;395.0;-0.212904;0.013935;4.5;4.5;3.25;2.75;0.5;0.75;0.25;0.5;2.5;1.5;1.25;0.5;0.5;1.25;0.25;0.25;-0.254395;0.031738;0.96875;-0.84;-1.05;0.63;290.0;-0.125364;-0.011978
3.45;9.75;6.75;6.25;3.75;1.0;0.5;0.25;0.0;2.5;0.75;1.0;0.75;0.0;0.75;0.5;0.25;-0.226074;0.019531;0.98291;-0.7;0.56;0.63;400.0;-0.216752;0.010719;4.75;4.5;3.25;2.5;0.5;1.0;0.25;0.5;2.25;1.5;1.25;0.5;0.5;1.5;0.25;0.25;-0.25293;0.034668;0.972656;-0.91;-1.05;0.7;291.0;-0.127067;-0.01328
3.46;9.5;6.75;6.25;3.75;1.0;0.5;0.25;0.0;2.25;0.75;1.25;0.5;0.0;0.75;0.25;0.5;-0.225586;0.017578;0.985352;-0.77;0.49;0.56;392.0;-0.222002;0.008392;4.75;4.5;3.5;2.75;0.5;1.0;0.25;0.5;2.5;1.5;1.25;0.75;0.5;1.0;0.25;0.25;-0.254395;0.031738;0.975586;-0.84;-0.98;0.7;299.0;-0.130646;-0.016602
3.47;9.75;6.5;6.25;4.0;1.0;0.5;0.25;0.0;2.75;0.75;1.25;0.5;0.0;0.75;0.25;0.5;-0.227051;0.021484;0.983887;-0.7;0.56;0.56;403.0;-0.214051;0.013176;4.75;4.5;3.5;2.75;0.5;1.0;0.25;0.5;2.5;1.5;1.5;0.75;0.5;1.0;0.5;0.25;-0.255859;0.03418;0.974609;-0.91;-0.98;0.7;305.0;-0.122241;-0.01815
3.48;9.5;6.75;6.25;4.0;1.0;0.5;0.25;0.0;2.25;0.75;1.25;0.25;0.0;0.75;0.25;0.5;-0.225586;0.023926;0.984375;-0.77;0.63;0.56;392.0;-0.225667;0.008845;4.5;4.5;3.5;3.0;0.75;1.0;0.25;0.5;2.5;1.5;1.25;0.75;0.5;1.0;0.25;0.5;-0.256348;0.029785;0.972168;-0.91;-0.98;0.63;304.0;-0.12721;-0.020503
3.49;9.75;7.25;6.75;4.0;1.25;0.5;0.25;0.0;2.25;0.75;1.25;0.25;0.0;0.75;0.25;0.5;-0.219727;0.019531;0.980469;-0.77;0.56;0.63;409.0;-0.229104;0.008965;5.0;4.25;3.5;3.0;0.75;1.0;0.25;0.5;2.25;1.5;1.25;0.75;0.5;1.0;0.25;0.25;-0.255371;0.031738;0.967285;-0.98;-0.91;0.7;302.0;-0.136901;-0.018918
3.5;9.75;7.0;6.75;4.0;1.0;0.5;0.25;0.0;2.25;0.75;1.0;0.25;0.0;0.75;0.25;0.5;-0.223145;0.023926;0.984375;-0.77;0.49;0.56;401.0;-0.231947;0.010563;5.25;4.25;3.5;3.0;1.0;1.0;0.25;0.5;2.5;1.25;1.5;0.75;0.5;1.25;0.5;0.25;-0.25;0.028809;0.976074;-0.91;-0.98;0.7;317.0;-0.125876;-0.014452
3.51;9.25;7.0;6.75;4.0;1.0;0.5;0.25;0.0;2.25;0.75;1.25;0.25;0.0;1.0;0.25;0.5;-0.228516;0.020508;0.98584;-0.91;0.42;0.63;401.0;-0.222522;0.00924;4.75;4.5;3.5;3.25;0.75;1.0;0.25;0.5;2.25;1.25;1.25;0.75;0.25;1.25;0.5;0.5;-0.254883;0.033691;0.975098;-0.91;-0.98;0.7;306.0;-0.132406;-0.021219
3.52;9.75;7.25;6.75;4.25;1.0;0.5;0.25;0.0;2.25;0.75;1.0;0.25;0.0;0.75;0.25;0.5;-0.223145;0.020508;0.980469;-0.77;0.49;0.7;407.0;-0.233502;0.007732;4.75;4.5;3.5;3.0;0.75;1.0;0.25;0.5;2.25;1.0;1.25;0.75;0.25;1.25;0.75;0.5;-0.256348;0.032715;0.981445;-0.98;-0.91;0.63;303.0;-0.129261;-0.020579
3.53;10.25;7.25;6.75;4.0;1.0;0.5;0.25;0.0;2.25;0.5;1.0;0.5;0.0;0.75;0.25;0.25;-0.225586;0.021484;0.979492;-0.77;0.42;0.7;408.0;-0.237794;0.009476;5.25;4.5;3.5;3.0;0.5;0.75;0.25;0.5;2.5;1.0;1.0;0.75;0.5;1.0;0.5;0.5;-0.250977;0.032715;0.967773;-0.98;-1.05;0.77;301.0;-0.139983;-0.016448
3.54;9.75;7.0;6.75;4.0;1.0;0.25;0.25;0.0;2.25;0.5;1.0;0.25;0.25;0.75;0.25;0.25;-0.226562;0.022949;0.982422;-0.77;0.49;0.7;396.0;-0.235765;0.010715;4.75;4.25;3.25;2.75;0.5;1.0;0.25;0.25;2.25;1.0;1.25;1.0;0.5;1.0;0.5;0.5;-0.253418;0.026855;0.973633;-0.91;-0.91;0.56;287.0;-0.129277;-0.021175
3.55;9.5;7.0;6.75;4.0;1.0;0.25;0.25;0.0;2.25;0.75;1.0;0.25;0.0;1.0;0.5;0.25;-0.227051;0.021973;0.986816;-0.77;0.56;0.7;399.0;-0.22518;0.01349;4.75;4.5;3.25;2.75;0.75;0.75;0.25;0.25;2.25;1.5;1.25;0.75;0.5;1.25;0.5;0.25;-0.252441;0.032227;0.979492;-0.98;-0.98;0.7;294.0;-0.125812;-0.011636
3.56;9.75;7.0;6.75;4.0;1.0;0.25;0.25;0.0;2.25;0.5;1.0;0.5;0.0;1.25;0.5;0.25;-0.227051;0.019531;0.97998;-0.7;0.56;0.7;404.0;-0.222943;0.01254;4.75;4.5;3.25;3.0;0.75;1.0;0.25;0.25;2.5;1.5;1.5;0.75;0.5;1.25;0.75;0.25;-0.255371;0.035645;0.972168;-0.91;-1.12;0.7;309.0;-0.115005;-0.014531
3.57;9.75;7.0;6.25;4.0;1.0;0.25;0.25;0.0;2.0;0.5;1.0;0.25;0.0;0.75;0.5;0.5;-0.219238;0.022461;0.981445;-0.7;0.49;0.56;388.0;-0.235264;0.007995;5.0;4.25;3.5;3.0;0.75;1.0;0.25;0.5;2.5;1.0;1.25;0.75;0.5;1.25;0.5;0.25;-0.255371;0.025391;0.975098;-0.91;-1.05;0.7;305.0;-0.130023;-0.016121
3.58;9.75;7.0;6.25;4.0;1.0;0.25;0.25;0.0;2.25;0.75;1.0;0.25;0.0;0.5;0.25;0.5;-0.21875;0.02002;0.980957;-0.7;0.56;0.63;390.0;-0.23587;0.010499;4.75;4.5;3.5;3.0;0.75;1.0;0.25;0.25;2.5;1.25;1.25;0.75;0.5;1.25;0.5;0.25;-0.254395;0.026367;0.971191;-0.98;-0.98;0.63;303.0;-0.128;-0.012628
3.59;9.75;7.0;6.25;4.0;1.0;0.25;0.25;0.0;2.25;0.75;1.0;0.5;0.0;0.75;0.25;0.25;-0.223633;0.017578;0.985352;-0.63;0.56;0.56;393.0;-0.23103;0.010462;5.25;4.75;3.5;3.0;0.75;1.0;0.25;0.25;2.25;1.5;1.25;0.75;0.5;1.25;0.5;0.25;-0.256348;0.027344;0.972656;-1.05;-1.12;0.7;311.0;-0.136404;-0.014262
3.6;9.75;7.0;6.75;4.0;1.0;0.5;0.25;0.0;2.25;0.5;0.25;0.25;0.0;0.5;0.25;0.25;-0.226074;0.021973;0.984863;-0.63;0.42;0.56;386.0;-0.251761;0.013221;5.0;4.5;3.5;3.0;0.5;1.0;0.25;0.25;2.25;1.5;1.25;0.75;0.5;1.0;0.5;0.5;-0.254883;0.026855;0.970215;-1.05;-1.05;0.77;302.0;-0.133458;-0.017848
3.61;10.0;7.25;7.0;4.0;1.0;0.5;0.25;0.0;2.25;0.5;0.5;0.25;0.0;0.75;0.25;0.25;-0.224609;0.018066;0.985352;-0.7;0.56;0.56;399.0;-0.246698;0.01338;5.0;4.5;3.75;3.0;0.75;0.75;0.25;0.25;2.25;1.25;1.25;0.75;0.25;1.0;0.5;0.5;-0.256348;0.027344;0.971191;-0.98;-1.05;0.77;300.0;-0.140463;-0.010719
3.62;9.75;7.0;6.75;4.0;1.0;0.5;0.25;0.0;2.0;0.5;0.75;0.25;0.0;0.75;0.25;0.25;-0.226562;0.025879;0.985352;-0.7;0.63;0.56;390.0;-0.245466;0.009915;5.0;4.75;3.5;3.0;0.75;1.0;0.25;0.25;2.5;1.0;1.25;0.75;0.25;1.0;0.75;0.25;-0.252441;0.029297;0.973633;-0.98;-1.12;0.7;304.0;-0.137778;-0.012117
3.63;9.5;7.25;6.75;4.0;1.0;0.5;0.25;0.0;2.0;0.5;1.0;0.5;0.0;0.5;0.25;0.25;-0.217285;0.022949;0.98291;-0.63;0.63;0.49;393.0;-0.242553;0.00393;4.75;4.75;3.5;2.75;0.5;1.0;0.25;0.25;2.5;1.25;1.0;0.5;0.25;1.25;0.5;0.25;-0.256348;0.029297;0.968262;-1.05;-1.05;0.63;292.0;-0.138075;-0.005102
3.64;9.5;7.25;6.75;4.0;1.0;0.5;0.25;0.0;2.0;0.5;1.0;0.5;0.0;0.5;0.25;0.25;-0.220215;0.019043;0.984375;-0.56;0.63;0.63;393.0;-0.242553;0.00393;4.75;4.75;3.5;3.0;0.75;1.0;0.25;0.25;2.5;1.25;1.25;0.5;0.5;1.25;0.5;0.25;-0.251953;0.029297;0.972656;-0.84;-1.05;0.7;303.0;-0.133601;-0.011211
3.65;9.75;7.0;6.25;4.0;1.0;0.5;0.25;0.0;2.0;0.5;0.75;0.5;0.0;0.75;0.25;0.25;-0.217285;0.023438;0.986816;-0.63;0.63;0.63;387.0;-0.241766;0.006388;4.75;4.5;3.0;3.0;0.75;1.0;0.25;0.25;2.5;1.25;1.25;0.5;0.25;1.25;0.5;0.5;-0.258301;0.032227;0.976074;-0.91;-0.98;0.63;294.0;-0.128369;-0.009882
3.66;9.75;7.0;7.0;4.0;1.0;0.5;0.25;0.0;2.0;0.5;0.75;0.25;0.0;0.75;0.5;0.25;-0.223633;0.016113;0.984863;-0.7;0.7;0.56;396.0;-0.240895;0.00986;5.25;4.75;3.5;3.25;0.75;0.75;0.25;0.5;2.75;1.5;1.25;0.75;0.25;1.0;0.5;0.25;-0.258789;0.029785;0.975098;-0.91;-0.98;0.7;318.0;-0.13349;-0.010363
3.67;9.75;7.5;6.75;4.0;1.0;0.25;0.25;0.0;2.0;0.5;0.75;0.25;0.0;0.25;0.25;0.25;-0.224609;0.021484;0.990234;-0.63;0.49;0.56;388.0;-0.256286;0.007787;5.5;4.75;3.75;3.5;1.0;0.75;0.25;0.25;2.5;1.5;1.5;0.5;0.5;1.0;0.5;0.25;-0.253906;0.03125;0.972656;-0.98;-1.12;0.84;324.0;-0.141967;-0.009617
3.68;10.25;7.5;6.75;4.0;1.0;0.25;0.25;0.0;2.0;0.25;1.0;0.5;0.0;0.5;0.25;0.25;-0.220215;0.017578;0.983887;-0.63;0.63;0.56;399.0;-0.251195;0.006728;5.5;4.75;3.5;3.0;0.75;0.75;0.25;0.25;2.25;1.25;1.0;0.5;0.25;1.0;0.5;0.25;-0.258301;0.025391;0.966797;-0.98;-0.98;0.7;297.0;-0.155919;-0.005503
3.69;10.0;7.5;6.75;4.0;1.0;0.5;0.25;0.0;2.0;0.25;1.0;0.25;0.0;0.75;0.25;0.25;-0.223633;0.01709;0.982422;-0.7;0.56;0.63;398.0;-0.248837;0.007101;5.25;5.0;3.5;3.0;0.75;1.0;0.25;0.25;2.25;1.5;1.0;0.75;0.25;1.0;0.5;0.25;-0.25293;0.025391;0.972656;-0.91;-1.12;0.77;306.0;-0.148624;-0.012576
3.7;10.0;7.5;6.75;4.0;1.0;0.5;0.25;0.0;2.25;0.5;1.0;0.25;0.0;0.25;0.25;0.25;-0.225586;0.020996;0.985352;-0.63;0.56;0.56;400.0;-0.24852;0.007913;5.25;5.0;3.5;3.0;0.75;0.75;0.25;0.25;2.25;1.0;1.0;0.75;0.5;1.0;0.5;0.25;-0.250488;0.031738;0.971191;-0.84;-0.98;0.63;300.0;-0.153472;-0.014972
3.71;10.0;7.5;6.75;4.0;1.0;0.5;0.25;0.0;1.75;0.5;1.0;0.25;0.0;0.25;0.25;0.25;-0.222168;0.01709;0.984375;-0.63;0.63;0.56;393.0;-0.257714;0.003062;5.25;4.75;3.5;3.0;0.75;0.75;0.25;0.25;2.25;1.25;1.25;0.75;0.25;1.0;0.5;0.5;-0.25293;0.030762;0.968262;-0.98;-0.98;0.7;302.0;-0.143968;-0.011905
3.72;10.25;7.0;6.75;4.25;1.0;0.5;0.25;0.0;1.75;0.5;1.25;0.25;0.0;0.25;0.25;0.25;-0.229492;0.021484;0.97998;-0.56;0.7;0.56;396.0;-0.253469;0.003387;5.75;4.75;3.75;3.0;0.75;0.75;0.25;0.25;2.5;1.25;1.25;0.75;0.25;1.0;0.5;0.5;-0.254395;0.037109;0.975586;-0.91;-1.05;0.7;314.0;-0.145261;-0.005488
3.73;10.25;7.25;6.75;4.25;1.0;0.5;0.25;0.0;2.0;0.5;1.25;0.25;0.0;0.25;0.5;0.25;-0.226074;0.022949;0.980957;-0.7;0.63;0.56;405.0;-0.245312;0.004118;5.5;4.75;3.75;3.0;0.75;1.0;0.25;0.25;2.5;1.25;1.0;0.75;0.25;0.75;0.5;0.25;-0.258301;0.03125;0.977051;-0.77;-1.05;0.77;308.0;-0.153052;-0.007998
3.74;10.0;7.0;6.25;4.25;1.0;0.5;0.25;0.0;1.75;0.5;1.0;0.25;0.0;0.5;0.25;0.25;-0.225098;0.019531;0.98291;-0.7;0.56;0.56;387.0;-0.251732;0.003189;5.5;4.75;3.75;3.0;0.75;1.0;0.25;0.25;2.25;1.0;1.0;0.75;0.25;1.0;0.5;0.5;-0.246094;0.02832;0.974121;-0.84;-1.05;0.7;305.0;-0.154721;-0.01205
3.75;9.75;7.25;6.25;4.0;0.75;0.25;0.25;0.0;1.75;0.25;0.5;0.5;0.0;0.5;0.25;0.25;-0.227539;0.02002;0.988281;-0.63;0.7;0.63;372.0;-0.260757;0.003864;5.75;5.0;4.0;3.5;0.75;1.0;0.25;0.25;2.25;1.0;1.25;0.75;0.25;1.0;0.5;0.5;-0.257812;0.03125;0.969238;-0.77;-0.98;0.7;322.0;-0.159093;-0.016116
3.76;9.75;7.0;6.25;4.0;1.0;0.25;0.25;0.0;2.0;0.25;0.75;0.25;0.0;0.75;0.25;0.25;-0.227051;0.019531;0.984375;-0.56;0.56;0.49;378.0;-0.249526;0.010454;6.0;5.25;3.75;3.25;0.75;1.0;0.25;0.25;2.25;1.0;1.25;0.75;0.5;1.0;0.5;0.25;-0.254883;0.032715;0.96582;-0.84;-0.98;0.63;322.0;-0.161034;-0.017134
3.77;9.75;7.5;6.75;4.0;1.0;0.25;0.25;0.0;1.75;0.25;0.5;0.5;0.0;0.75;0.25;0.25;-0.227051;0.018066;0.981445;-0.63;0.56;0.56;386.0;-0.256747;0.005597;6.0;5.25;3.75;3.25;0.75;1.0;0.25;0.25;2.5;1.25;1.0;0.75;0.25;1.25;0.5;0.25;-0.25293;0.028809;0.974121;-0.84;-0.98;0.63;326.0;-0.154651;-0.007764
3.78;9.75;7.5;6.25;4.0;1.0;0.25;0.25;0.0;1.75;0.25;1.25;0.25;0.0;0.75;0.25;0.25;-0.222168;0.021973;0.98877;-0.56;0.42;0.63;386.0;-0.24935;0.003823;6.0;5.25;4.0;3.5;0.5;1.0;0.25;0.25;2.25;1.25;0.75;0.75;0.25;1.25;0.5;0.5;-0.253418;0.032227;0.969238;-0.84;-0.91;0.7;324.0;-0.162738;-0.013057
3.79;9.75;7.25;6.25;4.0;1.0;0.5;0.25;0.0;1.75;0.5;1.0;0.25;0.0;0.5;0.25;0.25;-0.223633;0.023438;0.983398;-0.42;0.49;0.63;384.0;-0.251418;0.003079;5.75;5.0;3.75;3.75;0.75;1.0;0.25;0.25;2.5;1.0;1.25;0.75;0.25;0.75;0.5;0.25;-0.252441;0.028809;0.979492;-0.7;-1.05;0.63;322.0;-0.161178;-0.015861
3.8;9.75;7.0;6.25;4.0;1.0;0.25;0.25;0.0;2.0;0.5;0.75;0.5;0.0;0.5;0.25;0.25;-0.227051;0.020996;0.978516;-0.63;0.63;0.49;382.0;-0.246442;0.007522;5.75;5.25;3.75;3.25;0.75;1.0;0.25;0.25;2.25;1.0;1.0;0.75;0.25;0.75;0.5;0.25;-0.254883;0.031738;0.969727;-0.84;-0.98;0.7;312.0;-0.169146;-0.015467
3.81;10.25;7.25;6.25;4.0;0.75;0.25;0.25;0.0;1.75;0.25;0.75;0.5;0.0;0.75;0.0;0.25;-0.220215;0.022461;0.990723;-0.63;0.63;0.56;380.0;-0.260146;0.006238;6.0;5.25;3.75;3.0;1.0;1.0;0.25;0.25;2.0;1.5;1.25;0.75;0.5;0.75;0.5;0.5;-0.256836;0.028809;0.974609;-0.84;-0.98;0.63;324.0;-0.15882;-0.019034
3.82;10.0;7.0;6.25;4.0;0.75;0.25;0.25;0.0;1.75;0.25;0.75;0.5;0.0;0.75;0.25;0.25;-0.227539;0.022949;0.98291;-0.63;0.49;0.56;378.0;-0.252958;0.005948;6.0;5.25;3.75;3.25;0.75;1.0;0.25;0.25;2.25;1.25;1.25;0.75;0.5;0.75;0.5;0.5;-0.254395;0.03125;0.975098;-0.77;-1.05;0.7;324.0;-0.159241;-0.019172
3.83;9.75;7.5;6.75;4.0;1.0;0.5;0.25;0.0;1.75;0.5;1.0;0.25;0.0;0.5;0.25;0.25;-0.227539;0.025879;0.986328;-0.56;0.56;0.49;392.0;-0.252698;0.003332;5.75;5.25;3.75;3.5;0.75;1.25;0.25;0.25;2.25;1.25;1.25;0.5;0.25;1.0;0.75;0.5;-0.251953;0.029785;0.973145;-0.7;-0.91;0.7;327.0;-0.15483;-0.018007
3.84;9.75;7.5;6.75;4.0;1.0;0.5;0.25;0.0;2.0;0.25;0.25;0.25;0.0;0.5;0.25;0.25;-0.22168;0.022461;0.982422;-0.63;0.42;0.63;384.0;-0.262289;0.008066;5.75;5.25;4.0;3.5;0.75;1.0;0.25;0.25;2.0;1.0;0.75;0.5;0.25;1.0;0.5;0.5;-0.254883;0.030762;0.974609;-0.77;-0.98;0.63;313.0;-0.17636;-0.016244
3.85;10.0;7.5;6.25;4.0;1.0;0.5;0.25;0.0;2.0;0.25;0.25;0.5;0.0;0.5;0.25;0.25;-0.217773;0.02002;0.986328;-0.49;0.56;0.49;384.0;-0.25974;0.005238;5.75;5.0;3.75;3.25;0.75;1.0;0.25;0.25;2.0;1.0;0.75;0.5;0.25;1.0;0.5;0.5;-0.254395;0.030273;0.977051;-0.77;-0.98;0.7;304.0;-0.172377;-0.014003
3.86;10.25;7.5;6.75;4.0;1.0;0.25;0.25;0.0;2.0;0.25;0.5;0.5;0.0;0.25;0.25;0.0;-0.227051;0.019531;0.978027;-0.63;0.49;0.56;389.0;-0.264499;0.00873;6.0;4.75;3.75;3.25;0.75;1.0;0.25;0.25;2.0;1.0;1.0;0.5;0.25;1.0;0.25;0.5;-0.254883;0.032227;0.96875;-0.84;-0.98;0.7;304.0;-0.174221;-0.011916
3.87;9.75;7.5;6.75;4.0;1.0;0.5;0.25;0.0;2.0;0.5;1.0;0.5;0.0;0.5;0.25;0.0;-0.225586;0.015625;0.983398;-0.63;0.42;0.63;397.0;-0.247051;0.004783;6.0;5.25;4.0;3.25;1.0;1.0;0.25;0.25;2.25;1.0;0.75;0.5;0.5;1.0;0.25;0.5;-0.254883;0.03125;0.970215;-0.84;-0.84;0.77;318.0;-0.174688;-0.011874
3.88;9.5;7.25;6.75;4.0;1.0;0.5;0.25;0.25;2.0;0.25;0.75;0.5;0.0;0.75;0.0;0.25;-0.222168;0.01709;0.980957;-0.63;0.42;0.56;391.0;-0.247912;0.001822;5.75;5.5;3.75;3.25;0.75;1.0;0.25;0.25;2.25;1.0;0.75;0.5;0.25;1.0;0.25;0.25;-0.249512;0.030273;0.966797;-0.84;-0.91;0.63;308.0;-0.17935;-0.011072
3.89;10.0;7.75;6.25;4.0;0.75;0.5;0.25;0.25;2.0;0.25;0.75;0.5;0.0;0.25;0.25;0.25;-0.222656;0.026367;0.985352;-0.7;0.42;0.56;391.0;-0.256037;-0.003317;6.0;4.75;3.75;3.25;0.5;1.0;0.25;0.25;2.0;1.0;0.75;0.5;0.25;1.25;0.25;0.25;-0.255859;0.029785;0.971191;-0.77;-0.91;0.63;299.0;-0.17663;-0.008693
3.9;9.75;7.5;6.75;4.0;1.0;0.5;0.25;0.25;2.0;0.25;0.75;0.25;0.0;0.25;0.25;0.25;-0.220703;0.019531;0.982422;-0.42;0.49;0.56;392.0;-0.256507;0.001006;6.0;4.75;3.75;3.25;0.5;1.0;0.25;0.25;2.25;1.0;1.0;0.75;0.5;0.75;0.25;0.5;-0.249512;0.029297;0.964355;-0.84;-0.91;0.63;308.0;-0.167906;-0.016833
3.91;9.75;7.0;6.75;4.0;1.0;0.5;0.25;0.0;2.0;0.25;0.75;0.25;0.0;0.75;0.25;0.25;-0.219727;0.019531;0.983887;-0.63;0.49;0.56;387.0;-0.24903;0.009519;6.0;5.25;4.0;3.5;0.75;1.0;0.25;0.25;2.0;1.25;1.0;0.5;0.25;0.5;0.5;0.5;-0.253906;0.030762;0.97168;-0.84;-0.91;0.63;316.0;-0.17965;-0.018152
3.92;10.0;7.25;6.75;4.25;1.0;0.5;0.25;0.0;2.0;0.5;0.75;0.25;0.0;0.25;0.25;0.25;-0.223145;0.020508;0.979492;-0.7;0.63;0.56;394.0;-0.255769;0.005736;5.75;5.0;3.75;3.5;1.0;1.0;0.25;0.25;1.75;1.25;1.25;0.5;0.25;0.75;0.5;0.5;-0.248535;0.035156;0.969727;-0.91;-0.91;0.7;313.0;-0.171237;-0.021179
3.93;10.25;7.25;6.25;4.25;1.0;0.5;0.25;0.0;2.0;0.25;0.25;0.25;0.0;0.25;0.25;0.25;-0.226074;0.020996;0.990723;-0.63;0.56;0.7;382.0;-0.267606;0.006554;6.0;5.25;3.75;3.0;1.0;1.0;0.25;0.25;2.0;1.25;0.75;0.5;0.5;0.75;0.5;0.5;-0.257324;0.029785;0.972168;-0.91;-0.91;0.63;312.0;-0.172896;-0.015459
3.94;9.5;7.5;6.75;4.0;1.0;0.5;0.25;0.0;2.0;0.5;0.25;0.5;0.0;0.5;0.25;0.25;-0.222168;0.016602;0.985352;-0.7;0.63;0.63;387.0;-0.254063;0.005478;6.0;5.25;3.75;3.5;1.0;1.0;0.25;0.25;2.25;1.25;0.75;0.25;0.5;0.75;0.25;0.25;-0.247559;0.030273;0.974121;-0.77;-0.91;0.7;315.0;-0.181499;-0.011576
3.95;9.5;7.25;7.0;4.0;1.0;0.25;0.25;0.0;2.0;0.5;0.5;0.5;0.0;0.25;0.25;0.25;-0.229492;0.022461;0.982422;-0.56;0.63;0.56;385.0;-0.254329;0.007473;6.0;5.0;3.75;3.75;0.75;1.0;0.25;0.25;2.25;1.0;0.75;0.25;0.25;0.75;0.5;0.25;-0.254395;0.024414;0.969238;-0.84;-0.98;0.77;310.0;-0.182244;-0.011015
3.96;9.75;7.0;6.75;4.0;1.0;0.25;0.25;0.0;2.0;0.5;0.5;0.5;0.0;0.25;0.0;0.25;-0.220703;0.016602;0.983887;-0.63;0.49;0.63;380.0;-0.259268;0.0094;5.75;5.25;4.0;3.5;0.75;0.75;0.25;0.25;2.25;1.0;1.0;0.5;0.25;0.75;0.25;0.5;-0.25293;0.027832;0.974121;-0.77;-0.84;0.63;311.0;-0.177695;-0.012203
3.97;9.75;7.5;6.75;4.0;1.0;0.25;0.25;0.0;2.0;0.5;0.5;0.5;0.0;0.5;0.25;0.5;-0.220215;0.022949;0.987793;-0.63;0.63;0.56;392.0;-0.250084;0.006246;6.0;5.0;3.75;3.0;0.75;1.0;0.25;0.25;2.25;1.0;1.0;0.5;0.25;0.75;0.5;0.5;-0.250488;0.029785;0.975586;-0.84;-0.84;0.63;308.0;-0.169108;-0.009863
3.98;10.0;7.5;6.75;4.0;1.0;0.25;0.25;0.0;1.75;0.5;0.5;0.5;0.0;0.75;0.25;0.25;-0.226074;0.022949;0.984375;-0.7;0.49;0.56;392.0;-0.254198;0.006766;5.75;5.0;3.5;3.25;1.0;1.0;0.25;0.25;2.0;1.0;1.0;0.5;0.25;0.75;0.25;0.5;-0.251465;0.034668;0.973145;-0.84;-0.98;0.7;302.0;-0.177204;-0.016091
3.99;10.0;7.5;6.25;4.0;1.0;0.5;0.25;0.0;2.0;0.75;0.75;0.5;0.0;0.25;0.25;0.25;-0.223145;0.018066;0.986328;-0.7;0.63;0.7;393.0;-0.249412;0.003306;6.0;5.0;3.75;3.25;0.75;1.0;0.25;0.25;2.0;1.25;0.75;0.5;0.25;0.5;0.25;0.5;-0.25;0.033691;0.969238;-0.84;-0.98;0.7;302.0;-0.185147;-0.014418
4.0;9.75;7.25;6.25;4.0;0.75;0.25;0.25;0.0;2.0;0.25;0.75;0.5;0.0;0.25;0.25;0.25;-0.223145;0.018555;0.984375;-0.63;0.56;0.56;376.0;-0.256295;0.004452;6.0;5.25;3.75;3.25;0.75;0.75;0.25;0.25;2.25;1.0;0.75;0.5;0.25;0.75;0.0;0.5;-0.257812;0.032227;0.974609;-0.7;-0.98;0.7;302.0;-0.187212;-0.008335
4.01;9.75;7.0;6.25;4.0;0.75;0.25;0.25;0.0;2.0;0.25;0.75;0.5;0.0;0.5;0.25;0.25;-0.220703;0.021973;0.980957;-0.56;0.49;0.63;376.0;-0.25109;0.006666;6.0;4.75;3.75;3.25;0.75;1.0;0.25;0.25;2.25;1.0;1.0;0.75;0.25;1.0;0.25;0.5;-0.255859;0.033203;0.973633;-0.91;-0.98;0.77;311.0;-0.165714;-0.011255
4.02;10.0;7.5;6.75;4.25;1.0;0.25;0.25;0.0;2.0;0.25;0.75;0.5;0.0;0.25;0.25;0.25;-0.224121;0.013184;0.987305;-0.7;0.56;0.56;394.0;-0.257761;0.004112;6.0;5.25;3.75;3.25;0.75;1.0;0.25;0.25;2.0;1.25;1.25;0.75;0.25;0.25;0.5;0.5;-0.252441;0.029297;0.96875;-0.91;-0.98;0.7;314.0;-0.174903;-0.02211
4.03;9.75;7.5;6.25;4.25;1.0;0.25;0.25;0.0;2.0;0.5;1.0;0.5;0.0;0.25;0.25;0.25;-0.220703;0.021484;0.979492;-0.63;0.63;0.56;390.0;-0.249414;0.001578;6.0;5.5;3.75;3.5;0.75;1.0;0.25;0.25;2.25;1.25;1.25;0.5;0.5;0.25;0.5;0.5;-0.258789;0.032715;0.971191;-0.91;-0.98;0.63;322.0;-0.173971;-0.022596
4.04;10.0;7.5;6.25;4.25;1.0;0.5;0.25;0.0;2.0;0.5;0.75;0.5;0.0;0.25;0.25;0.25;-0.22998;0.023926;0.977051;-0.56;0.56;0.56;393.0;-0.253243;0.001129;6.0;5.25;4.0;3.25;0.75;1.0;0.25;0.25;2.25;1.25;0.75;0.5;0.5;0.25;0.25;0.25;-0.254395;0.028809;0.974609;-0.84;-0.98;0.77;310.0;-0.187116;-0.014706
4.05;10.25;7.5;6.75;4.0;1.0;0.25;0.25;0.0;2.25;0.5;1.25;0.5;0.0;0.75;0.25;0.25;-0.225586;0.022461;0.986328;-0.56;0.49;0.56;410.0;-0.236281;0.00957;6.0;5.5;4.0;3.25;0.75;1.0;0.25;0.25;2.25;1.25;0.75;0.5;0.5;0.25;0.25;0.25;-0.25293;0.026855;0.972656;-0.84;-0.98;0.63;312.0;-0.188968;-0.015928
4.06;10.0;7.5;6.75;4.0;0.75;0.25;0.25;0.0;1.75;0.25;1.25;0.5;0.0;0.75;0.5;0.5;-0.22998;0.018555;0.980469;-0.63;0.35;0.63;399.0;-0.241321;0.001479;6.0;5.25;3.75;3.25;0.75;1.0;0.25;0.25;2.25;1.5;0.75;0.5;0.5;0.25;0.25;0.25;-0.255371;0.030762;0.970703;-0.77;-0.98;0.49;310.0;-0.182419;-0.015009
4.07;9.75;7.25;6.75;4.0;1.0;0.25;0.25;0.0;2.0;0.25;1.0;0.5;0.0;0.75;0.5;0.25;-0.227539;0.019043;0.979492;-0.56;0.56;0.56;396.0;-0.239297;0.006728;6.0;5.0;3.75;3.5;0.75;0.75;0.25;0.25;2.25;1.25;0.75;0.5;0.5;0.25;0.5;0.25;-0.253418;0.027832;0.969238;-0.77;-0.91;0.63;307.0;-0.180223;-0.014677
4.08;9.75;7.5;6.75;4.25;1.0;0.25;0.25;0.0;2.0;0.5;0.75;0.5;0.0;0.75;0.25;0.25;-0.228516;0.019531;0.983887;-0.56;0.63;0.56;398.0;-0.245357;0.005818;6.0;5.25;3.75;3.5;0.75;1.0;0.25;0.25;2.25;1.25;0.75;0.5;0.5;0.75;0.5;0.5;-0.254883;0.027832;0.973633;-0.77;-0.91;0.7;319.0;-0.170685;-0.016871
4.09;10.0;7.5;6.75;4.25;1.0;0.25;0.25;0.0;1.75;0.25;1.0;0.5;0.0;0.75;0.25;0.25;-0.225586;0.018066;0.98291;-0.63;0.56;0.7;398.0;-0.251078;0.002845;6.0;4.75;3.75;3.25;0.75;1.0;0.25;0.25;2.25;1.25;0.5;0.5;0.25;0.5;0.75;0.5;-0.257812;0.030273;0.969727;-0.77;-0.91;0.7;306.0;-0.170821;-0.010116
4.1;10.0;7.5;6.25;4.0;1.0;0.25;0.25;0.0;1.75;0.25;1.0;0.5;0.0;0.75;0.25;0.25;-0.223145;0.021484;0.982422;-0.56;0.56;0.56;388.0;-0.25057;0.003246;6.0;5.0;3.75;3.5;0.75;1.0;0.25;0.25;2.25;1.5;0.75;0.5;0.25;0.5;0.25;0.5;-0.253906;0.027344;0.974609;-0.77;-0.98;0.7;312.0;-0.177182;-0.012415
4.11;10.0;7.5;6.75;4.25;1.0;0.25;0.25;0.0;1.75;0.25;1.0;0.5;0.0;0.75;0.25;0.25;-0.221191;0.022461;0.987793;-0.7;0.63;0.56;398.0;-0.251078;0.002845;6.0;4.75;3.25;3.25;0.75;1.0;0.25;0.25;2.0;1.0;1.25;0.5;0.5;0.75;0.25;0.5;-0.257812;0.028809;0.969238;-0.77;-0.84;0.7;301.0;-0.170407;-0.019932
4.12;9.75;7.25;6.25;4.25;1.0;0.25;0.25;0.0;1.75;0.5;0.75;0.5;0.0;0.75;0.25;0.25;-0.223633;0.020508;0.990723;-0.63;0.42;0.49;386.0;-0.248569;0.003135;6.0;5.25;3.5;3.5;1.0;1.0;0.25;0.25;2.0;1.0;1.25;0.5;0.5;0.75;0.5;0.5;-0.251953;0.032715;0.972168;-0.84;-0.91;0.84;318.0;-0.17069;-0.022928
