Time;left pressure 1[N/cm²];left pressure 2[N/cm²];left pressure 3[N/cm²];left pressure 4[N/cm²];left pressure 5[N/cm²];left pressure 6[N/cm²];left pressure 7[N/cm²];left pressure 8[N/cm²];left pressure 9[N/cm²];left pressure 10[N/cm²];left pressure 11[N/cm²];left pressure 12[N/cm²];left pressure 13[N/cm²];left pressure 14[N/cm²];left pressure 15[N/cm²];left pressure 16[N/cm²];left acceleration X[g];left acceleration Y[g];left acceleration Z[g];left angular X[dps];left angular Y[dps];left angular Z[dps];left total force[N];left center of pressure X[-0.5...+0.5];left center of pressure Y[-0.5...+0.5];right pressure 1[N/cm²];right pressure 2[N/cm²];right pressure 3[N/cm²];right pressure 4[N/cm²];right pressure 5[N/cm²];right pressure 6[N/cm²];right pressure 7[N/cm²];right pressure 8[N/cm²];right pressure 9[N/cm²];right pressure 10[N/cm²];right pressure 11[N/cm²];right pressure 12[N/cm²];right pressure 13[N/cm²];right pressure 14[N/cm²];right pressure 15[N/cm²];right pressure 16[N/cm²];right acceleration X[g];right acceleration Y[g];right acceleration Z[g];right angular X[dps];right angular Y[dps];right angular Z[dps];right total force[N];right center of pressure X[-0.5...+0.5];right center of pressure Y[-0.5...+0.5]
0.0;8.75;7.5;6.25;5.0;1.25;0.75;0.25;0.25;2.25;0.5;0.75;0.75;0.25;1.75;0.25;0.25;-0.215332;0.02002;0.992676;-0.63;0.84;0.56;421.0;-0.213044;-0.00917;5.0;7.75;4.0;5.5;1.5;4.0;0.75;1.0;3.5;2.0;3.25;1.75;1.75;2.75;2.0;1.0;-0.253418;0.026367;0.97998;-0.77;-1.05;0.91;545.0;-0.073885;-0.063488
0.01;8.75;7.5;6.25;5.0;1.0;0.75;0.25;0.25;2.25;0.75;1.0;0.75;0.25;1.75;0.5;0.5;-0.22168;0.021973;0.983887;-0.7;0.91;0.49;428.0;-0.201575;-0.011434;5.0;7.75;4.0;5.5;1.5;4.0;0.75;1.0;3.5;2.0;3.25;1.75;1.75;2.75;2.0;1.0;-0.253418;0.026367;0.97998;-0.77;-1.05;0.91;545.0;-0.073885;-0.063488
0.02;8.75;7.5;6.25;5.0;1.0;0.5;0.25;0.25;1.75;0.75;1.0;0.5;0.25;1.75;0.5;0.5;-0.214355;0.021973;0.981445;-0.63;0.84;0.56;415.0;-0.21267;-0.01251;4.75;7.5;4.0;5.25;1.5;3.75;0.75;0.75;3.5;2.0;3.0;1.75;1.75;2.5;1.5;1.0;-0.260254;0.027344;0.978027;-0.91;-1.19;0.84;519.0;-0.078388;-0.059744
0.03;8.75;7.5;6.0;4.75;1.0;0.5;0.25;0.25;1.75;1.0;0.5;0.5;0.25;1.5;0.25;0.5;-0.224609;0.018066;0.984375;-0.7;0.91;0.49;401.0;-0.222808;-0.010284;4.5;7.75;4.25;5.75;1.5;4.25;0.75;1.0;3.5;2.0;3.0;2.25;1.75;2.5;1.5;1.0;-0.256836;0.025879;0.97168;-0.84;-0.98;0.84;543.0;-0.078885;-0.069482
0.04;8.75;7.5;6.0;5.0;1.0;0.5;0.25;0.25;2.0;0.5;0.5;0.5;0.25;1.5;0.25;0.25;-0.220215;0.02002;0.98584;-0.63;0.84;0.56;400.0;-0.227748;-0.009279;4.75;7.5;4.5;5.75;1.5;4.0;0.75;1.0;3.5;2.0;2.75;1.75;1.5;2.5;1.5;1.0;-0.253418;0.030762;0.972168;-0.77;-1.05;0.84;533.0;-0.08551;-0.061604
0.05;8.75;7.5;6.0;5.0;1.0;0.75;0.25;0.25;2.0;0.5;0.5;0.5;0.25;1.75;0.5;0.25;-0.216309;0.022461;0.984863;-0.56;0.91;0.56;409.0;-0.219101;-0.010647;4.75;7.75;4.0;5.5;1.25;3.75;0.75;1.0;3.5;2.0;2.75;1.75;1.5;2.5;1.25;1.0;-0.254395;0.030273;0.972656;-0.84;-1.12;0.91;517.0;-0.085949;-0.06233
0.06;8.75;7.5;6.0;5.0;1.0;0.75;0.25;0.25;2.25;0.25;0.75;0.5;0.0;1.75;0.25;0.25;-0.217773;0.020996;0.983398;-0.7;0.98;0.49;407.0;-0.221667;-0.00629;4.75;7.75;4.0;5.5;1.5;4.0;0.75;1.0;3.5;2.0;2.75;1.75;1.5;2.75;1.5;1.0;-0.257812;0.02832;0.974121;-0.77;-1.05;0.84;528.0;-0.081677;-0.061866
0.07;8.75;7.5;6.0;5.0;1.0;0.75;0.25;0.25;2.0;0.25;0.5;0.5;0.0;1.75;0.0;0.25;-0.221191;0.015625;0.989258;-0.7;0.91;0.49;398.0;-0.233724;-0.007479;4.75;7.75;4.0;5.75;1.5;4.0;0.75;1.0;3.5;2.0;3.0;1.75;1.75;3.0;1.5;1.0;-0.260254;0.033203;0.973145;-0.84;-1.12;0.77;539.0;-0.077962;-0.063775
0.08;8.5;7.5;6.0;5.0;1.0;0.5;0.25;0.25;2.0;0.25;0.5;0.5;0.0;1.75;0.25;0.25;-0.217285;0.021973;0.990723;-0.7;0.84;0.56;395.0;-0.228464;-0.006855;4.75;7.75;4.0;5.5;1.25;4.0;0.75;1.0;3.25;2.0;3.0;1.75;1.75;3.0;1.5;0.75;-0.253418;0.027832;0.96875;-0.77;-1.12;0.77;528.0;-0.079998;-0.065161
0.09;8.25;7.5;6.0;5.0;1.0;0.5;0.25;0.25;2.25;0.5;0.5;0.5;0.0;1.5;0.25;0.25;-0.21875;0.021484;0.98877;-0.7;0.84;0.49;396.0;-0.223228;-0.005717;4.75;7.25;4.0;5.5;1.25;3.75;0.75;1.0;3.5;1.75;3.25;1.75;1.75;2.75;2.0;0.75;-0.253418;0.027344;0.972168;-0.84;-1.12;0.91;527.0;-0.071019;-0.062944
0.1;8.25;7.5;6.25;5.0;1.0;0.75;0.25;0.25;2.0;0.5;0.75;0.5;0.0;1.25;0.0;0.25;-0.223145;0.018555;0.986816;-0.7;0.84;0.49;396.0;-0.232399;-0.010838;4.75;7.5;4.0;5.5;1.5;3.75;0.75;1.0;3.5;2.0;3.0;1.75;1.5;2.5;1.5;0.75;-0.257812;0.029785;0.974121;-0.84;-1.12;0.98;522.0;-0.081424;-0.060808
0.11;8.5;7.5;6.75;5.0;0.75;0.75;0.25;0.0;2.0;0.5;1.0;0.5;0.0;1.25;0.25;0.25;-0.217773;0.018555;0.991699;-0.63;0.91;0.49;404.0;-0.22937;-0.006343;4.75;7.75;4.0;5.5;1.5;4.0;0.75;1.0;3.25;2.0;2.75;1.5;1.5;2.5;1.5;1.0;-0.255859;0.026855;0.976562;-0.84;-1.12;0.91;520.0;-0.08782;-0.063954
0.12;8.75;7.0;6.25;5.0;1.0;0.5;0.25;0.0;2.0;0.25;0.5;0.5;0.25;1.5;0.25;0.25;-0.222656;0.017578;0.990723;-0.7;0.84;0.56;391.0;-0.231301;-0.002954;5.25;7.75;4.25;5.5;1.5;3.75;0.5;1.0;3.25;2.0;3.0;1.75;1.5;2.75;1.5;1.0;-0.256348;0.025391;0.970215;-0.77;-1.05;0.84;529.0;-0.087659;-0.062917
0.13;8.5;7.0;6.0;5.0;1.0;0.5;0.25;0.0;2.0;0.25;0.5;0.5;0.25;1.5;0.0;0.25;-0.222168;0.020996;0.983887;-0.56;0.84;0.56;383.0;-0.234543;-0.003923;5.25;7.75;4.25;5.25;1.5;3.75;0.75;1.0;3.5;2.0;2.75;1.75;1.5;2.75;2.0;1.0;-0.25293;0.027344;0.976074;-0.84;-1.19;0.91;537.0;-0.079344;-0.057346
0.14;8.75;7.25;5.75;5.0;0.5;0.5;0.25;0.25;2.0;0.25;0.5;0.5;0.25;1.5;0.25;0.25;-0.219238;0.025391;0.98877;-0.63;0.91;0.56;386.0;-0.231257;-0.010671;4.75;7.75;4.0;5.75;1.25;3.75;0.75;1.0;3.25;2.0;2.75;1.5;1.5;2.5;2.0;1.0;-0.258301;0.030762;0.975098;-0.84;-1.12;0.84;522.0;-0.082947;-0.064607
0.15;8.5;7.5;6.0;5.0;1.0;0.5;0.25;0.25;2.0;0.25;0.5;0.5;0.0;1.5;0.25;0.25;-0.221191;0.016602;0.989746;-0.63;0.84;0.42;392.0;-0.232257;-0.007947;4.75;7.75;4.0;5.5;1.5;3.75;0.75;1.0;3.25;2.0;2.75;1.75;1.5;2.75;2.0;1.0;-0.254883;0.032227;0.972168;-0.84;-1.19;0.84;528.0;-0.078253;-0.063176
0.16;8.75;7.0;6.0;4.75;1.0;0.5;0.25;0.25;2.25;0.25;0.5;0.5;0.0;1.75;0.25;0.25;-0.216309;0.019531;0.986816;-0.56;0.77;0.63;393.0;-0.222446;0.000243;4.75;7.5;4.0;5.75;1.5;3.75;0.75;1.0;3.25;1.75;2.75;1.75;1.5;3.0;1.75;1.0;-0.249023;0.025391;0.975098;-0.91;-1.19;0.91;525.0;-0.080033;-0.063125
0.17;8.75;7.5;6.25;4.75;1.0;0.5;0.25;0.25;2.0;0.25;0.5;0.5;0.25;1.5;0.25;0.25;-0.22168;0.016113;0.98877;-0.56;0.84;0.63;398.0;-0.230933;-0.007421;4.75;7.25;4.0;6.0;1.5;3.75;0.75;1.0;3.25;1.75;2.75;1.75;1.5;3.0;1.75;0.75;-0.25;0.029785;0.977051;-0.84;-1.05;0.77;524.0;-0.080846;-0.062847
0.18;8.25;7.5;6.25;5.0;1.0;0.5;0.25;0.25;2.0;0.25;0.5;0.5;0.0;1.5;0.0;0.25;-0.220215;0.019531;0.990234;-0.63;0.84;0.63;390.0;-0.235982;-0.007489;4.75;7.75;4.0;5.75;1.5;3.75;0.75;1.0;3.25;1.75;2.75;1.5;1.5;2.75;1.5;1.0;-0.252441;0.027832;0.973145;-0.91;-1.05;0.84;519.0;-0.088163;-0.063306
0.19;8.25;7.5;6.25;5.0;1.0;0.5;0.25;0.25;2.0;0.5;0.75;0.5;0.0;1.5;0.25;0.0;-0.221191;0.021973;0.98291;-0.63;0.98;0.56;397.0;-0.226817;-0.007155;4.75;7.75;4.0;5.5;1.25;3.75;0.75;1.0;3.5;1.75;3.0;1.75;1.75;2.5;2.0;0.75;-0.257812;0.02832;0.972168;-0.84;-1.05;0.84;527.0;-0.07807;-0.064704
0.2;8.5;7.25;6.0;5.0;1.25;0.5;0.25;0.25;2.0;0.5;0.5;0.5;0.0;1.5;0.25;0.0;-0.216797;0.017578;0.989258;-0.56;0.84;0.42;394.0;-0.229083;-0.004741;5.25;8.0;4.0;5.5;1.5;3.75;0.75;1.0;3.5;1.75;2.75;1.5;1.5;2.75;2.0;0.75;-0.256836;0.02832;0.974121;-0.91;-1.05;0.84;532.0;-0.085536;-0.05829
0.21;8.75;7.5;6.0;5.0;1.0;0.5;0.25;0.25;2.0;0.5;0.5;0.5;0.0;2.0;0.25;0.25;-0.217773;0.021973;0.985352;-0.63;0.77;0.49;403.0;-0.222687;-0.004478;4.75;7.25;4.0;5.5;1.5;3.5;0.75;1.0;3.5;1.75;2.75;1.75;1.5;2.75;1.5;0.75;-0.259766;0.02832;0.978027;-0.91;-0.98;0.77;513.0;-0.080628;-0.058366
0.22;8.5;7.5;6.25;5.0;1.0;0.5;0.25;0.25;2.0;0.5;0.5;0.5;0.0;1.75;0.25;0.25;-0.22168;0.02002;0.984863;-0.63;0.91;0.49;401.0;-0.225419;-0.005621;4.75;7.5;4.0;5.25;1.25;3.5;0.75;1.0;3.5;1.75;3.0;1.75;1.5;2.75;2.0;1.0;-0.255859;0.026855;0.976074;-0.77;-0.98;0.84;520.0;-0.072477;-0.059925
0.23;8.25;7.5;6.25;5.0;1.0;0.5;0.25;0.0;2.0;0.5;0.5;0.5;0.25;1.5;0.25;0.25;-0.219238;0.021484;0.988281;-0.56;0.84;0.56;394.0;-0.227795;-0.006169;4.75;8.0;4.0;5.5;1.5;3.75;0.75;1.0;3.25;2.0;2.75;1.5;1.5;2.75;1.5;0.75;-0.252441;0.025391;0.971191;-0.91;-1.05;0.84;520.0;-0.088086;-0.061465
0.24;8.75;7.5;6.25;5.0;1.0;0.5;0.25;0.0;2.25;0.5;0.5;0.5;0.0;1.5;0.25;0.25;-0.215332;0.024902;0.98291;-0.63;0.91;0.56;400.0;-0.228286;0.00064;5.0;7.75;4.0;5.5;1.25;3.75;0.75;1.0;3.25;2.0;3.0;1.25;1.75;2.5;1.5;0.75;-0.254883;0.027344;0.973145;-0.98;-0.98;0.91;517.0;-0.088983;-0.062626
0.25;9.0;7.5;6.25;5.0;1.0;0.5;0.25;0.25;2.25;0.5;0.5;0.25;0.0;1.75;0.25;0.25;-0.219727;0.021484;0.986816;-0.63;0.91;0.56;407.0;-0.226735;0.000488;5.0;7.75;4.25;5.5;1.0;3.75;0.75;0.75;3.25;1.75;3.0;1.75;1.75;2.75;1.5;0.75;-0.255859;0.029785;0.970703;-0.98;-1.05;0.84;519.0;-0.086683;-0.062015
0.26;8.75;7.5;6.25;4.75;1.0;0.5;0.25;0.25;2.25;0.5;0.5;0.25;0.0;1.75;0.0;0.25;-0.218262;0.022461;0.992188;-0.56;0.98;0.56;398.0;-0.229588;0.002009;5.25;8.0;4.25;5.75;1.5;3.75;0.75;1.0;3.25;2.0;2.75;1.5;1.5;2.5;1.5;0.75;-0.255371;0.026367;0.975586;-0.98;-1.12;0.84;529.0;-0.095802;-0.06075
0.27;8.75;7.75;6.25;4.75;1.0;0.5;0.25;0.0;2.25;0.5;0.25;0.25;0.0;1.25;0.0;0.25;-0.219238;0.018555;0.990723;-0.56;0.91;0.49;389.0;-0.244137;0.003904;5.25;8.25;4.0;5.75;1.5;3.75;0.75;1.0;3.25;2.0;2.75;0.75;1.5;2.5;1.5;0.75;-0.250977;0.026367;0.973145;-1.12;-1.12;0.84;520.0;-0.101416;-0.058237
0.28;9.0;7.0;6.25;5.0;1.0;0.5;0.25;0.0;1.75;0.5;0.25;0.5;0.0;1.25;0.25;0.25;-0.222168;0.017578;0.987793;-0.56;0.84;0.56;386.0;-0.243313;-0.001663;5.25;8.0;4.25;5.75;1.5;3.75;0.75;1.0;3.25;1.75;2.75;1.5;1.5;2.75;1.5;1.0;-0.254395;0.032715;0.978027;-0.91;-1.12;0.84;530.0;-0.094105;-0.06108
0.29;8.75;7.5;6.0;5.25;1.0;0.5;0.25;0.0;2.0;0.25;0.5;0.25;0.0;1.25;0.25;0.25;-0.223633;0.01709;0.98584;-0.49;0.84;0.56;389.0;-0.243404;-0.003634;5.25;8.0;4.0;5.75;1.5;3.75;0.75;1.0;3.25;1.5;2.75;1.75;1.5;2.75;1.5;1.0;-0.257324;0.023438;0.976074;-1.05;-1.12;0.84;527.0;-0.093264;-0.063905
0.3;8.75;7.5;6.0;5.0;1.0;0.5;0.25;0.25;2.0;0.25;0.5;0.25;0.0;1.5;0.25;0.5;-0.220703;0.023438;0.987793;-0.56;0.84;0.49;394.0;-0.234486;-0.00615;5.25;8.0;4.0;5.5;1.5;3.5;0.75;1.0;3.25;1.5;2.75;1.5;1.5;2.25;1.5;1.0;-0.251465;0.029785;0.977051;-1.05;-0.98;0.77;514.0;-0.098052;-0.062639
0.31;8.25;7.5;6.0;4.75;1.0;0.5;0.25;0.25;2.0;0.25;0.75;0.25;0.0;1.25;0.25;0.25;-0.21875;0.019531;0.98877;-0.63;0.98;0.49;384.0;-0.234361;-0.00688;5.5;8.0;4.0;5.5;1.25;3.5;0.75;1.0;3.25;1.5;2.75;1.75;1.5;2.5;1.5;1.0;-0.253418;0.026367;0.977051;-1.12;-1.19;0.84;519.0;-0.095572;-0.06264
0.32;8.5;7.5;6.25;4.75;1.25;0.5;0.25;0.0;2.0;0.5;0.75;0.25;0.0;1.5;0.25;0.0;-0.215332;0.019043;0.97998;-0.49;0.84;0.49;393.0;-0.232323;0.002067;5.25;8.0;4.0;6.0;1.5;3.5;0.75;1.0;3.25;1.75;2.75;1.75;1.5;2.5;1.5;1.0;-0.254395;0.03125;0.974121;-1.12;-1.12;0.84;528.0;-0.094463;-0.064016
0.33;8.5;7.5;6.25;5.0;1.25;0.5;0.25;0.0;2.25;0.5;0.75;0.5;0.0;1.75;0.0;0.0;-0.223633;0.019531;0.989258;-0.56;0.91;0.49;401.0;-0.226054;0.002275;5.75;7.75;5.0;6.0;1.5;4.0;0.75;1.0;3.25;2.0;2.75;1.5;1.5;2.5;1.5;0.75;-0.258301;0.023926;0.973633;-1.05;-1.12;0.77;548.0;-0.101693;-0.058057
0.34;8.5;7.5;6.25;5.0;1.0;0.5;0.25;0.25;2.0;0.5;0.75;0.25;0.0;1.75;0.25;0.25;-0.223633;0.019043;0.986328;-0.49;0.98;0.49;401.0;-0.225322;-0.00432;5.75;8.0;5.0;6.0;1.5;4.0;0.75;0.75;3.25;2.0;2.75;1.5;1.5;2.5;1.5;0.75;-0.256836;0.024414;0.976562;-0.98;-1.12;0.91;546.0;-0.103828;-0.056011
0.35;8.25;7.5;6.0;4.75;1.0;0.5;0.25;0.25;2.25;0.5;0.75;0.25;0.0;1.75;0.25;0.25;-0.220703;0.020996;0.987793;-0.56;0.84;0.49;395.0;-0.218906;-0.001658;5.5;8.5;4.5;6.0;1.25;3.75;0.75;1.0;3.25;1.75;2.75;1.5;1.5;2.5;1.5;0.5;-0.253418;0.023926;0.973145;-0.91;-1.19;0.77;536.0;-0.105358;-0.061556
0.36;8.75;7.5;6.0;4.75;1.0;0.5;0.25;0.0;2.0;0.5;0.75;0.5;0.25;1.5;0.25;0.25;-0.225098;0.023438;0.985352;-0.56;0.84;0.49;396.0;-0.226284;-0.004396;5.25;8.5;4.5;6.0;1.25;3.75;0.75;1.0;3.25;1.75;2.75;1.75;1.5;2.5;1.5;0.5;-0.256348;0.025391;0.972168;-0.98;-1.05;0.91;536.0;-0.102099;-0.063714
0.37;8.5;7.5;6.0;5.0;1.0;0.5;0.25;0.0;2.25;0.5;0.5;0.5;0.0;1.75;0.25;0.25;-0.219238;0.017578;0.990234;-0.63;0.84;0.42;397.0;-0.223005;0.000223;5.25;8.25;4.25;5.75;1.0;3.75;0.75;1.0;3.25;2.0;2.75;1.75;1.5;2.25;1.5;0.75;-0.252441;0.024902;0.976074;-1.05;-1.05;0.84;527.0;-0.097579;-0.064983
0.38;8.5;7.5;6.0;4.75;1.25;0.5;0.0;0.0;2.0;0.5;0.5;0.5;0.0;1.5;0.25;0.25;-0.218262;0.020508;0.984863;-0.56;0.91;0.49;387.0;-0.23322;-0.003737;5.0;8.25;4.0;5.5;1.0;3.5;0.75;1.0;3.25;1.5;2.75;1.75;1.5;2.5;2.0;1.0;-0.257324;0.02832;0.97168;-0.91;-1.12;0.84;519.0;-0.088039;-0.065948
0.39;8.5;7.5;6.0;5.0;1.0;0.5;0.0;0.25;2.0;0.5;0.75;0.5;0.0;1.5;0.25;0.25;-0.219727;0.025879;0.990234;-0.56;0.77;0.49;394.0;-0.228787;-0.010832;5.75;8.5;5.0;6.0;1.25;3.5;0.75;0.75;3.25;1.75;2.5;1.75;1.5;2.5;1.25;1.0;-0.260742;0.03125;0.972656;-0.91;-1.05;0.91;538.0;-0.109452;-0.057468
0.4;8.75;7.5;6.0;5.0;1.0;0.75;0.25;0.25;2.0;0.5;0.75;0.5;0.0;1.75;0.25;0.0;-0.221191;0.018555;0.989746;-0.56;0.7;0.49;405.0;-0.224777;-0.007152;6.0;8.5;5.0;6.0;1.5;3.5;0.5;0.75;3.25;1.75;2.75;1.5;1.5;2.5;1.5;1.0;-0.255859;0.025879;0.973633;-0.77;-0.98;0.84;542.0;-0.1097;-0.057394
0.41;8.75;7.5;6.25;5.5;1.0;0.75;0.0;0.0;2.0;0.5;0.75;0.5;0.0;1.5;0.0;0.25;-0.21875;0.020996;0.987305;-0.42;0.77;0.49;402.0;-0.237389;-0.009907;5.75;8.5;4.25;6.0;1.5;3.5;0.75;1.0;3.25;1.75;2.75;1.75;1.5;2.5;1.5;0.75;-0.25;0.029785;0.970215;-0.84;-0.98;0.77;540.0;-0.102915;-0.061608
0.42;8.5;7.5;6.0;5.25;1.0;0.5;0.25;0.0;2.0;0.5;0.75;0.5;0.0;1.75;0.25;0.25;-0.217773;0.020508;0.985352;-0.49;0.7;0.63;399.0;-0.224568;-0.004755;5.75;8.25;4.25;6.25;1.5;4.0;0.75;1.0;3.25;2.0;3.25;1.75;1.5;2.75;1.75;0.75;-0.258301;0.029785;0.975586;-0.84;-1.12;0.91;560.0;-0.093169;-0.063287
0.43;8.75;7.5;6.25;5.0;1.0;0.5;0.25;0.25;2.25;0.5;0.75;0.5;0.0;1.75;0.25;0.25;-0.223145;0.023926;0.983887;-0.56;0.98;0.49;410.0;-0.219292;-0.003157;5.5;8.25;4.5;6.0;1.5;4.0;0.75;1.0;3.25;2.0;3.25;1.75;1.5;2.5;2.0;0.75;-0.253418;0.030273;0.977539;-0.84;-1.12;0.91;558.0;-0.091027;-0.063557
0.44;8.75;7.5;6.0;5.0;0.75;0.5;0.25;0.25;2.25;0.5;0.75;0.5;0.0;1.75;0.25;0.0;-0.222656;0.022949;0.989746;-0.56;0.98;0.63;402.0;-0.221778;-0.003196;5.5;8.25;4.5;5.75;1.5;3.75;0.75;1.0;3.0;1.75;3.0;1.75;1.25;2.5;2.0;1.0;-0.255859;0.031738;0.96875;-0.77;-1.12;0.84;542.0;-0.095206;-0.063091
0.45;8.25;7.5;6.0;5.0;1.0;0.5;0.25;0.25;2.0;0.5;0.5;0.5;0.0;1.5;0.25;0.0;-0.22168;0.019043;0.986816;-0.49;0.77;0.56;391.0;-0.229828;-0.007112;5.75;8.0;4.25;6.0;1.25;3.75;0.75;1.0;3.25;1.5;2.75;1.25;1.5;2.5;1.5;0.75;-0.256348;0.031738;0.974609;-0.63;-1.05;0.84;526.0;-0.105325;-0.060618
0.46;8.75;7.5;6.0;5.0;1.25;0.5;0.25;0.25;2.0;0.5;0.5;0.5;0.0;1.5;0.25;0.25;-0.215332;0.019531;0.987793;-0.56;0.91;0.49;401.0;-0.229313;-0.006095;5.25;8.25;4.5;5.75;1.25;3.5;0.75;1.0;3.25;1.75;3.0;1.5;1.25;2.25;1.5;1.0;-0.251465;0.025879;0.971191;-0.7;-0.98;0.77;526.0;-0.100053;-0.060825
0.47;8.5;7.5;6.25;4.5;1.0;0.5;0.25;0.25;2.0;0.5;0.5;0.5;0.0;1.5;0.25;0.25;-0.216797;0.021484;0.988281;-0.63;0.77;0.56;392.0;-0.228245;-0.003354;5.5;8.25;4.25;5.75;1.5;3.5;0.75;1.0;3.25;1.75;3.0;1.75;1.5;2.5;1.5;1.0;-0.257812;0.02832;0.973633;-0.7;-0.98;0.77;536.0;-0.09579;-0.062089
0.48;8.75;7.5;6.0;5.0;1.0;0.5;0.25;0.25;2.0;0.75;0.75;0.5;0.0;1.5;0.25;0.25;-0.215332;0.021484;0.994141;-0.49;0.77;0.49;404.0;-0.223554;-0.006881;5.0;8.25;4.25;5.75;1.5;3.5;0.75;1.0;3.25;1.75;2.5;1.5;1.25;2.5;1.25;1.0;-0.25293;0.027344;0.973633;-0.7;-1.05;0.7;517.0;-0.101684;-0.060131
0.49;8.5;7.5;6.0;5.0;1.0;0.5;0.25;0.25;2.25;0.5;1.0;0.5;0.0;1.75;0.25;0.25;-0.220703;0.021484;0.984863;-0.49;0.77;0.49;407.0;-0.214536;-0.005422;5.0;8.0;4.25;5.5;1.5;3.5;0.75;1.0;3.25;1.75;2.75;1.5;1.25;2.5;1.25;1.0;-0.255859;0.029785;0.966309;-0.77;-0.91;0.77;514.0;-0.097234;-0.05896
0.5;8.5;7.5;6.25;5.0;1.0;0.5;0.25;0.0;2.25;0.25;0.5;0.5;0.0;1.75;0.25;0.0;-0.21875;0.027832;0.985352;-0.63;0.98;0.42;396.0;-0.228846;0.001627;5.0;8.25;4.5;5.5;1.25;3.5;0.5;1.0;3.25;2.0;2.75;1.5;1.5;2.5;1.5;1.0;-0.254395;0.026855;0.974121;-0.77;-0.98;0.84;521.0;-0.095179;-0.062968
0.51;8.75;7.5;6.25;5.0;1.25;0.5;0.25;0.25;2.0;0.5;0.5;0.5;0.0;1.75;0.25;0.25;-0.222168;0.022949;0.98584;-0.49;0.98;0.42;406.0;-0.225918;-0.004329;4.75;8.0;4.5;5.75;1.5;3.75;0.75;1.0;3.25;2.0;3.0;1.5;1.5;2.5;1.5;0.75;-0.251953;0.02832;0.977539;-0.77;-0.98;0.77;530.0;-0.091758;-0.061996
0.52;8.75;7.0;6.0;5.0;1.25;0.5;0.25;0.25;2.25;0.5;0.75;0.5;0.25;1.75;0.25;0.25;-0.220703;0.019531;0.990723;-0.56;0.7;0.49;407.0;-0.213561;-0.004007;5.0;8.0;4.25;5.5;1.25;3.5;0.75;0.75;3.25;1.75;2.5;1.75;1.5;2.5;1.5;1.0;-0.250488;0.024902;0.975098;-0.7;-1.12;0.84;512.0;-0.093793;-0.059954
0.53;8.75;7.25;6.25;5.0;1.0;0.5;0.25;0.25;2.25;0.5;0.75;0.5;0.25;1.5;0.25;0.0;-0.219727;0.019531;0.985352;-0.49;0.91;0.56;406.0;-0.221542;-0.004706;5.5;8.25;4.25;5.5;1.5;3.5;0.75;1.0;3.25;1.5;2.75;1.75;1.5;2.25;1.5;1.0;-0.251953;0.030762;0.975098;-0.63;-0.91;0.7;525.0;-0.100515;-0.062608
0.54;8.5;7.5;6.25;5.0;1.0;0.75;0.25;0.25;2.0;0.5;0.75;0.5;0.25;1.5;0.25;0.25;-0.220703;0.021973;0.98584;-0.49;0.77;0.49;406.0;-0.223064;-0.012042;5.75;8.25;4.25;5.75;1.5;3.5;0.5;1.0;3.25;1.5;2.75;1.75;1.5;2.5;1.5;1.0;-0.254395;0.025879;0.979004;-0.63;-0.98;0.7;529.0;-0.10235;-0.063932
0.55;8.25;7.5;6.0;5.0;1.0;0.75;0.25;0.25;2.25;0.5;0.75;0.5;0.0;1.5;0.25;0.25;-0.224609;0.024414;0.98584;-0.42;0.77;0.49;402.0;-0.219505;-0.008479;5.25;8.0;4.25;5.75;1.25;3.75;0.75;1.0;3.5;1.75;2.75;1.5;1.5;2.25;1.75;1.0;-0.255859;0.028809;0.976074;-0.63;-0.98;0.7;529.0;-0.093288;-0.061716
0.56;9.0;7.5;6.25;5.5;1.25;0.5;0.25;0.25;2.0;0.5;0.75;0.5;0.0;1.5;0.25;0.25;-0.225098;0.023926;0.989258;-0.49;0.84;0.49;416.0;-0.228471;-0.008524;5.25;8.0;4.25;5.75;1.5;3.5;0.75;1.0;3.25;1.75;2.75;1.5;1.5;2.5;1.5;0.75;-0.255371;0.027832;0.978516;-0.56;-1.05;0.7;524.0;-0.097307;-0.060221
0.57;8.5;7.5;6.25;5.0;1.0;0.5;0.25;0.25;2.0;0.5;0.75;0.5;0.0;1.5;0.25;0.25;-0.219238;0.01709;0.981934;-0.42;0.84;0.56;401.0;-0.225893;-0.007469;5.25;7.75;4.25;5.75;1.5;3.75;0.75;1.0;3.25;2.0;3.0;1.5;1.5;2.75;1.25;0.75;-0.254395;0.027832;0.974609;-0.63;-0.98;0.84;529.0;-0.093032;-0.059384
0.58;8.5;7.0;6.25;5.0;1.0;0.5;0.25;0.25;2.0;0.5;0.75;0.5;0.0;1.75;0.25;0.25;-0.215332;0.025879;0.985352;-0.49;0.77;0.49;398.0;-0.219759;-0.004382;5.0;7.75;4.0;5.75;1.25;3.5;0.75;0.75;3.25;1.75;3.0;1.75;1.5;2.75;1.5;0.75;-0.253418;0.02832;0.974609;-0.56;-1.05;0.77;516.0;-0.087808;-0.060099
0.59;8.75;7.5;6.0;4.75;1.0;0.5;0.25;0.25;2.25;0.5;1.0;0.5;0.0;1.5;0.25;0.25;-0.223633;0.021484;0.988281;-0.49;0.77;0.56;404.0;-0.218916;-0.004046;5.0;7.75;4.0;5.5;1.0;3.5;0.75;0.75;3.25;1.75;2.75;1.75;1.5;2.5;1.5;0.75;-0.251465;0.029297;0.974121;-0.7;-1.05;0.7;505.0;-0.090478;-0.06062
0.6;8.75;7.5;6.0;4.75;1.0;0.5;0.25;0.25;2.0;0.5;1.0;0.5;0.0;1.5;0.25;0.25;-0.220215;0.021484;0.989746;-0.56;0.77;0.42;401.0;-0.223158;-0.00653;5.25;7.75;4.0;5.25;1.25;3.5;0.75;1.0;3.25;1.75;3.0;1.75;1.5;2.5;1.5;1.0;-0.251953;0.026367;0.96875;-0.49;-0.98;0.84;516.0;-0.087573;-0.061731
0.61;8.5;7.5;6.0;4.75;1.0;0.5;0.25;0.25;2.25;0.5;1.0;0.5;0.0;1.25;0.25;0.25;-0.222656;0.022461;0.98877;-0.56;0.77;0.49;399.0;-0.221282;-0.005904;5.5;7.5;4.0;5.25;1.25;3.75;0.75;0.75;3.25;1.75;3.0;1.75;1.5;2.75;1.5;0.75;-0.256836;0.029785;0.980469;-0.56;-1.05;0.84;516.0;-0.087711;-0.057042
0.62;8.5;7.25;6.25;5.0;1.25;0.5;0.25;0.25;2.75;0.5;1.0;0.5;0.0;1.25;0.5;0.25;-0.21582;0.020508;0.991699;-0.63;0.7;0.49;416.0;-0.207652;-0.001032;5.0;7.5;4.0;5.5;1.25;3.75;0.75;1.0;3.25;1.75;3.0;1.75;1.5;2.75;1.5;0.75;-0.253906;0.026855;0.970215;-0.56;-1.05;0.84;518.0;-0.084813;-0.062519
0.63;8.5;7.0;6.25;5.0;1.0;0.5;0.25;0.25;2.25;0.5;1.0;0.5;0.0;1.5;0.5;0.25;-0.222168;0.017578;0.98584;-0.63;0.98;0.49;405.0;-0.211598;-0.004302;4.75;7.5;4.0;5.75;1.5;3.75;0.75;1.0;3.25;1.75;3.0;1.75;1.5;2.75;1.5;1.0;-0.256836;0.025879;0.975586;-0.56;-0.98;0.84;522.0;-0.083223;-0.064379
0.64;8.75;7.5;6.25;5.0;1.0;0.5;0.25;0.25;2.25;0.5;1.0;0.5;0.25;1.75;0.25;0.25;-0.220215;0.02002;0.983887;-0.49;0.84;0.56;415.0;-0.214019;-0.006535;4.75;7.75;4.25;5.25;1.25;3.5;0.75;1.0;3.25;1.75;3.0;1.75;1.5;2.5;1.75;1.0;-0.253418;0.024902;0.978516;-0.35;-0.91;0.77;517.0;-0.082418;-0.062821
0.65;8.5;7.5;6.25;4.75;1.25;0.5;0.25;0.25;2.25;0.5;1.0;0.5;0.25;1.25;0.0;0.25;-0.221191;0.015137;0.991699;-0.49;0.7;0.49;405.0;-0.223085;-0.006799;4.75;8.0;4.0;5.25;1.25;3.5;0.75;1.0;3.5;2.25;3.0;1.75;1.5;2.5;1.75;1.0;-0.251465;0.027344;0.981934;-0.28;-0.98;0.77;525.0;-0.077157;-0.060533
0.66;8.25;7.5;6.25;5.0;1.0;0.5;0.25;0.25;2.25;0.75;0.5;0.5;0.25;1.5;0.25;0.25;-0.21875;0.022461;0.983887;-0.56;0.84;0.56;404.0;-0.217999;-0.007166;4.75;8.0;4.0;5.25;1.25;3.75;0.75;1.0;3.5;2.0;2.75;1.75;1.5;2.5;1.5;1.0;-0.254883;0.030273;0.972168;-0.35;-1.05;0.84;520.0;-0.083666;-0.062005
0.67;8.5;7.25;6.25;4.75;1.0;0.5;0.25;0.25;2.0;0.75;0.5;0.25;0.0;1.75;0.25;0.25;-0.222656;0.017578;0.989258;-0.42;0.84;0.56;395.0;-0.223544;-0.000315;4.75;7.5;4.0;5.5;1.25;3.75;0.75;1.0;3.5;1.75;3.0;1.75;1.5;2.5;1.5;1.0;-0.260254;0.029785;0.980469;-0.49;-1.05;0.91;518.0;-0.081674;-0.062923
0.68;8.5;7.5;6.0;4.75;1.0;0.5;0.25;0.25;2.0;0.5;0.75;0.25;0.0;1.75;0.25;0.25;-0.216309;0.019531;0.986328;-0.63;0.91;0.42;394.0;-0.224538;-0.003367;4.5;7.25;4.0;5.25;1.25;3.75;0.75;1.0;3.5;2.0;3.0;1.5;1.5;2.5;1.5;1.0;-0.255859;0.029785;0.970215;-0.35;-0.98;0.84;509.0;-0.076862;-0.060389
0.69;8.25;7.5;6.0;4.75;1.0;0.5;0.25;0.25;2.25;0.5;1.0;0.5;0.0;1.75;0.25;0.0;-0.226074;0.022461;0.987305;-0.63;0.63;0.42;399.0;-0.214783;-0.003441;4.75;6.5;4.0;5.0;1.25;3.75;0.75;1.0;3.5;2.5;3.0;1.5;1.5;2.5;2.0;1.0;-0.256348;0.030273;0.972656;-0.42;-0.98;0.91;513.0;-0.06349;-0.055801
0.7;8.25;7.25;6.0;4.75;1.0;0.5;0.25;0.25;2.25;0.5;0.75;0.5;0.0;1.75;0.25;0.25;-0.21875;0.025391;0.990234;-0.56;0.91;0.49;396.0;-0.21453;-0.002754;4.75;6.5;3.75;5.0;1.25;3.75;0.75;1.0;3.5;1.75;3.25;1.5;1.5;2.75;1.75;1.25;-0.254395;0.025879;0.970215;-0.42;-1.05;0.84;505.0;-0.065006;-0.058571
0.71;8.75;7.5;6.0;4.75;1.0;0.5;0.25;0.0;2.25;0.5;0.75;0.25;0.0;1.75;0.25;0.25;-0.226074;0.02002;0.988281;-0.49;0.84;0.56;397.0;-0.223704;0.004013;4.5;6.75;4.0;5.0;1.25;3.75;0.75;1.0;3.5;1.5;3.25;1.75;1.5;2.5;1.75;1.25;-0.254395;0.025391;0.969727;-0.42;-1.05;0.84;506.0;-0.068429;-0.062276
0.72;8.75;7.25;6.0;4.75;1.0;0.5;0.25;0.0;2.0;0.5;1.0;0.25;0.25;1.5;0.0;0.25;-0.222168;0.021484;0.987793;-0.49;0.91;0.49;391.0;-0.229607;-0.001448;4.5;7.5;4.0;5.25;1.25;3.75;0.75;1.0;3.75;1.75;2.75;1.75;1.5;2.5;2.0;1.0;-0.261719;0.02832;0.97998;-0.49;-0.98;0.91;518.0;-0.07268;-0.060517
0.73;8.25;7.5;6.0;4.75;1.0;0.5;0.25;0.0;2.5;0.5;1.0;0.25;0.25;1.75;0.25;0.5;-0.216797;0.024414;0.992188;-0.49;0.7;0.56;401.0;-0.209227;0.000185;4.5;7.0;4.0;5.5;1.25;3.75;0.75;1.0;3.25;2.0;3.0;1.75;1.5;2.5;1.5;1.0;-0.257324;0.030762;0.977051;-0.49;-0.91;0.91;509.0;-0.077147;-0.064517
0.74;8.25;7.5;6.25;4.75;1.25;0.5;0.25;0.25;2.75;0.75;1.0;0.25;0.0;1.75;0.25;0.25;-0.224609;0.024902;0.989258;-0.56;0.77;0.42;414.0;-0.204137;0.003896;4.5;6.75;4.0;5.25;1.0;4.0;0.75;1.0;3.5;1.75;3.25;1.75;1.5;2.5;1.5;1.0;-0.251465;0.028809;0.972168;-0.49;-0.98;0.84;507.0;-0.072091;-0.063651
0.75;8.25;7.5;6.25;4.75;1.0;0.5;0.25;0.25;2.25;0.5;1.0;0.5;0.0;1.75;0.25;0.0;-0.220703;0.020996;0.985352;-0.49;0.77;0.56;403.0;-0.215168;-0.002739;4.75;6.75;3.75;4.75;1.0;3.75;0.75;1.0;3.75;1.75;2.75;1.75;1.75;2.5;1.5;1.0;-0.259766;0.025879;0.972656;-0.56;-0.91;0.77;498.0;-0.069637;-0.059271
0.76;8.75;7.0;6.0;4.75;1.0;0.5;0.25;0.25;2.25;0.5;1.0;0.5;0.25;1.75;0.25;0.0;-0.228027;0.02002;0.988281;-0.56;0.84;0.49;402.0;-0.212658;-0.002505;4.75;6.75;4.0;5.0;1.25;4.0;0.75;1.0;3.5;1.75;3.0;1.75;2.0;2.5;1.5;1.0;-0.255371;0.026367;0.970215;-0.56;-0.91;0.77;512.0;-0.072413;-0.06439
0.77;8.75;7.0;6.75;4.75;0.75;0.25;0.25;0.0;2.25;0.5;1.0;0.5;0.25;1.5;0.25;0.25;-0.222168;0.019531;0.993164;-0.56;0.77;0.49;401.0;-0.218553;0.002971;4.75;7.0;4.0;5.25;1.25;4.0;0.75;1.0;3.5;1.75;3.0;1.75;1.5;2.5;1.75;1.25;-0.257324;0.031738;0.969238;-0.56;-0.91;0.84;517.0;-0.073641;-0.06301
0.78;8.5;7.0;6.25;5.0;1.0;0.25;0.25;0.25;2.5;0.5;1.25;0.5;0.25;1.5;0.25;0.25;-0.22168;0.016602;0.987305;-0.63;0.7;0.49;408.0;-0.207017;-0.002777;4.5;7.0;4.0;5.25;1.5;4.0;0.75;1.0;3.5;1.75;3.0;1.75;1.5;2.5;1.75;1.0;-0.260742;0.029785;0.977051;-0.49;-0.98;0.84;516.0;-0.073379;-0.06251
0.79;8.25;7.0;6.25;5.0;1.25;0.5;0.25;0.0;2.75;0.5;1.0;0.5;0.0;1.5;0.25;0.25;-0.214844;0.020508;0.986816;-0.49;0.63;0.56;406.0;-0.207792;0.004834;4.5;7.0;4.0;5.0;1.5;4.0;0.75;1.0;3.5;1.75;3.25;1.75;1.5;2.75;1.75;1.0;-0.254883;0.026855;0.974609;-0.63;-0.98;0.84;518.0;-0.068307;-0.060788
0.8;8.5;7.5;6.25;4.75;1.0;0.5;0.25;0.0;2.25;0.5;1.0;0.5;0.0;2.0;0.25;0.25;-0.220215;0.021484;0.986816;-0.56;0.56;0.56;405.0;-0.212864;0.001937;4.75;6.75;4.0;5.0;1.25;4.0;0.75;1.0;3.75;1.75;3.0;2.0;1.75;2.5;1.5;1.0;-0.255371;0.024902;0.970703;-0.56;-1.05;0.84;516.0;-0.06967;-0.06152
0.81;8.25;7.5;6.25;4.75;1.0;0.5;0.25;0.0;2.25;0.75;1.0;0.5;0.0;1.75;0.0;0.25;-0.220215;0.023438;0.987305;-0.56;0.7;0.42;400.0;-0.216373;0.001203;4.75;6.75;4.0;5.25;1.5;4.0;0.75;1.0;3.75;2.0;2.75;1.75;1.5;2.5;1.5;1.0;-0.253418;0.026367;0.977539;-0.63;-1.12;0.77;517.0;-0.073828;-0.057634
0.82;8.5;7.5;6.0;5.0;1.0;0.5;0.25;0.0;2.75;0.75;1.0;0.5;0.25;1.75;0.25;0.25;-0.217285;0.018066;0.990234;-0.49;0.63;0.49;415.0;-0.203153;0.001163;4.5;6.75;3.75;5.25;1.5;4.0;0.75;1.0;3.75;2.0;2.75;1.75;1.75;2.75;2.0;1.0;-0.252441;0.02832;0.975586;-0.56;-1.12;0.77;521.0;-0.062354;-0.060445
0.83;8.5;7.5;6.25;5.0;1.0;0.5;0.25;0.25;3.0;0.75;1.0;0.5;0.25;1.75;0.25;0.25;-0.222168;0.016113;0.986816;-0.56;0.63;0.49;426.0;-0.197874;0.000246;4.5;6.75;3.75;4.5;1.5;3.75;0.75;1.0;3.75;2.25;3.0;2.0;1.75;2.75;2.0;1.0;-0.249512;0.032227;0.974121;-0.56;-1.12;0.77;518.0;-0.053165;-0.057301
0.84;9.0;7.5;6.75;5.0;1.25;0.5;0.25;0.25;2.75;1.0;1.25;0.5;0.25;1.75;0.25;0.25;-0.222168;0.020508;0.984375;-0.56;0.49;0.49;443.0;-0.199057;0.00072;4.5;7.0;4.0;4.75;1.5;4.0;0.75;1.0;3.5;2.25;3.0;1.75;2.0;2.75;2.0;1.0;-0.255371;0.029785;0.970703;-0.42;-1.05;0.84;525.0;-0.060585;-0.061913
0.85;8.5;7.5;6.75;5.0;1.25;0.5;0.25;0.25;2.75;0.75;1.0;0.5;0.25;1.75;0.25;0.25;-0.217285;0.018555;0.985352;-0.49;0.42;0.49;431.0;-0.202092;-0.000343;4.75;6.5;4.0;5.0;1.5;4.0;0.75;1.0;3.75;2.0;3.0;1.75;2.0;3.0;2.0;1.0;-0.258789;0.025391;0.974609;-0.49;-1.12;0.84;529.0;-0.057709;-0.058282
0.86;8.25;7.5;6.75;5.0;1.25;0.5;0.25;0.25;3.0;0.75;1.0;0.5;0.0;2.0;0.25;0.25;-0.21582;0.022949;0.98584;-0.56;0.28;0.49;432.0;-0.195701;0.004686;4.5;6.75;4.0;5.25;1.25;3.75;0.75;1.0;3.75;2.25;3.0;1.75;2.0;3.0;2.0;1.0;-0.257812;0.030273;0.977051;-0.49;-1.19;0.84;529.0;-0.056356;-0.05945
0.87;8.75;7.5;6.75;5.0;1.25;0.5;0.25;0.25;2.25;1.0;0.75;0.5;0.0;2.0;0.25;0.0;-0.21875;0.020508;0.984375;-0.42;0.28;0.49;425.0;-0.21172;0.001587;4.5;6.75;4.0;5.5;1.25;4.0;0.75;1.25;3.75;2.0;3.25;1.75;2.0;2.75;2.0;1.25;-0.254883;0.027832;0.975586;-0.63;-1.19;0.91;538.0;-0.058779;-0.066799
0.88;8.75;7.5;6.75;5.25;1.25;0.75;0.25;0.25;2.25;1.0;0.75;0.5;0.25;1.5;0.25;0.25;-0.222656;0.019531;0.988281;-0.49;0.49;0.49;431.0;-0.214516;-0.007402;4.5;6.75;3.75;5.25;1.5;4.0;0.75;1.25;4.0;2.0;3.25;1.75;1.75;2.75;1.75;1.25;-0.259766;0.031738;0.970703;-0.56;-1.47;0.84;533.0;-0.058087;-0.061968
0.89;8.75;7.5;6.75;5.0;1.25;0.75;0.25;0.25;2.5;1.0;1.0;0.5;0.25;1.5;0.25;0.25;-0.215332;0.018066;0.984863;-0.49;0.7;0.56;434.0;-0.207229;-0.004293;4.75;6.75;3.75;5.25;1.5;4.25;0.75;1.0;4.0;2.5;3.25;2.0;1.75;3.0;2.0;1.0;-0.25293;0.031738;0.96875;-0.56;-1.4;0.91;547.0;-0.052921;-0.058053
0.9;8.75;7.5;6.25;5.0;1.25;0.5;0.25;0.25;2.75;1.0;1.0;0.5;0.25;1.5;0.0;0.25;-0.211914;0.023438;0.985352;-0.56;0.91;0.49;426.0;-0.207024;-0.000892;4.75;7.25;4.0;5.5;1.5;4.0;0.75;1.0;4.25;2.5;3.25;2.0;1.75;3.0;1.75;1.0;-0.255859;0.02832;0.979492;-0.56;-1.26;0.84;556.0;-0.058504;-0.055712
0.91;8.75;7.0;6.25;5.0;1.25;1.0;0.25;0.25;2.5;1.0;1.0;0.5;0.25;1.5;0.25;0.25;-0.223633;0.019043;0.992676;-0.42;1.05;0.49;426.0;-0.203532;-0.005594;4.75;6.75;4.0;5.0;1.5;4.25;0.75;1.0;4.0;2.25;3.25;2.0;1.75;3.0;2.0;1.0;-0.25293;0.029785;0.978516;-0.56;-1.19;0.84;544.0;-0.054352;-0.056945
0.92;8.75;7.5;7.75;5.0;1.25;0.5;0.25;0.25;2.25;1.0;1.0;0.5;0.25;1.75;0.25;0.25;-0.21582;0.02002;0.983398;-0.42;1.19;0.56;442.0;-0.209703;-0.001202;4.75;7.0;4.0;5.0;1.5;4.25;0.75;1.25;4.0;2.25;3.25;2.0;1.75;3.0;2.0;1.0;-0.255859;0.024414;0.974121;-0.49;-0.98;0.84;551.0;-0.055691;-0.059975
0.93;8.25;7.5;6.25;5.0;1.25;0.5;0.25;0.25;2.5;1.0;1.0;0.5;0.25;1.5;0.0;0.25;-0.218262;0.019043;0.990234;-0.42;1.12;0.49;416.0;-0.208337;-0.004747;4.5;6.5;4.0;4.75;1.25;3.75;0.75;1.25;4.0;2.0;3.25;2.0;1.75;3.0;2.0;1.0;-0.25293;0.029297;0.976074;-0.42;-0.77;0.77;528.0;-0.049184;-0.057888
0.94;8.25;7.0;6.0;4.75;1.25;0.5;0.25;0.25;2.75;1.0;1.25;0.5;0.25;1.75;0.25;0.0;-0.218262;0.024414;0.986816;-0.42;0.91;0.49;415.0;-0.192138;0.001333;4.25;6.25;4.0;4.75;1.5;3.75;0.75;1.25;4.0;2.5;3.5;2.0;2.0;3.0;2.0;1.0;-0.254395;0.028809;0.974609;-0.49;-0.7;0.77;537.0;-0.040527;-0.058382
0.95;7.75;7.25;5.25;4.75;1.25;0.5;0.25;0.0;2.75;1.0;1.25;0.5;0.25;1.75;0.25;0.25;-0.222168;0.023438;0.985352;-0.49;0.63;0.42;401.0;-0.188718;-0.000327;4.25;6.5;4.0;5.0;1.5;4.0;0.75;1.25;4.0;2.5;3.5;2.25;2.0;3.0;1.75;1.0;-0.254883;0.02832;0.974609;-0.49;-0.77;0.77;545.0;-0.045273;-0.062094
0.96;8.25;7.0;6.0;4.75;1.25;0.5;0.25;0.25;3.0;0.75;1.25;0.5;0.25;2.0;0.25;0.5;-0.21875;0.025391;0.989258;-0.7;0.63;0.42;422.0;-0.184036;0.001985;4.25;6.25;4.0;4.75;1.5;4.0;0.75;1.25;4.0;2.5;3.25;2.25;2.0;3.0;1.5;1.0;-0.255859;0.028809;0.970703;-0.63;-0.91;0.77;534.0;-0.046045;-0.060293
0.97;8.5;7.0;6.75;5.0;1.25;1.0;0.25;0.25;3.0;0.75;1.0;0.5;0.25;2.0;0.25;0.5;-0.220703;0.025879;0.982422;-0.63;0.63;0.35;440.0;-0.190085;-1.1e-05;4.25;5.75;4.0;4.25;1.5;4.0;0.75;1.0;4.0;2.5;3.25;2.25;2.0;3.0;1.5;1.0;-0.260742;0.03125;0.970703;-0.56;-1.05;0.84;519.0;-0.039927;-0.054705
0.98;8.25;7.0;6.75;4.75;1.25;0.75;0.25;0.25;3.0;1.0;1.25;0.75;0.25;1.75;0.0;0.5;-0.22168;0.021484;0.984863;-0.7;0.49;0.42;434.0;-0.187245;-1.5e-05;4.25;6.25;3.75;4.5;1.5;4.0;0.75;1.0;4.0;2.75;3.25;2.0;2.0;2.75;1.75;1.25;-0.253418;0.026367;0.970215;-0.63;-1.12;0.84;526.0;-0.041915;-0.057521
0.99;8.25;7.25;6.75;5.0;1.25;0.5;0.25;0.25;3.0;1.0;1.25;0.75;0.25;2.25;0.25;0.5;-0.222168;0.026855;0.984863;-0.7;0.49;0.42;444.0;-0.17935;0.00068;4.25;6.5;4.0;4.5;1.25;3.75;0.75;1.0;4.25;2.75;3.25;2.0;2.0;3.0;1.75;1.0;-0.254883;0.032715;0.973145;-0.77;-1.19;0.7;530.0;-0.041013;-0.052672
1.0;8.75;7.5;6.75;5.0;1.25;0.5;0.25;0.25;3.25;0.75;1.0;0.5;0.25;2.0;0.25;0.25;-0.222168;0.023926;0.992188;-0.63;0.77;0.56;444.0;-0.192766;0.005715;4.25;6.5;4.0;5.0;1.25;4.0;0.75;1.0;4.25;2.5;3.5;2.25;1.75;3.0;2.25;1.0;-0.254883;0.03125;0.973633;-0.77;-1.12;0.77;545.0;-0.039272;-0.056534
1.01;8.5;7.0;6.0;5.0;1.0;0.5;0.25;0.0;3.0;0.5;1.0;0.75;0.25;2.0;0.5;0.5;-0.222168;0.021484;0.98877;-0.56;1.05;0.42;420.0;-0.187303;0.00233;4.25;6.5;3.75;5.0;1.5;3.75;0.75;1.25;4.25;2.75;3.25;2.0;1.75;2.75;2.25;1.25;-0.255371;0.030762;0.97168;-0.77;-1.19;0.77;543.0;-0.039739;-0.057578
1.02;8.25;7.25;6.25;5.0;1.25;0.75;0.25;0.0;3.0;0.5;1.0;0.75;0.25;1.75;0.25;0.5;-0.218262;0.01709;0.983398;-0.49;1.61;0.56;424.0;-0.194413;-0.000661;4.25;6.5;3.75;5.25;1.5;3.75;0.75;1.25;4.25;2.75;3.25;2.0;2.0;3.0;2.0;1.25;-0.255859;0.025391;0.978027;-0.56;-0.98;0.77;547.0;-0.04062;-0.059106
1.03;8.25;7.25;6.25;4.75;1.25;0.75;0.25;0.25;3.0;0.75;1.0;0.5;0.25;2.0;0.25;0.25;-0.222168;0.019043;0.987305;-0.35;1.82;0.7;426.0;-0.190423;0.001584;4.5;6.5;4.0;5.0;1.5;3.75;0.75;1.25;4.25;2.75;3.25;2.0;1.75;3.0;2.0;1.25;-0.250977;0.031738;0.97168;-0.63;-0.7;0.84;548.0;-0.043296;-0.054777
1.04;7.75;6.5;6.25;4.75;1.25;0.75;0.25;0.25;2.75;1.0;0.75;0.75;0.25;2.0;0.25;0.5;-0.220215;0.022949;0.98877;-0.42;2.03;0.7;413.0;-0.182397;-0.00114;4.5;6.5;3.75;5.0;1.5;4.25;0.75;1.25;4.0;2.5;3.25;2.0;1.75;3.0;1.75;1.25;-0.258301;0.033203;0.974121;-0.63;-0.42;0.84;542.0;-0.049096;-0.060635
1.05;7.75;6.75;6.0;4.75;1.25;0.75;0.25;0.25;2.75;1.0;1.0;0.75;0.25;2.25;0.5;0.5;-0.216797;0.020508;0.986816;-0.28;1.96;0.7;421.0;-0.17312;-0.003128;4.25;5.75;4.0;4.75;1.5;4.0;0.75;1.25;4.25;2.0;3.25;2.25;2.0;3.0;2.0;1.0;-0.254883;0.029297;0.97998;-0.49;-0.28;0.77;533.0;-0.038684;-0.058606
1.06;8.0;6.25;5.75;4.5;1.0;0.5;0.25;0.25;2.75;1.0;1.0;0.5;0.0;1.75;0.25;0.25;-0.219727;0.019531;0.986328;-0.35;1.75;0.56;392.0;-0.188633;0.006814;4.0;5.75;3.75;4.75;1.25;4.0;0.75;1.25;4.25;2.5;3.25;2.0;2.0;3.0;1.75;1.0;-0.259766;0.032715;0.975098;-0.42;-0.14;0.77;524.0;-0.03567;-0.058296
1.07;8.0;6.0;5.5;4.25;1.0;0.5;0.25;0.25;2.75;0.75;1.0;0.75;0.25;2.0;0.0;0.25;-0.22168;0.01709;0.984863;-0.42;1.75;0.49;386.0;-0.184584;0.00524;3.5;5.5;3.25;4.25;1.25;4.0;0.75;1.25;4.0;2.5;3.25;2.0;2.25;3.0;2.0;1.0;-0.253418;0.031738;0.973145;-0.35;0.07;0.77;505.0;-0.022484;-0.063805
1.08;8.25;6.0;5.25;4.25;1.0;0.5;0.25;0.0;2.5;0.75;1.0;0.5;0.25;1.75;0.0;0.25;-0.219238;0.020996;0.980957;-0.63;1.26;0.42;372.0;-0.198509;0.008449;3.5;5.25;3.25;4.25;1.25;4.0;0.75;1.0;4.0;2.5;3.25;2.0;2.0;3.0;1.75;1.0;-0.25293;0.033691;0.977051;-0.49;-0.07;0.84;493.0;-0.023973;-0.058508
1.09;8.0;6.0;5.75;4.25;1.0;0.5;0.25;0.25;2.5;0.75;1.25;0.75;0.25;1.75;0.25;0.25;-0.222656;0.018555;0.985352;-0.7;1.19;0.42;389.0;-0.185456;0.000856;3.5;5.25;3.5;4.25;1.0;4.0;0.75;1.0;3.75;2.5;3.25;1.75;1.75;3.0;1.5;1.0;-0.258789;0.033203;0.978516;-0.56;-0.21;0.84;482.0;-0.031857;-0.05726
1.1;8.0;6.75;5.25;4.25;1.0;0.5;0.25;0.25;2.5;1.0;1.25;0.5;0.25;1.75;0.5;0.25;-0.219238;0.019043;0.987305;-0.77;1.12;0.35;393.0;-0.184145;-0.001703;3.75;5.5;3.5;4.25;1.0;3.75;0.75;1.0;4.0;2.25;3.25;2.0;2.0;3.0;1.75;1.0;-0.253418;0.029297;0.97168;-0.7;-0.28;0.84;493.0;-0.029787;-0.057325
1.11;8.0;6.25;5.75;4.25;0.75;0.5;0.25;0.25;2.75;0.5;1.25;0.5;0.25;1.75;0.25;0.25;-0.221191;0.023438;0.983398;-0.7;0.84;0.42;386.0;-0.18942;0.003581;3.75;5.0;3.25;4.0;1.0;3.5;0.5;1.0;4.0;2.5;3.25;2.25;2.0;3.0;1.75;1.25;-0.256836;0.032227;0.969727;-0.84;-0.63;0.84;482.0;-0.018617;-0.058802
1.12;8.25;6.25;5.75;4.5;1.0;0.5;0.25;0.25;2.75;0.5;1.25;0.5;0.25;2.75;0.25;0.25;-0.214355;0.019043;0.986816;-0.7;0.84;0.42;404.0;-0.177332;0.007055;3.5;5.25;3.0;4.0;1.0;3.75;0.75;1.0;4.0;2.5;3.25;2.0;2.0;3.0;2.0;1.25;-0.253906;0.029785;0.967773;-0.77;-0.77;0.84;486.0;-0.015699;-0.058754
1.13;8.0;6.75;5.75;4.25;1.0;0.5;0.25;0.25;2.75;1.0;1.25;0.5;0.25;2.0;0.25;0.25;-0.217285;0.017578;0.986328;-0.77;1.19;0.42;402.0;-0.182234;0.003743;3.5;5.25;3.25;4.0;1.0;3.75;0.75;1.0;4.0;2.5;3.25;2.0;1.75;2.75;2.0;1.0;-0.256348;0.022949;0.973145;-0.91;-0.84;0.77;483.0;-0.021397;-0.056208
1.14;8.0;6.25;5.75;4.25;1.0;0.5;0.25;0.25;3.0;0.5;1.0;0.5;0.0;2.0;0.25;0.25;-0.21875;0.025391;0.988281;-0.63;1.05;0.49;390.0;-0.186464;0.011238;3.25;5.25;3.25;4.25;1.25;3.5;0.75;1.0;4.0;2.25;3.25;2.25;1.75;3.0;2.0;1.25;-0.259766;0.032715;0.967773;-0.77;-0.84;0.77;487.0;-0.017596;-0.057945
1.15;8.0;6.0;5.75;4.25;1.0;0.5;0.25;0.25;2.75;0.5;1.25;0.5;0.0;2.0;0.25;0.25;-0.217285;0.02002;0.990723;-0.63;1.12;0.49;386.0;-0.186009;0.009019;3.75;4.75;3.25;4.25;1.5;3.5;0.75;1.0;4.0;2.5;3.25;2.25;2.0;3.0;2.0;1.25;-0.256836;0.026367;0.969727;-0.91;-0.91;0.77;495.0;-0.016221;-0.055436
1.16;8.0;6.0;5.75;4.25;1.0;0.5;0.25;0.25;2.75;0.75;1.0;0.5;0.0;1.75;0.25;0.25;-0.222656;0.023926;0.981445;-0.63;1.26;0.56;384.0;-0.18954;0.009335;3.0;5.0;3.25;4.0;1.5;3.5;0.75;1.0;4.0;2.5;3.25;2.0;1.75;3.0;1.75;1.25;-0.255371;0.029297;0.978516;-0.91;-0.84;0.77;478.0;-0.014571;-0.054265
1.17;8.0;5.25;5.25;4.25;1.0;0.5;0.25;0.25;3.0;0.75;1.0;0.5;0.0;2.0;0.5;0.25;-0.215332;0.020996;0.984375;-0.56;1.12;0.56;379.0;-0.171378;0.014389;3.0;4.75;3.25;4.25;1.5;3.5;0.75;1.25;4.0;2.5;3.25;2.0;1.75;3.0;2.25;1.25;-0.262207;0.030762;0.976562;-0.91;-0.77;0.84;489.0;-0.009199;-0.057938
1.18;8.0;5.25;5.5;4.0;1.0;0.5;0.25;0.0;3.0;0.75;1.0;0.75;0.0;2.5;0.5;0.25;-0.212402;0.020508;0.987305;-0.49;1.05;0.63;383.0;-0.162997;0.020926;3.0;5.25;3.25;4.0;1.25;3.5;0.75;1.0;4.0;2.5;3.25;2.0;1.75;3.0;2.0;1.0;-0.254395;0.030273;0.973145;-0.84;-0.84;0.7;479.0;-0.014624;-0.054943
1.19;8.0;5.0;5.25;4.25;1.0;0.5;0.25;0.0;2.75;0.75;1.0;0.75;0.25;2.0;0.25;0.25;-0.216309;0.018066;0.977051;-0.42;1.19;0.42;371.0;-0.174976;0.012982;3.0;5.0;3.0;4.25;1.25;3.5;0.75;1.0;4.0;2.25;3.25;1.75;1.75;2.75;2.0;1.0;-0.255859;0.028809;0.976562;-0.84;-0.77;0.84;469.0;-0.017609;-0.056764
1.2;8.25;5.25;5.25;4.0;1.0;0.5;0.25;0.25;3.0;0.75;0.75;0.5;0.25;2.0;0.25;0.5;-0.222168;0.021484;0.987305;-0.42;1.19;0.56;377.0;-0.175393;0.014461;3.0;4.75;3.25;4.25;1.0;3.5;0.75;1.0;4.0;2.5;3.25;2.0;1.75;3.0;2.0;1.0;-0.253906;0.031738;0.976562;-0.98;-0.91;0.84;474.0;-0.011377;-0.055571
1.21;8.0;5.75;5.75;4.0;1.0;0.5;0.25;0.25;3.0;0.5;0.75;0.5;0.25;1.75;0.25;0.25;-0.215332;0.021973;0.990234;-0.49;0.98;0.56;379.0;-0.187174;0.012468;3.0;4.75;3.25;4.25;1.0;3.5;0.75;1.0;4.0;2.5;3.25;2.0;1.75;3.0;2.0;1.0;-0.257812;0.033691;0.96875;-0.91;-1.05;0.84;474.0;-0.011377;-0.055571
1.22;7.75;6.0;5.5;4.0;1.0;0.5;0.25;0.25;2.75;0.5;1.0;0.5;0.25;1.75;0.25;0.25;-0.21582;0.02002;0.98584;-0.42;0.98;0.42;375.0;-0.187529;0.006433;3.5;5.0;3.25;4.0;1.25;3.5;0.75;1.0;4.0;2.5;3.25;2.0;1.75;3.0;2.0;1.0;-0.256348;0.030762;0.977539;-1.05;-1.26;0.84;482.0;-0.017081;-0.052441
1.23;7.75;6.0;5.5;4.25;1.0;0.5;0.25;0.25;3.0;0.5;1.0;0.75;0.25;2.0;0.0;0.25;-0.223633;0.021973;0.983887;-0.28;0.91;0.49;384.0;-0.182009;0.00655;3.25;5.0;3.0;4.25;1.25;3.5;0.75;1.0;4.0;2.5;3.25;2.0;1.75;3.0;1.5;1.0;-0.257324;0.035156;0.973145;-0.91;-1.26;0.84;474.0;-0.020028;-0.055048
1.24;8.0;6.0;5.75;4.25;1.25;0.5;0.25;0.25;2.5;0.5;1.0;0.5;0.25;2.0;0.0;0.25;-0.218262;0.025391;0.984375;-0.42;0.84;0.63;382.0;-0.195013;0.005668;3.0;5.0;3.5;4.0;1.25;3.5;0.75;1.0;4.0;2.5;3.25;2.0;2.0;3.0;1.5;1.25;-0.249512;0.028809;0.973145;-1.05;-1.4;0.91;478.0;-0.017104;-0.055915
1.25;7.75;6.25;5.25;4.25;1.0;0.5;0.0;0.25;2.5;0.5;1.0;0.5;0.25;2.0;0.25;0.25;-0.22168;0.021973;0.983398;-0.56;0.77;0.56;372.0;-0.19274;-0.001406;3.5;5.25;3.25;4.0;1.5;3.5;0.75;1.0;4.0;2.5;3.25;2.0;2.0;3.0;1.75;1.0;-0.256348;0.028809;0.97998;-0.84;-1.33;0.84;487.0;-0.02141;-0.05413
1.26;8.0;6.25;5.5;4.0;1.0;0.5;0.0;0.25;2.25;0.75;1.0;0.75;0.25;2.5;0.25;0.25;-0.223633;0.020996;0.988281;-0.35;0.7;0.49;381.0;-0.184718;-0.00025;3.0;5.25;3.5;4.25;1.5;3.75;0.75;1.0;4.0;2.5;3.25;2.0;2.0;3.0;2.0;1.0;-0.259277;0.033203;0.974121;-0.84;-1.47;0.91;494.0;-0.018455;-0.057631
1.27;8.0;6.0;5.75;4.25;1.0;0.5;0.0;0.25;2.25;0.75;1.0;0.5;0.25;2.0;0.25;0.25;-0.222168;0.014648;0.985352;-0.35;0.42;0.56;377.0;-0.194993;-0.000135;3.0;5.25;3.5;4.25;1.5;3.75;0.75;1.0;4.25;2.5;3.25;2.0;2.0;3.0;1.75;1.0;-0.256836;0.032227;0.976562;-0.84;-1.47;0.84;494.0;-0.018938;-0.055087
1.28;8.25;6.5;5.75;4.25;1.0;0.5;0.25;0.25;2.25;1.0;1.0;0.5;0.0;1.5;0.25;0.25;-0.214844;0.020996;0.995117;-0.35;0.56;0.56;385.0;-0.202817;0.002238;3.25;5.25;3.5;4.25;1.25;3.75;0.75;1.0;4.25;2.5;3.25;2.0;2.0;3.0;2.25;1.0;-0.251953;0.025879;0.975586;-0.91;-1.4;0.91;500.0;-0.015582;-0.055168
1.29;7.75;6.25;5.75;4.75;1.0;0.5;0.0;0.25;2.75;0.75;1.0;0.75;0.25;1.25;0.25;0.25;-0.220703;0.023926;0.987793;-0.56;0.84;0.56;386.0;-0.195934;-0.005838;3.5;5.0;3.0;4.25;1.25;3.75;0.75;1.0;4.25;2.5;3.25;2.25;2.0;3.0;2.0;1.0;-0.253418;0.03418;0.974121;-0.91;-1.4;0.91;494.0;-0.013821;-0.056692
1.3;8.0;6.25;5.75;4.25;1.0;0.5;0.0;0.25;2.25;0.5;1.0;0.5;0.25;1.75;0.25;0.25;-0.222656;0.01709;0.98877;-0.56;0.77;0.63;375.0;-0.20355;-0.002839;3.5;5.25;3.5;4.25;1.25;3.75;0.75;1.0;4.25;2.5;3.25;2.0;2.0;3.0;2.0;1.0;-0.258789;0.030762;0.981445;-0.91;-1.33;0.98;500.0;-0.020203;-0.054085
1.31;8.25;6.5;5.75;4.25;1.0;0.5;0.0;0.25;2.25;0.5;1.25;0.5;0.25;2.0;0.25;0.25;-0.218262;0.022949;0.981934;-0.56;0.91;0.49;385.0;-0.19951;-0.002838;3.75;5.5;3.5;4.25;1.25;3.75;0.75;1.0;4.25;2.75;3.25;2.0;2.0;3.0;2.0;1.0;-0.259277;0.025391;0.973145;-0.91;-1.19;0.98;508.0;-0.022843;-0.053073
1.32;8.25;6.25;6.0;4.25;1.0;0.75;0.25;0.25;2.25;0.75;1.25;0.75;0.25;2.5;0.25;0.25;-0.225586;0.022949;0.989746;-0.63;0.84;0.49;403.0;-0.182379;-0.000151;4.0;5.5;3.5;4.25;1.5;3.75;0.75;1.0;4.0;2.75;3.25;2.0;2.0;3.0;2.25;1.25;-0.255859;0.030762;0.970703;-0.91;-1.12;0.91;515.0;-0.023971;-0.054703
1.33;7.75;6.0;6.0;4.5;1.0;0.5;0.0;0.25;2.25;0.5;1.0;0.75;0.25;2.0;0.5;0.25;-0.221191;0.022949;0.984375;-0.56;0.91;0.42;384.0;-0.190429;-0.005295;4.0;5.5;3.5;4.5;1.5;4.0;0.75;1.0;4.25;2.75;3.25;2.0;1.75;3.0;2.0;1.5;-0.256348;0.030273;0.973145;-0.91;-1.19;0.91;520.0;-0.026457;-0.053414
1.34;8.25;6.25;6.0;4.5;1.0;0.5;0.0;0.0;2.25;0.5;1.0;0.75;0.0;1.5;0.25;0.25;-0.218262;0.027344;0.989258;-0.42;0.7;0.49;378.0;-0.211287;0.000781;3.75;5.5;3.75;4.5;1.25;3.75;0.75;1.0;4.25;2.75;3.25;2.25;1.75;3.0;2.0;1.25;-0.255371;0.034668;0.974609;-0.84;-1.19;0.91;516.0;-0.024305;-0.053468
1.35;8.25;7.25;6.0;4.5;1.0;0.5;0.25;0.0;2.25;0.25;1.25;0.5;0.0;2.25;0.25;0.25;-0.222168;0.018066;0.991211;-0.56;0.77;0.49;396.0;-0.205652;0.003022;3.75;5.5;3.5;4.5;1.5;3.75;0.75;1.25;4.0;2.75;3.25;2.25;1.75;3.0;1.75;1.25;-0.254883;0.029297;0.97168;-0.84;-1.19;0.91;514.0;-0.027729;-0.058509
1.36;8.0;6.75;5.75;4.75;1.0;0.5;0.0;0.25;2.5;0.25;1.0;0.5;0.0;2.0;0.0;0.25;-0.218262;0.024902;0.994141;-0.42;0.77;0.56;384.0;-0.209792;-0.001865;3.75;5.75;3.5;4.5;1.5;3.5;0.75;1.0;4.0;2.5;3.25;2.25;1.75;3.0;2.0;0.75;-0.258301;0.032227;0.973633;-0.7;-1.12;0.98;506.0;-0.030369;-0.054373
1.37;8.25;6.75;6.0;4.75;1.0;0.5;0.25;0.0;2.25;0.5;1.0;0.5;0.0;1.75;0.25;0.25;-0.221191;0.018066;0.990234;-0.49;0.98;0.49;389.0;-0.210839;0.002692;3.75;5.5;3.5;4.5;1.5;3.5;0.75;1.0;4.25;2.5;3.25;2.0;1.75;3.0;2.0;0.75;-0.249512;0.029785;0.975098;-0.84;-1.12;0.98;504.0;-0.027769;-0.050105
1.38;8.0;6.75;6.0;4.75;1.0;0.5;0.25;0.25;2.25;0.25;1.0;0.5;0.0;1.75;0.25;0.25;-0.22168;0.01709;0.98291;-0.63;0.98;0.56;388.0;-0.210611;-0.002768;4.0;5.5;3.5;4.25;1.5;4.0;0.75;1.0;4.0;2.75;3.25;2.0;1.75;2.75;1.75;1.0;-0.259766;0.025391;0.97998;-0.84;-1.12;0.77;506.0;-0.03365;-0.054089
1.39;8.25;6.75;5.5;4.75;1.0;0.5;0.25;0.25;2.5;0.5;1.0;0.5;0.0;1.5;0.25;0.25;-0.217285;0.020996;0.985352;-0.56;0.84;0.56;389.0;-0.207278;-0.001439;4.0;5.5;3.5;4.5;1.25;4.0;0.75;1.0;4.0;2.75;3.25;2.0;2.0;3.0;1.75;1.25;-0.257812;0.030762;0.970703;-0.98;-1.12;0.84;512.0;-0.030501;-0.057341
1.4;8.0;6.25;5.5;4.75;1.0;0.5;0.25;0.25;2.5;0.5;1.0;0.75;0.25;1.5;0.25;0.25;-0.218262;0.019043;0.989746;-0.49;0.84;0.63;386.0;-0.197701;-0.005103;4.0;5.5;3.75;4.25;1.25;3.75;0.75;1.0;4.0;2.5;3.25;2.0;1.75;3.0;2.0;1.0;-0.253418;0.029785;0.975586;-0.84;-1.26;0.77;505.0;-0.030794;-0.052379
1.41;8.25;6.25;6.0;4.75;1.0;0.5;0.25;0.0;2.25;0.25;1.0;0.5;0.25;0.75;0.0;0.25;-0.224609;0.02002;0.986816;-0.63;0.77;0.49;372.0;-0.229439;-0.002148;3.75;5.5;3.75;4.5;1.5;3.75;0.75;1.0;4.0;2.5;3.25;2.25;2.0;2.75;1.75;1.0;-0.254883;0.029785;0.974609;-0.91;-1.12;0.84;508.0;-0.033009;-0.057779
1.42;8.25;6.75;6.0;4.5;1.0;0.5;0.25;0.0;2.25;0.25;1.0;0.5;0.25;1.5;0.25;0.25;-0.222656;0.020996;0.989746;-0.56;0.77;0.56;383.0;-0.215023;0.000107;3.75;5.75;3.75;4.5;1.25;3.75;0.75;1.0;4.0;2.5;3.25;2.0;1.75;2.75;1.75;1.0;-0.254395;0.024902;0.973633;-0.84;-1.19;0.7;503.0;-0.036713;-0.055778
1.43;8.25;6.75;6.0;4.75;1.0;0.75;0.25;0.25;2.25;0.5;1.0;0.75;0.25;1.5;0.25;0.25;-0.219238;0.021484;0.983398;-0.63;0.77;0.49;399.0;-0.206685;-0.009384;4.0;6.0;3.75;4.5;1.25;3.75;0.75;1.0;4.25;2.75;3.25;2.0;1.75;2.75;2.0;1.0;-0.254883;0.029297;0.972168;-0.98;-1.33;0.77;517.0;-0.034556;-0.052622
1.44;8.25;7.25;6.0;4.5;1.0;0.5;0.25;0.0;2.0;0.5;1.0;0.5;0.25;2.0;0.25;0.25;-0.219238;0.022461;0.991211;-0.7;0.77;0.56;392.0;-0.211185;-0.001964;4.0;5.75;3.75;4.5;1.25;4.0;0.75;1.0;4.0;2.5;3.25;2.0;1.75;2.75;2.0;1.0;-0.25293;0.031738;0.976074;-0.91;-1.26;0.84;511.0;-0.036921;-0.056278
1.45;8.0;7.25;6.0;4.75;1.0;0.5;0.25;0.0;2.5;0.5;1.0;0.5;0.25;1.75;0.25;0.5;-0.220703;0.022461;0.98877;-0.7;0.77;0.56;399.0;-0.203519;-0.001675;4.25;5.75;3.75;4.75;1.25;4.0;0.75;1.0;4.0;2.5;3.25;2.0;2.0;2.75;2.0;1.0;-0.259277;0.025879;0.977539;-0.98;-1.26;0.77;519.0;-0.039426;-0.05819
1.46;8.25;7.25;6.0;5.0;1.0;0.5;0.25;0.25;2.0;0.5;1.0;0.5;0.25;1.75;0.25;0.5;-0.21582;0.022461;0.989746;-0.63;0.7;0.56;402.0;-0.211761;-0.011519;4.0;6.0;3.75;4.5;1.5;3.75;0.75;1.0;4.0;2.5;3.25;2.0;1.5;2.75;2.0;1.0;-0.254883;0.024414;0.976074;-0.91;-1.19;0.77;511.0;-0.03959;-0.053004
1.47;8.25;7.0;6.25;4.75;1.0;0.5;0.25;0.25;2.0;0.5;1.0;0.25;0.0;1.75;0.25;0.25;-0.22168;0.017578;0.992676;-0.7;0.77;0.56;393.0;-0.217818;-0.002186;4.0;6.25;3.5;4.25;1.5;3.75;0.75;1.0;4.0;2.5;3.0;2.0;1.75;3.0;2.0;1.0;-0.250977;0.025879;0.970703;-0.84;-1.19;0.77;510.0;-0.037108;-0.053888
1.48;8.5;7.0;6.25;4.75;1.0;0.5;0.25;0.0;2.0;0.5;0.75;0.25;0.0;1.5;0.25;0.25;-0.220215;0.025391;0.985352;-0.77;0.84;0.42;386.0;-0.228473;0.00259;4.25;6.25;3.75;4.5;1.25;4.0;0.75;1.25;4.0;2.5;3.25;2.0;1.75;3.0;2.0;0.75;-0.256348;0.032715;0.97998;-0.91;-1.12;0.91;524.0;-0.041484;-0.057346
1.49;8.5;7.25;6.0;5.0;1.0;0.75;0.25;0.0;2.25;0.5;1.0;0.5;0.25;1.5;0.25;0.5;-0.218262;0.022949;0.991211;-0.77;0.84;0.42;405.0;-0.214159;-0.007245;4.25;5.75;3.75;4.5;1.5;4.0;0.75;1.0;4.0;2.5;3.25;2.0;1.75;3.0;2.0;1.0;-0.262695;0.030273;0.979004;-0.91;-0.98;0.84;519.0;-0.037417;-0.053654
1.5;8.25;7.0;6.0;5.0;1.0;0.5;0.25;0.25;2.25;0.75;1.0;0.5;0.25;1.75;0.25;0.25;-0.220215;0.016113;0.98291;-0.7;0.77;0.42;404.0;-0.205257;-0.006388;4.0;6.25;3.75;4.5;1.5;3.5;0.75;1.0;4.0;2.5;3.25;2.25;1.75;3.0;2.0;1.0;-0.254395;0.028809;0.974609;-0.91;-0.98;0.77;519.0;-0.036425;-0.054464
1.51;8.25;7.0;6.0;4.75;1.0;0.5;0.25;0.0;2.25;0.5;1.0;0.5;0.0;2.0;0.0;0.25;-0.21875;0.019531;0.989258;-0.77;0.98;0.42;391.0;-0.212997;0.003264;4.25;6.25;3.75;4.5;1.25;3.75;0.75;1.0;4.0;2.75;3.25;1.75;2.0;3.0;1.5;1.0;-0.256836;0.028809;0.975098;-0.91;-1.05;0.84;515.0;-0.043801;-0.053704
1.52;8.5;6.0;6.0;5.0;1.0;1.0;0.25;0.0;2.25;0.5;0.75;0.5;0.0;2.0;0.0;0.25;-0.217773;0.02002;0.989746;-0.77;0.77;0.42;390.0;-0.211978;0.003317;4.25;6.5;3.75;4.5;1.25;3.75;0.75;1.0;4.0;2.5;3.25;1.75;1.5;2.75;1.5;1.0;-0.249023;0.03125;0.972656;-0.91;-1.05;0.77;508.0;-0.051309;-0.052195
1.53;8.25;7.0;6.25;5.0;1.25;0.75;0.25;0.25;2.25;0.5;0.75;0.75;0.0;2.0;0.25;0.25;-0.220215;0.024414;0.989258;-0.7;0.77;0.42;410.0;-0.206574;-0.005217;4.0;6.0;3.75;4.25;1.25;3.75;0.75;1.0;4.0;2.25;3.25;2.0;2.0;2.75;2.0;1.0;-0.255371;0.029785;0.972168;-0.98;-1.05;0.77;507.0;-0.037246;-0.057112
1.54;8.25;7.25;6.25;4.75;1.25;0.75;0.25;0.25;2.25;0.5;1.0;0.5;0.0;1.5;0.25;0.25;-0.221191;0.025391;0.982422;-0.77;0.91;0.63;405.0;-0.214279;-0.005402;4.25;5.75;3.75;4.5;1.5;3.75;0.75;1.0;3.75;2.5;3.25;2.0;1.75;3.0;2.0;1.0;-0.253418;0.024902;0.973145;-0.84;-1.05;0.91;513.0;-0.038799;-0.05467
1.55;8.75;6.5;6.0;4.75;1.0;0.5;0.25;0.25;2.25;0.5;1.0;0.5;0.25;1.5;0.5;0.25;-0.221191;0.02002;0.992188;-0.7;0.84;0.56;399.0;-0.207141;-0.003213;4.5;6.0;3.75;4.75;1.5;3.75;0.75;1.0;3.75;2.5;3.25;2.0;1.5;2.5;2.0;1.0;-0.260254;0.035645;0.979004;-0.91;-1.05;0.84;514.0;-0.049136;-0.055543
1.56;8.75;7.5;6.25;4.75;1.0;0.5;0.25;0.25;2.25;0.75;0.75;0.5;0.25;1.75;0.25;0.25;-0.223145;0.019043;0.986328;-0.7;0.91;0.56;412.0;-0.213403;-0.003701;4.25;6.25;3.75;5.0;1.5;3.75;0.75;1.0;3.75;2.5;3.25;2.0;1.75;2.5;2.0;1.0;-0.25293;0.029297;0.97168;-0.84;-0.98;0.84;519.0;-0.049375;-0.059794
1.57;8.5;7.5;6.25;5.0;1.0;0.5;0.0;0.25;2.25;0.5;0.75;0.25;0.25;1.5;0.25;0.25;-0.219238;0.020508;0.987305;-0.63;1.05;0.49;400.0;-0.22554;-0.008119;4.25;6.25;3.75;5.0;1.0;3.75;0.75;1.0;4.0;2.5;3.0;2.25;1.75;2.75;1.75;1.0;-0.254395;0.027344;0.972168;-0.77;-1.05;0.91;516.0;-0.046924;-0.058702
1.58;9.0;7.25;6.25;5.0;1.25;0.5;0.25;0.25;2.5;0.5;1.0;0.5;0.25;1.5;0.25;0.0;-0.22168;0.016602;0.984863;-0.77;0.98;0.56;418.0;-0.214932;-0.001837;4.25;6.25;3.75;4.75;1.0;4.0;0.75;1.0;4.0;2.0;3.25;2.0;1.75;3.0;1.75;1.0;-0.253418;0.02832;0.979004;-0.91;-1.19;0.84;513.0;-0.047145;-0.058249
1.59;8.5;7.25;6.0;5.0;1.0;0.5;0.25;0.25;2.0;0.5;0.75;0.5;0.25;1.5;0.25;0.25;-0.219238;0.019043;0.994141;-0.56;0.98;0.56;398.0;-0.222042;-0.009892;4.5;6.5;3.75;4.5;1.25;3.75;0.75;1.0;3.75;2.5;3.25;1.75;1.75;3.0;1.75;0.75;-0.251465;0.027832;0.977539;-0.84;-1.05;0.91;513.0;-0.050904;-0.053835
1.6;8.75;7.5;6.0;5.0;1.25;0.5;0.25;0.25;2.0;0.5;1.0;0.5;0.0;1.5;0.25;0.25;-0.224121;0.016602;0.986816;-0.56;0.98;0.63;407.0;-0.222911;-0.007639;4.5;7.0;3.75;4.5;1.25;4.0;0.75;1.0;3.75;2.5;3.0;1.75;1.75;2.75;1.75;1.0;-0.255371;0.02832;0.978516;-0.91;-1.12;0.84;517.0;-0.057484;-0.057627
1.61;8.25;6.75;6.75;4.75;1.0;0.5;0.25;0.25;2.0;0.75;1.0;0.5;0.0;1.75;0.0;0.25;-0.223633;0.019043;0.990723;-0.63;0.98;0.49;399.0;-0.215437;-0.000829;4.5;6.75;4.0;4.75;1.5;3.75;0.75;1.0;3.75;2.0;3.0;2.0;2.0;2.75;1.75;1.0;-0.255859;0.032715;0.978516;-0.98;-1.12;0.91;520.0;-0.058894;-0.059761
1.62;8.0;6.75;6.25;5.0;1.0;0.5;0.25;0.25;2.25;0.5;1.0;0.5;0.0;2.0;0.0;0.25;-0.217773;0.022949;0.986816;-0.63;1.05;0.49;396.0;-0.209201;-0.00163;4.5;6.75;4.0;5.0;1.5;3.75;0.75;0.75;3.5;2.0;3.0;2.0;2.0;2.75;1.75;1.0;-0.257324;0.029297;0.971191;-0.98;-1.12;0.98;516.0;-0.062786;-0.060357
1.63;8.25;7.0;6.25;4.75;1.0;0.5;0.25;0.25;2.25;0.5;1.0;0.5;0.0;2.0;0.25;0.25;-0.216309;0.022949;0.990723;-0.7;1.33;0.49;401.0;-0.206881;-0.000791;4.5;6.75;3.75;5.25;1.25;3.75;0.75;1.0;3.5;2.0;3.25;1.75;1.5;2.5;2.25;0.75;-0.254883;0.03125;0.975098;-1.05;-1.19;0.98;514.0;-0.06228;-0.061503
1.64;9.0;7.25;5.75;4.75;1.0;0.5;0.25;0.25;2.0;0.5;0.75;0.5;0.0;1.5;0.5;0.25;-0.222656;0.022461;0.988281;-0.7;1.33;0.49;398.0;-0.221573;-0.005192;4.5;7.0;3.75;5.5;1.5;3.75;0.75;1.0;3.75;2.25;3.0;1.75;1.75;2.75;1.75;1.0;-0.250977;0.023438;0.973145;-0.91;-1.26;0.98;527.0;-0.064182;-0.060199
1.65;8.5;7.0;6.0;4.75;1.0;0.5;0.0;0.25;2.25;0.5;0.75;0.5;0.0;1.5;0.25;0.25;-0.221191;0.018555;0.991211;-0.7;1.26;0.56;389.0;-0.221448;-0.004555;4.75;7.5;4.0;5.25;1.25;4.0;0.75;1.0;3.75;1.75;2.75;2.0;1.75;2.5;1.75;1.0;-0.249023;0.03125;0.973633;-0.91;-1.33;0.98;526.0;-0.0749;-0.06377
1.66;8.0;7.0;6.0;4.75;1.0;0.75;0.0;0.25;2.25;0.5;0.75;0.5;0.0;1.5;0.0;0.25;-0.219727;0.021973;0.988281;-0.49;1.19;0.63;384.0;-0.222928;-0.007727;4.75;7.75;4.25;5.25;1.5;4.0;0.75;1.0;3.5;2.0;3.0;2.0;1.75;2.5;2.0;1.0;-0.254883;0.028809;0.96582;-0.98;-1.4;0.91;540.0;-0.07423;-0.064629
1.67;8.25;7.25;5.75;4.75;1.0;0.75;0.25;0.25;2.0;0.5;1.0;0.75;0.0;1.75;0.25;0.25;-0.221191;0.022949;0.98291;-0.56;1.19;0.49;398.0;-0.211672;-0.010909;5.0;7.25;4.0;5.25;1.0;4.0;0.75;1.0;3.25;2.25;3.0;2.0;2.0;2.5;1.5;0.75;-0.255859;0.032227;0.973633;-0.91;-1.26;0.98;523.0;-0.076973;-0.067564
1.68;8.5;7.0;5.75;4.75;1.0;0.5;0.25;0.25;2.25;0.5;1.0;0.75;0.25;1.25;0.0;0.25;-0.220215;0.018555;0.984375;-0.63;1.19;0.56;393.0;-0.217529;-0.008884;5.25;7.75;4.0;5.5;1.25;4.0;0.75;1.0;3.25;2.0;2.75;2.0;1.5;2.5;1.5;0.75;-0.253906;0.03125;0.972656;-0.98;-1.26;0.84;527.0;-0.089014;-0.064645
1.69;8.0;7.0;5.75;4.75;1.0;0.5;0.25;0.25;2.0;0.5;1.0;0.5;0.25;1.5;0.0;0.25;-0.222168;0.019531;0.98584;-0.7;1.12;0.56;384.0;-0.218598;-0.009976;5.25;7.25;4.0;5.5;1.25;4.0;0.75;1.0;3.5;2.0;3.0;2.0;1.75;2.5;1.5;1.25;-0.250977;0.033691;0.97168;-1.05;-1.33;0.98;533.0;-0.078276;-0.064822
1.7;8.0;7.25;5.75;4.75;1.25;0.5;0.0;0.25;2.0;0.5;1.0;0.25;0.0;1.5;0.25;0.0;-0.21875;0.020996;0.987305;-0.56;1.4;0.49;381.0;-0.225572;-0.007588;5.0;7.75;4.25;5.5;1.25;4.0;0.75;1.0;3.25;2.0;3.0;2.0;1.75;2.5;1.5;1.0;-0.255859;0.029785;0.969238;-1.12;-1.33;0.91;534.0;-0.08428;-0.067402
1.71;8.25;7.25;5.75;4.5;1.0;0.5;0.25;0.0;2.25;0.5;1.0;0.25;0.0;1.75;0.25;0.0;-0.217773;0.021484;0.995117;-0.56;1.05;0.49;384.0;-0.217864;0.005027;5.0;8.0;4.25;5.75;1.5;4.0;0.5;1.0;3.25;2.0;3.0;1.75;1.5;2.5;1.75;1.0;-0.258789;0.023926;0.974609;-0.91;-1.26;0.84;536.0;-0.088535;-0.067529
1.72;8.25;7.25;5.75;4.5;1.0;0.5;0.0;0.0;2.5;0.5;1.0;0.25;0.0;1.75;0.0;0.0;-0.217773;0.020508;0.98877;-0.56;0.91;0.63;380.0;-0.221345;0.005644;4.75;8.0;4.25;6.0;1.5;3.75;0.75;1.0;3.25;2.0;3.0;1.75;1.5;2.5;1.75;1.0;-0.251953;0.03125;0.975098;-0.91;-1.26;0.98;537.0;-0.08634;-0.06582
1.73;8.25;7.25;5.75;4.5;0.75;0.5;0.0;0.25;2.0;0.5;1.0;0.5;0.25;1.5;0.25;0.25;-0.220215;0.022461;0.992676;-0.63;1.19;0.49;382.0;-0.219988;-0.012266;5.0;7.75;4.5;5.75;1.25;3.75;0.75;1.25;3.25;2.0;3.25;1.75;1.5;2.75;1.75;0.75;-0.257324;0.030273;0.970703;-0.91;-1.26;0.91;542.0;-0.083004;-0.064442
1.74;7.75;7.25;5.75;4.5;1.0;0.5;0.0;0.25;2.0;0.75;1.0;0.5;0.0;1.25;0.25;0.25;-0.22168;0.015137;0.987305;-0.49;0.98;0.42;377.0;-0.219339;-0.011288;5.25;8.0;4.5;5.75;1.5;3.75;0.75;1.0;3.25;2.0;3.0;1.75;1.5;2.75;1.75;0.75;-0.251953;0.029785;0.977539;-0.84;-1.26;0.84;543.0;-0.08862;-0.060538
1.75;8.25;7.25;5.75;4.75;1.0;0.5;0.0;0.25;2.0;0.5;1.0;0.5;0.0;1.25;0.25;0.25;-0.217285;0.02002;0.986328;-0.56;0.98;0.56;383.0;-0.226002;-0.011743;5.0;8.0;4.5;5.75;1.5;3.75;0.75;1.0;3.25;2.0;2.75;2.0;1.5;2.5;2.0;1.0;-0.258301;0.024902;0.975586;-0.91;-1.19;0.98;543.0;-0.085358;-0.064202
1.76;8.25;6.5;6.0;4.75;1.0;0.5;0.0;0.25;2.0;0.5;1.0;0.5;0.25;1.25;0.0;0.25;-0.225586;0.02002;0.985352;-0.63;1.05;0.49;378.0;-0.224849;-0.010108;5.25;8.25;4.25;5.75;1.25;3.75;0.75;1.0;3.25;2.0;2.75;1.75;1.5;2.5;2.0;1.0;-0.257812;0.026367;0.975098;-0.84;-1.05;0.91;539.0;-0.088904;-0.0641
1.77;8.25;6.75;5.75;4.5;1.0;0.5;0.25;0.25;2.0;0.5;0.5;0.5;0.25;1.5;0.25;0.25;-0.224609;0.021484;0.985352;-0.56;0.91;0.63;378.0;-0.22009;-0.005287;5.5;8.5;4.5;6.0;1.25;4.0;0.75;1.0;3.25;2.0;3.0;2.0;1.5;2.75;1.5;1.0;-0.25;0.029785;0.974121;-0.84;-1.05;0.91;556.0;-0.094236;-0.065097
1.78;8.25;7.25;6.0;4.25;1.0;0.5;0.0;0.25;2.0;0.5;0.5;0.75;0.25;1.5;0.25;0.25;-0.222168;0.024902;0.986816;-0.7;0.91;0.49;382.0;-0.222519;-0.009796;5.5;8.0;4.5;6.0;1.5;4.25;0.75;1.0;3.25;2.0;3.0;2.0;1.5;2.5;1.75;1.0;-0.255371;0.029297;0.973633;-0.84;-1.12;0.98;557.0;-0.091326;-0.06571
1.79;8.0;6.75;6.0;4.5;1.0;0.5;0.25;0.25;2.25;0.5;0.75;0.5;0.0;1.5;0.0;0.25;-0.220703;0.019531;0.988281;-0.56;0.84;0.49;380.0;-0.218395;-0.000166;5.5;8.25;5.0;5.75;1.5;4.0;0.75;1.0;3.25;2.0;2.75;1.75;1.75;2.75;2.0;1.0;-0.256348;0.03125;0.974121;-0.84;-1.12;0.91;562.0;-0.090738;-0.061834
1.8;8.25;7.25;5.75;4.5;1.0;0.5;0.25;0.25;2.25;0.5;1.0;0.5;0.0;1.75;0.25;0.5;-0.219238;0.01709;0.986328;-0.7;0.84;0.56;394.0;-0.208219;-0.003766;5.5;8.25;4.5;6.0;1.5;4.0;0.75;1.0;3.25;2.0;3.0;1.75;1.75;2.75;1.25;1.0;-0.25293;0.027832;0.966797;-0.84;-0.98;0.91;553.0;-0.095991;-0.064348
1.81;8.0;6.5;5.75;4.5;1.0;0.5;0.25;0.0;2.25;0.25;1.0;0.5;0.0;1.5;0.25;0.25;-0.226074;0.022461;0.994629;-0.63;0.91;0.49;373.0;-0.214246;0.002592;6.0;8.25;4.25;6.25;1.5;4.0;0.5;1.0;3.25;2.0;3.0;1.75;1.5;2.5;1.5;1.0;-0.25293;0.026855;0.970703;-0.84;-1.12;0.91;553.0;-0.10121;-0.065998
1.82;8.25;7.25;6.0;4.25;1.0;0.5;0.25;0.0;2.25;0.5;1.0;0.25;0.0;1.5;0.25;0.25;-0.221191;0.019043;0.992676;-0.7;0.91;0.49;383.0;-0.219281;0.005218;6.0;8.25;4.5;6.0;1.5;4.0;0.5;1.0;3.25;2.0;3.0;1.75;1.75;2.5;1.5;0.75;-0.253906;0.026855;0.975586;-0.77;-1.05;0.91;553.0;-0.10119;-0.065302
1.83;8.25;7.25;5.5;4.5;0.75;0.5;0.25;0.25;2.25;0.5;0.75;0.25;0.0;1.25;0.5;0.25;-0.223633;0.025879;0.983887;-0.63;1.05;0.49;379.0;-0.220038;-0.003568;5.75;8.5;4.25;6.25;1.5;4.0;0.75;1.0;3.25;2.0;3.25;1.75;1.5;2.5;1.5;0.75;-0.25293;0.033203;0.973633;-0.84;-1.05;0.84;558.0;-0.099311;-0.064657
1.84;8.25;7.0;5.75;4.5;1.0;0.5;0.0;0.25;2.25;0.5;0.75;0.25;0.0;1.5;0.5;0.25;-0.217773;0.021973;0.986816;-0.7;0.91;0.49;381.0;-0.217744;-0.002793;5.75;8.5;4.25;6.0;1.5;4.0;0.75;1.0;3.25;2.0;3.0;1.75;1.5;2.25;1.75;0.75;-0.256836;0.026367;0.975586;-0.77;-1.05;0.91;552.0;-0.099494;-0.064632
1.85;8.0;6.5;5.75;4.25;1.0;0.5;0.25;0.0;2.25;0.5;0.75;0.5;0.0;1.75;0.5;0.25;-0.221191;0.016602;0.986816;-0.7;0.91;0.56;375.0;-0.204934;0.006217;5.75;8.0;4.5;6.0;1.5;4.25;0.75;1.0;3.25;1.75;3.0;1.75;1.5;2.25;2.0;1.0;-0.249023;0.030273;0.973145;-0.91;-1.05;0.84;555.0;-0.095703;-0.065393
1.86;8.25;6.5;5.75;4.25;1.0;0.5;0.25;0.0;2.25;0.5;0.75;0.25;0.0;1.75;0.25;0.25;-0.21875;0.013672;0.992188;-0.56;0.84;0.63;372.0;-0.21437;0.01002;5.5;8.0;5.0;6.0;1.5;4.0;0.75;1.0;3.25;1.75;3.0;1.75;1.5;2.5;1.5;1.0;-0.25293;0.024902;0.972656;-0.84;-1.12;0.91;552.0;-0.09879;-0.062261
1.87;8.0;6.75;5.75;4.5;1.0;0.5;0.25;0.25;2.0;0.5;1.0;0.5;0.0;1.75;0.25;0.0;-0.223145;0.022949;0.983887;-0.56;0.98;0.56;379.0;-0.212814;-0.002651;5.75;8.0;4.5;6.0;1.25;3.75;0.75;1.0;3.25;2.0;3.0;1.75;1.5;2.75;1.75;1.0;-0.258789;0.034668;0.969238;-0.84;-1.05;0.91;551.0;-0.091529;-0.061037
1.88;8.25;7.0;5.5;4.75;1.0;0.75;0.25;0.25;2.25;0.25;0.5;0.5;0.25;1.5;0.25;0.25;-0.219727;0.025879;0.989258;-0.63;0.91;0.49;384.0;-0.219992;-0.008786;5.75;8.5;4.25;6.0;1.5;3.75;0.75;1.0;3.25;1.75;3.0;1.5;1.75;2.5;1.5;1.0;-0.25293;0.029297;0.975098;-0.77;-1.12;0.91;547.0;-0.100677;-0.064213
1.89;7.75;6.75;5.75;4.5;1.0;0.75;0.25;0.25;2.25;0.25;1.25;0.5;0.25;1.75;0.0;0.25;-0.218262;0.020996;0.988281;-0.56;0.84;0.56;384.0;-0.206738;-0.00774;5.5;8.5;4.25;6.0;1.25;3.75;0.5;0.75;3.0;1.75;2.75;1.75;1.75;2.5;1.5;0.75;-0.256836;0.030273;0.97168;-0.84;-1.19;0.91;528.0;-0.10482;-0.068241
1.9;8.0;6.5;6.0;4.75;1.0;0.75;0.25;0.25;2.0;0.5;0.75;0.5;0.25;1.75;0.0;0.25;-0.225098;0.023438;0.984863;-0.63;0.98;0.49;384.0;-0.215352;-0.007252;5.5;8.5;4.25;6.0;1.25;4.0;0.75;0.75;3.25;1.75;3.0;1.75;1.75;2.25;1.75;0.75;-0.259277;0.02832;0.978027;-0.77;-1.05;0.84;542.0;-0.09905;-0.06612
1.91;8.25;6.75;6.0;4.5;1.0;0.75;0.25;0.25;2.0;0.5;0.5;0.5;0.25;1.75;0.25;0.0;-0.224121;0.026367;0.983887;-0.56;0.84;0.49;385.0;-0.218344;-0.004316;5.25;8.25;4.5;6.25;1.5;4.0;0.75;1.0;3.25;1.75;2.75;1.75;1.5;2.25;1.75;1.0;-0.258789;0.02832;0.970703;-0.84;-1.12;0.84;546.0;-0.09907;-0.067056
1.92;8.75;7.25;5.75;4.5;0.75;0.75;0.25;0.25;2.0;0.5;0.75;0.5;0.25;1.5;0.25;0.0;-0.222168;0.023438;0.98584;-0.56;0.98;0.49;390.0;-0.224433;-0.007902;5.5;8.25;4.25;5.75;1.5;4.0;0.5;1.0;3.25;1.75;3.0;1.75;1.5;2.5;1.75;1.0;-0.251953;0.030762;0.97168;-0.77;-1.12;0.84;541.0;-0.095084;-0.066834
1.93;8.25;7.25;6.0;4.75;1.0;0.75;0.0;0.0;2.25;0.5;0.75;0.5;0.25;1.5;0.25;0.25;-0.222168;0.021484;0.984375;-0.63;0.84;0.42;390.0;-0.220736;-0.007093;5.75;8.25;4.25;6.0;1.5;3.75;0.75;1.0;3.25;1.75;3.25;1.75;1.5;2.5;1.5;1.0;-0.258789;0.032227;0.971191;-0.77;-1.05;0.84;548.0;-0.097054;-0.063523
1.94;8.25;6.75;6.0;4.75;1.0;0.5;0.0;0.0;2.0;0.5;0.5;0.5;0.25;1.5;0.0;0.25;-0.220703;0.01709;0.98584;-0.56;0.98;0.56;373.0;-0.231463;-0.004111;5.75;8.5;4.25;6.0;1.5;4.0;0.75;1.0;3.25;1.75;3.0;1.75;1.5;2.5;1.5;1.0;-0.251465;0.026367;0.974609;-0.84;-1.12;0.84;550.0;-0.100493;-0.064852
1.95;8.25;6.75;6.0;4.75;1.0;0.5;0.0;0.0;2.0;0.25;0.5;0.5;0.25;1.5;0.25;0.25;-0.220215;0.020996;0.987305;-0.56;0.98;0.49;373.0;-0.230147;-0.005229;5.75;8.0;4.5;6.0;1.5;4.25;0.75;1.0;3.0;1.75;3.0;1.75;1.5;2.5;1.5;0.75;-0.257324;0.03125;0.972656;-0.7;-1.19;0.84;546.0;-0.102364;-0.065736
1.96;8.25;6.5;6.0;4.75;1.0;0.5;0.0;0.0;2.0;0.5;0.5;0.5;0.25;1.5;0.25;0.25;-0.221191;0.022949;0.986328;-0.49;0.84;0.56;373.0;-0.225306;-0.003617;5.75;8.5;5.0;6.25;1.5;4.25;0.75;1.0;3.0;1.5;3.0;1.75;1.5;2.5;2.0;1.0;-0.258301;0.029785;0.973145;-0.77;-1.12;0.91;565.0;-0.103249;-0.067271
1.97;8.25;7.25;5.75;4.75;1.0;0.5;0.25;0.25;2.0;0.5;0.75;0.5;0.25;1.5;0.25;0.25;-0.222168;0.02002;0.992188;-0.56;0.98;0.56;389.0;-0.219878;-0.009877;6.0;8.5;5.0;6.25;1.5;4.0;0.75;1.0;3.25;2.0;2.75;1.75;1.5;2.5;1.75;1.0;-0.257324;0.031738;0.970703;-0.84;-1.12;0.91;568.0;-0.103019;-0.061536
1.98;8.25;7.0;5.75;4.75;1.0;0.5;0.0;0.0;2.0;0.5;0.5;0.5;0.0;1.75;0.0;0.25;-0.222168;0.021484;0.990234;-0.63;0.98;0.63;372.0;-0.230957;-0.001947;5.75;8.25;4.5;6.25;1.5;4.0;0.75;0.75;3.25;2.0;2.75;1.5;1.75;2.5;1.5;1.0;-0.25293;0.026855;0.970703;-0.84;-1.05;0.84;549.0;-0.102047;-0.061485
1.99;7.75;7.25;5.75;4.75;1.0;0.5;0.0;0.25;2.0;0.5;0.5;0.5;0.0;1.75;0.25;0.25;-0.223633;0.024414;0.986816;-0.63;0.91;0.56;376.0;-0.222327;-0.009636;6.0;8.25;5.0;6.25;1.25;4.25;0.75;1.0;3.0;1.75;3.0;1.25;1.75;2.5;1.75;1.0;-0.254883;0.025391;0.972656;-0.84;-1.12;0.91;559.0;-0.106175;-0.065187
2.0;8.25;6.75;5.75;4.75;1.0;0.5;0.0;0.0;2.25;0.5;0.25;0.5;0.0;1.75;0.25;0.25;-0.219238;0.024414;0.987793;-0.56;0.91;0.49;374.0;-0.223636;0.002064;6.0;8.0;5.0;6.25;1.25;4.0;0.75;1.25;3.0;1.75;3.0;1.75;1.5;2.25;1.5;1.0;-0.25;0.033203;0.97168;-0.91;-0.98;0.91;556.0;-0.10654;-0.067701
2.01;8.25;7.25;5.75;4.75;1.0;0.5;0.0;0.0;2.25;0.5;0.25;0.25;0.0;2.25;0.0;0.5;-0.221191;0.022461;0.979492;-0.56;0.98;0.49;379.0;-0.22419;0.003648;6.0;8.5;5.0;6.25;1.5;3.75;0.75;1.0;3.0;1.75;3.0;1.75;1.5;2.5;1.5;0.75;-0.250488;0.026855;0.975586;-0.77;-1.12;0.84;557.0;-0.108982;-0.062706
2.02;8.25;7.25;5.75;4.75;1.0;0.5;0.0;0.25;2.25;0.5;0.5;0.25;0.25;1.75;0.25;0.25;-0.222168;0.023438;0.98291;-0.63;0.77;0.42;385.0;-0.221373;-0.005878;6.0;8.25;5.0;6.0;1.5;4.0;0.75;1.0;3.25;1.75;3.0;1.5;1.5;2.5;2.0;1.0;-0.251953;0.029785;0.969727;-0.91;-1.05;0.84;563.0;-0.099688;-0.060014
2.03;8.25;6.75;5.75;4.25;1.0;0.5;0.25;0.25;2.25;0.5;0.5;0.25;0.25;1.5;0.25;0.25;-0.216797;0.020996;0.98584;-0.63;0.91;0.49;376.0;-0.218307;0.001355;6.0;8.0;5.0;6.0;1.25;3.75;0.75;1.0;3.25;1.5;3.0;1.5;1.5;2.5;1.75;1.0;-0.253906;0.027832;0.970215;-0.84;-0.98;0.84;549.0;-0.102221;-0.059562
2.04;8.25;7.25;5.75;4.5;1.0;0.5;0.25;0.25;2.25;0.5;0.5;0.5;0.25;1.25;0.25;0.0;-0.220703;0.024414;0.986816;-0.49;0.84;0.49;383.0;-0.224309;-0.004709;5.75;8.25;5.0;6.25;1.25;4.5;0.75;1.0;3.25;1.75;3.0;1.25;1.5;2.5;1.5;1.0;-0.255859;0.032227;0.975098;-0.98;-1.05;0.84;557.0;-0.106394;-0.063238
2.05;8.25;7.25;5.75;4.5;1.0;0.5;0.25;0.25;2.0;0.75;0.75;0.5;0.25;1.5;0.25;0.0;-0.219727;0.019531;0.987305;-0.49;0.91;0.49;387.0;-0.218196;-0.00651;6.0;8.0;5.0;6.25;1.5;4.0;0.75;1.0;3.25;1.75;3.0;1.5;1.5;2.5;1.5;1.0;-0.252441;0.030762;0.973145;-0.84;-0.98;0.77;558.0;-0.104483;-0.060193
2.06;8.5;7.25;6.0;4.5;1.0;0.75;0.25;0.25;2.0;0.5;0.75;0.5;0.25;1.5;0.25;0.25;-0.224609;0.020996;0.992676;-0.63;0.7;0.49;395.0;-0.220521;-0.008609;6.0;8.5;4.5;6.0;1.25;3.5;0.5;1.0;3.25;1.75;3.0;1.75;1.5;2.5;1.5;0.5;-0.254883;0.031738;0.973145;-0.91;-1.05;0.84;540.0;-0.106207;-0.062462
2.07;8.25;7.25;5.75;4.75;1.0;0.5;0.25;0.25;2.25;0.5;0.75;0.75;0.0;1.25;0.25;0.25;-0.21582;0.023438;0.992676;-0.63;0.77;0.56;391.0;-0.218459;-0.007777;5.5;8.0;4.25;6.25;1.25;4.25;0.5;1.0;3.25;1.75;2.5;1.75;1.5;2.5;1.5;0.75;-0.254883;0.029297;0.978027;-0.84;-0.98;0.84;534.0;-0.103273;-0.068715
2.08;8.5;7.0;5.75;4.75;1.0;0.5;0.25;0.25;2.25;0.5;0.75;0.5;0.25;1.75;0.0;0.25;-0.22168;0.01709;0.987305;-0.56;0.63;0.56;392.0;-0.216438;-0.003788;5.5;8.5;4.5;6.25;1.25;4.0;0.75;1.0;3.25;1.75;2.5;1.75;1.75;2.5;1.5;1.0;-0.251953;0.027344;0.976562;-0.84;-0.98;0.77;547.0;-0.102987;-0.067632
2.09;7.75;7.25;5.75;4.75;1.0;0.5;0.0;0.25;2.25;0.5;0.75;0.5;0.25;2.0;0.25;0.25;-0.22168;0.020996;0.98291;-0.49;0.63;0.56;387.0;-0.208415;-0.009423;6.0;8.5;4.5;6.0;1.25;3.75;0.75;1.0;3.25;1.75;2.75;1.75;1.5;2.5;1.25;1.0;-0.254883;0.02832;0.972656;-0.77;-0.91;0.77;545.0;-0.10696;-0.062286
2.1;7.75;7.25;5.75;4.75;1.0;0.5;0.0;0.25;2.25;0.5;1.0;0.25;0.25;2.0;0.0;0.25;-0.222656;0.023926;0.984375;-0.63;0.84;0.49;385.0;-0.212904;-0.007527;6.0;8.0;4.5;6.0;1.5;3.5;0.5;1.0;3.0;1.75;2.75;1.75;1.5;2.5;1.75;1.0;-0.257324;0.029785;0.970215;-0.91;-0.91;0.84;538.0;-0.102272;-0.064244
2.11;8.0;7.25;5.75;4.75;1.0;0.5;0.0;0.0;2.0;0.5;1.0;0.25;0.25;1.5;0.0;0.25;-0.21582;0.022461;0.989746;-0.63;0.98;0.56;375.0;-0.228787;-0.007364;5.75;8.0;4.5;6.0;1.5;4.0;0.5;1.0;3.0;1.75;2.75;1.75;1.75;2.5;1.5;0.75;-0.25293;0.030273;0.976562;-0.84;-1.12;0.84;539.0;-0.10404;-0.068412
2.12;8.25;7.25;5.75;4.75;1.0;0.5;0.0;0.0;2.0;0.5;0.75;0.25;0.25;1.5;0.25;0.25;-0.225098;0.02002;0.989746;-0.63;0.84;0.49;378.0;-0.228708;-0.006239;5.5;8.0;4.5;6.0;1.25;4.0;0.5;1.0;3.0;1.75;2.75;1.75;1.5;2.5;1.5;0.75;-0.255859;0.03125;0.976074;-0.98;-1.05;0.77;531.0;-0.103539;-0.068346
2.13;8.0;7.25;6.0;4.75;1.0;0.5;0.0;0.0;2.0;0.5;0.75;0.25;0.25;1.25;0.25;0.25;-0.219238;0.02002;0.983398;-0.56;0.91;0.49;376.0;-0.231654;-0.007467;6.0;8.0;4.5;6.0;1.25;4.25;0.75;1.0;3.0;1.75;2.75;2.0;1.5;2.5;2.0;1.0;-0.256348;0.025391;0.980469;-0.98;-1.05;0.91;553.0;-0.097336;-0.067303
2.14;8.25;7.25;6.0;4.75;1.0;0.75;0.0;0.25;2.0;0.5;0.75;0.25;0.0;1.75;0.0;0.25;-0.21875;0.025879;0.989258;-0.63;0.77;0.63;385.0;-0.229374;-0.007253;6.0;8.0;5.0;6.0;1.5;3.75;0.5;1.0;3.0;1.5;2.75;1.75;1.5;2.5;1.5;1.0;-0.253906;0.026367;0.974121;-1.12;-1.05;0.77;541.0;-0.10889;-0.064238
2.15;8.5;7.0;6.0;4.75;1.25;0.5;0.25;0.25;2.0;0.5;0.75;0.5;0.25;2.0;0.25;0.25;-0.220215;0.018555;0.989746;-0.56;0.56;0.56;400.0;-0.212233;-0.004584;6.0;8.0;5.0;6.0;1.25;4.0;0.75;1.0;3.0;1.75;3.0;1.5;1.5;2.25;1.5;0.75;-0.253906;0.026855;0.976562;-0.98;-1.05;0.77;544.0;-0.109202;-0.062479
2.16;8.25;7.0;6.0;4.75;1.0;0.5;0.25;0.0;2.0;0.5;0.75;0.5;0.25;1.75;0.25;0.0;-0.221191;0.023438;0.984375;-0.56;0.7;0.56;386.0;-0.219616;-0.001664;6.0;8.0;4.25;6.0;1.5;4.0;0.5;1.0;3.25;2.0;2.75;1.75;1.25;2.5;1.5;1.0;-0.255371;0.032227;0.977539;-0.91;-1.05;0.84;542.0;-0.101616;-0.06267
2.17;8.25;7.0;6.25;4.75;1.0;0.75;0.0;0.0;2.0;0.5;0.75;0.5;0.25;1.75;0.25;0.25;-0.224121;0.025391;0.984863;-0.63;0.77;0.56;390.0;-0.220425;-0.006792;6.0;8.25;5.0;6.25;1.5;3.75;0.75;0.75;3.25;1.75;3.0;1.5;1.25;2.5;1.5;0.75;-0.25293;0.026855;0.969238;-0.98;-1.05;0.84;549.0;-0.108784;-0.054608
2.18;8.25;7.0;6.0;4.75;1.0;0.5;0.0;0.25;2.0;0.5;1.0;0.5;0.25;1.5;0.0;0.25;-0.215332;0.021973;0.993652;-0.56;0.84;0.42;385.0;-0.223518;-0.011017;6.0;8.0;5.0;6.0;1.5;4.0;0.75;0.75;3.25;1.75;2.75;1.75;1.5;2.75;1.5;0.75;-0.250488;0.026855;0.970703;-0.84;-0.91;0.7;551.0;-0.103332;-0.056052
2.19;8.5;7.0;6.25;5.0;1.0;0.5;0.0;0.25;2.0;0.5;0.75;0.5;0.25;1.75;0.0;0.25;-0.221191;0.023438;0.988281;-0.49;0.7;0.56;394.0;-0.225137;-0.009133;6.0;8.0;5.0;6.0;1.5;3.5;0.5;1.0;3.0;1.75;2.75;1.75;1.25;2.5;1.5;0.75;-0.251953;0.025391;0.973633;-0.91;-0.98;0.84;537.0;-0.109315;-0.059975
2.2;8.75;7.0;6.0;5.0;1.0;0.5;0.0;0.25;2.0;0.5;0.5;0.25;0.25;1.75;0.25;0.25;-0.219727;0.026367;0.992188;-0.63;0.77;0.56;391.0;-0.227975;-0.006685;6.0;8.5;5.0;6.0;1.25;3.75;0.5;0.75;3.0;1.5;2.5;1.75;1.5;2.25;1.5;0.75;-0.252441;0.027832;0.973633;-0.98;-1.05;0.84;532.0;-0.117847;-0.063432
2.21;8.5;7.0;6.0;4.75;1.0;0.5;0.25;0.0;2.0;0.5;0.5;0.25;0.25;2.0;0.25;0.25;-0.222168;0.020996;0.988281;-0.56;0.63;0.63;387.0;-0.22143;0.00206;5.25;8.5;5.0;6.25;1.25;3.75;0.5;0.75;3.0;1.5;2.5;1.5;1.5;2.25;1.5;0.75;-0.256836;0.023926;0.967773;-0.98;-0.98;0.84;524.0;-0.11599;-0.06587
2.22;8.25;7.25;6.0;5.0;1.25;0.5;0.25;0.0;1.75;0.5;0.5;0.25;0.25;1.75;0.0;0.25;-0.214844;0.025391;0.983398;-0.56;0.91;0.49;384.0;-0.234114;-0.004108;5.75;8.5;4.25;6.25;1.25;3.75;0.5;1.0;3.25;1.75;3.0;1.75;1.5;2.5;1.5;0.75;-0.254883;0.025879;0.966797;-0.98;-1.05;0.77;542.0;-0.103741;-0.066951
2.23;8.25;7.5;6.0;5.0;1.0;0.75;0.25;0.25;2.0;0.5;0.75;0.25;0.25;1.5;0.25;0.25;-0.222656;0.023438;0.981445;-0.56;0.98;0.49;398.0;-0.224587;-0.011623;6.0;8.0;5.0;6.25;1.25;4.0;0.5;1.0;3.25;1.75;2.75;1.75;1.5;2.25;1.25;0.75;-0.253906;0.027832;0.975098;-1.12;-1.05;0.84;544.0;-0.112021;-0.064321
2.24;8.5;7.0;5.75;5.0;1.0;0.5;0.0;0.25;2.0;0.5;1.0;0.5;0.25;1.25;0.25;0.25;-0.219727;0.021484;0.98584;-0.56;0.91;0.49;389.0;-0.224136;-0.014232;6.0;8.0;5.0;6.25;1.5;4.0;0.75;1.0;3.0;1.75;2.75;1.75;1.5;2.5;1.25;1.0;-0.254883;0.021484;0.975586;-0.98;-1.05;0.84;551.0;-0.109567;-0.063191
2.25;8.25;7.0;6.0;4.75;1.0;0.5;0.25;0.25;1.75;0.5;1.0;0.5;0.25;1.5;0.0;0.25;-0.219727;0.024414;0.986816;-0.63;0.91;0.56;386.0;-0.224723;-0.010955;6.0;8.25;5.0;6.0;1.25;3.75;0.75;1.0;3.0;1.75;2.75;1.5;1.5;2.25;1.5;0.5;-0.257324;0.03125;0.96875;-0.98;-0.98;0.84;539.0;-0.113468;-0.060831
2.26;8.25;7.0;6.0;5.0;1.0;0.75;0.0;0.0;2.25;0.5;1.0;0.25;0.0;1.25;0.25;0.25;-0.222168;0.02002;0.98584;-0.63;0.84;0.56;386.0;-0.226062;-0.004736;6.0;8.0;5.0;6.0;1.25;3.75;0.75;0.75;3.0;1.75;2.75;1.5;1.5;2.75;1.75;0.5;-0.254395;0.025391;0.972168;-0.84;-0.98;0.84;540.0;-0.105545;-0.055852
2.27;8.5;7.25;6.0;4.75;1.0;0.5;0.0;0.25;2.25;0.5;1.0;0.25;0.0;1.5;0.25;0.25;-0.222168;0.021484;0.989746;-0.49;0.77;0.56;392.0;-0.222604;-0.004265;5.75;8.25;5.0;6.0;1.25;3.75;0.75;0.75;3.0;1.5;2.75;1.75;1.5;2.75;2.0;0.5;-0.251953;0.027344;0.974609;-0.84;-0.98;0.84;543.0;-0.102873;-0.059262
2.28;8.5;7.0;6.0;5.0;1.0;0.5;0.0;0.25;2.0;0.5;1.0;0.5;0.0;1.5;0.25;0.25;-0.219727;0.020508;0.984375;-0.56;0.7;0.63;392.0;-0.22305;-0.0096;6.0;8.25;4.5;6.0;1.25;4.0;0.5;1.0;3.0;1.75;2.75;1.75;1.5;2.25;1.5;0.75;-0.256836;0.027832;0.970215;-0.84;-0.98;0.84;536.0;-0.110404;-0.068001
2.29;8.5;7.25;6.0;5.0;1.0;0.5;0.0;0.25;1.75;0.5;0.75;0.5;0.0;1.5;0.25;0.25;-0.219727;0.02002;0.989258;-0.56;0.84;0.49;388.0;-0.232041;-0.012452;6.0;8.5;4.5;6.0;1.5;4.0;0.5;1.0;3.0;1.75;2.5;1.5;1.25;2.25;1.5;0.75;-0.251465;0.027344;0.974609;-0.77;-0.98;0.84;534.0;-0.116691;-0.064516
2.3;8.25;7.25;6.25;4.75;1.0;0.5;0.25;0.25;2.0;0.5;0.75;0.5;0.25;1.5;0.25;0.25;-0.225586;0.018066;0.98877;-0.56;0.77;0.49;395.0;-0.220582;-0.008346;6.0;8.25;4.25;6.25;1.0;4.0;0.5;1.0;3.0;1.75;2.75;1.75;1.5;2.25;1.5;0.5;-0.251953;0.024414;0.978027;-0.77;-0.98;0.7;532.0;-0.11174;-0.069833
2.31;8.25;7.25;6.25;4.75;1.0;0.5;0.25;0.25;2.0;0.5;1.0;0.25;0.25;1.5;0.0;0.25;-0.22168;0.019043;0.985352;-0.56;0.7;0.56;392.0;-0.225073;-0.006478;6.0;8.0;4.5;6.0;1.0;3.75;0.75;0.75;2.75;1.75;2.75;1.75;1.5;2.5;1.5;0.5;-0.258301;0.029297;0.979004;-0.77;-0.98;0.77;525.0;-0.109408;-0.06266
2.32;8.75;7.5;6.25;5.0;1.0;0.5;0.0;0.25;2.0;0.5;1.0;0.25;0.25;1.75;0.0;0.25;-0.220215;0.018555;0.986816;-0.63;0.77;0.49;402.0;-0.228699;-0.008975;6.0;8.0;4.5;6.0;1.5;3.5;0.75;0.75;3.0;1.75;2.75;1.75;1.5;2.5;1.5;0.75;-0.256348;0.024902;0.975098;-0.91;-0.98;0.84;533.0;-0.10559;-0.058528
2.33;8.5;7.5;6.0;5.0;1.0;0.5;0.0;0.25;2.0;0.5;0.75;0.25;0.25;1.5;0.25;0.25;-0.219238;0.020508;0.987793;-0.56;0.63;0.56;393.0;-0.229611;-0.011442;6.0;8.5;4.5;6.0;1.25;3.75;0.5;1.0;3.0;1.75;2.75;1.5;1.5;2.5;1.75;0.75;-0.257812;0.025879;0.977539;-0.84;-0.98;0.77;538.0;-0.108299;-0.065126
2.34;8.25;7.5;6.0;4.75;1.0;0.5;0.0;0.25;2.0;0.5;0.5;0.25;0.25;1.5;0.25;0.25;-0.219238;0.022461;0.987305;-0.56;0.84;0.56;385.0;-0.231269;-0.009887;6.0;8.5;5.0;6.25;1.5;4.25;0.75;1.0;3.0;1.75;3.0;1.5;1.5;2.5;1.75;0.75;-0.25293;0.032227;0.979004;-0.84;-0.98;0.77;563.0;-0.108434;-0.063834
2.35;8.5;7.5;6.25;5.0;1.0;0.75;0.25;0.25;2.0;0.5;0.75;0.5;0.25;1.75;0.25;0.25;-0.22168;0.025879;0.983398;-0.63;0.77;0.49;409.0;-0.219454;-0.010964;6.0;8.5;5.0;6.25;1.5;4.0;0.75;1.0;3.0;1.75;2.75;1.5;1.5;2.5;1.5;0.75;-0.251465;0.029297;0.974121;-0.77;-1.12;0.84;555.0;-0.112591;-0.062349
2.36;8.5;7.5;5.75;5.0;1.0;0.5;0.0;0.25;2.0;0.5;1.0;0.5;0.25;1.5;0.0;0.25;-0.22168;0.016113;0.993652;-0.56;0.91;0.56;393.0;-0.22745;-0.014551;5.75;8.0;5.0;6.0;1.25;3.5;0.5;1.0;3.0;1.75;2.75;1.75;1.5;2.5;1.5;1.0;-0.254395;0.029297;0.972168;-0.77;-0.91;0.77;535.0;-0.105146;-0.064017
2.37;8.25;7.5;6.25;5.0;1.0;0.5;0.0;0.25;2.0;0.5;0.75;0.5;0.0;1.25;0.0;0.25;-0.220215;0.021484;0.989746;-0.49;0.77;0.56;389.0;-0.236323;-0.011517;5.75;8.25;4.5;6.0;1.25;3.5;0.75;1.0;3.0;1.75;3.0;1.75;1.5;2.5;1.25;0.75;-0.254395;0.025879;0.973145;-0.77;-1.05;0.77;534.0;-0.105623;-0.063374
2.38;8.25;7.25;6.25;5.0;1.0;0.5;0.25;0.25;2.25;0.5;0.75;0.5;0.0;1.5;0.25;0.25;-0.214355;0.016602;0.981934;-0.56;0.84;0.63;399.0;-0.219113;-0.004768;6.0;8.25;5.0;6.25;1.25;3.75;0.75;0.75;3.0;1.75;2.75;1.75;1.5;2.75;1.5;0.75;-0.255859;0.035645;0.970215;-0.77;-1.12;0.77;547.0;-0.10775;-0.059108
2.39;8.5;7.0;6.0;5.0;1.0;0.75;0.0;0.25;2.0;0.5;1.0;0.5;0.25;1.5;0.5;0.25;-0.225098;0.021484;0.990234;-0.63;0.91;0.56;400.0;-0.215693;-0.01474;6.0;8.5;4.5;6.0;1.5;3.5;0.75;0.75;3.0;2.0;2.75;1.75;1.5;2.75;1.5;1.0;-0.254395;0.030762;0.978027;-0.7;-1.05;0.77;545.0;-0.103188;-0.058572
2.4;8.5;7.0;6.0;4.75;1.0;0.75;0.0;0.0;2.0;0.25;1.0;0.5;0.25;1.5;0.25;0.25;-0.222656;0.020508;0.98877;-0.7;1.05;0.42;387.0;-0.225289;-0.009135;6.0;8.5;4.5;6.0;1.0;3.25;0.5;0.75;3.0;1.75;2.75;1.75;1.5;2.5;1.5;0.5;-0.257324;0.027344;0.977539;-0.63;-0.98;0.84;524.0;-0.110873;-0.061366
2.41;8.5;7.25;6.0;5.0;1.25;0.5;0.0;0.0;2.0;0.25;1.0;0.5;0.25;1.5;0.25;0.25;-0.22168;0.018066;0.988281;-0.42;0.77;0.63;393.0;-0.226782;-0.009253;6.0;8.5;4.5;6.0;1.0;3.5;0.5;0.75;3.0;1.75;2.75;1.75;1.5;2.75;1.5;0.5;-0.251953;0.033691;0.975098;-0.7;-1.12;0.84;529.0;-0.108808;-0.061507
2.42;8.25;7.5;6.0;4.75;1.0;0.5;0.0;0.0;2.0;0.5;1.0;0.5;0.25;1.75;0.0;0.5;-0.216309;0.020996;0.986816;-0.56;0.91;0.49;390.0;-0.222265;-0.008984;5.75;8.5;4.25;5.75;1.25;3.5;0.75;0.75;3.0;1.75;2.75;1.75;1.5;2.5;1.5;1.0;-0.255859;0.029297;0.97168;-0.63;-1.05;0.91;528.0;-0.103589;-0.061759
2.43;8.25;7.5;6.0;4.75;1.0;0.5;0.0;0.25;2.0;0.5;0.75;0.5;0.0;1.75;0.25;0.5;-0.21875;0.021973;0.986328;-0.63;0.84;0.49;392.0;-0.221052;-0.010086;5.75;8.5;5.0;6.0;1.25;4.25;0.5;1.0;3.0;2.0;2.75;1.5;1.5;2.25;1.5;0.75;-0.253906;0.028809;0.972168;-0.63;-0.98;0.77;545.0;-0.11212;-0.06684
2.44;8.75;7.5;6.0;5.0;1.0;0.5;0.0;0.0;2.0;0.5;0.75;0.5;0.0;1.75;0.25;0.5;-0.224609;0.021484;0.986328;-0.56;0.77;0.56;396.0;-0.226349;-0.006003;6.0;8.5;4.5;5.75;1.5;4.25;0.5;1.0;3.0;1.75;3.0;1.5;1.5;2.25;1.5;0.5;-0.257812;0.030762;0.979004;-0.7;-1.05;0.84;540.0;-0.112372;-0.066365
2.45;8.5;7.5;6.0;5.0;1.0;0.75;0.0;0.0;2.0;0.5;1.0;0.5;0.0;1.25;0.25;0.5;-0.225098;0.027832;0.98584;-0.56;0.91;0.56;395.0;-0.22876;-0.011795;6.0;8.0;4.25;5.75;1.5;3.5;0.5;1.0;3.25;1.5;3.0;2.0;1.5;2.5;1.5;0.5;-0.253906;0.030762;0.976074;-0.63;-1.19;0.77;532.0;-0.101588;-0.062674
2.46;8.5;7.5;6.0;5.0;1.0;0.75;0.0;0.25;2.0;0.5;1.0;0.5;0.25;1.5;0.5;0.25;-0.220215;0.021973;0.984863;-0.63;0.91;0.49;405.0;-0.218194;-0.016624;6.0;8.25;4.5;5.75;1.5;4.0;0.5;1.0;3.0;1.75;3.0;1.75;2.0;2.5;1.5;0.75;-0.259277;0.027344;0.970215;-0.7;-1.05;0.77;546.0;-0.103118;-0.06903
2.47;8.25;7.0;6.0;5.0;1.0;0.5;0.0;0.25;2.25;0.5;0.5;0.5;0.25;1.75;0.25;0.5;-0.226562;0.023438;0.993164;-0.63;0.84;0.49;393.0;-0.215618;-0.00907;6.0;8.5;5.0;5.75;1.5;4.0;0.5;1.0;3.0;1.75;2.75;1.75;1.5;2.5;1.5;0.75;-0.251953;0.02832;0.974121;-0.77;-1.12;0.84;547.0;-0.110436;-0.06409
2.48;8.75;7.0;6.25;5.0;1.0;0.5;0.0;0.25;2.0;0.5;0.75;0.25;0.0;1.25;0.25;0.5;-0.216797;0.018555;0.98877;-0.56;0.84;0.49;391.0;-0.232716;-0.007349;5.75;8.25;4.5;6.0;1.25;3.75;0.75;1.0;3.0;1.75;2.75;1.75;1.5;2.5;1.5;0.5;-0.257324;0.029785;0.974121;-0.63;-1.05;0.77;536.0;-0.106193;-0.063666
2.49;8.5;7.0;6.25;5.0;1.0;0.5;0.0;0.25;2.25;0.5;0.5;0.25;0.25;1.25;0.25;0.25;-0.217285;0.019531;0.989258;-0.49;0.84;0.49;390.0;-0.230181;-0.006392;5.5;8.25;4.25;6.0;1.5;4.0;0.5;1.0;3.0;1.5;2.75;1.5;1.5;2.5;1.5;0.75;-0.252441;0.027832;0.973145;-0.7;-1.12;0.84;527.0;-0.107781;-0.068458
2.5;8.25;7.5;6.0;4.75;1.0;0.5;0.0;0.25;2.25;0.75;0.5;0.5;0.25;1.5;0.0;0.25;-0.223633;0.022949;0.991699;-0.56;0.91;0.49;391.0;-0.22482;-0.008329;5.75;8.25;4.5;5.75;1.5;4.0;0.5;1.0;3.0;1.75;3.0;1.5;1.5;2.25;1.5;0.5;-0.255859;0.026367;0.978516;-0.7;-1.05;0.84;532.0;-0.109162;-0.06567
2.51;8.25;7.0;5.75;4.75;1.0;0.5;0.25;0.0;2.25;0.25;0.75;0.5;0.25;1.75;0.25;0.25;-0.222656;0.019531;0.989258;-0.56;0.91;0.56;385.0;-0.215999;-0.001506;5.75;8.25;4.5;5.75;1.5;4.0;0.75;1.0;3.0;1.5;2.75;1.5;1.5;2.25;1.5;1.0;-0.253418;0.030273;0.973145;-0.7;-1.05;0.91;534.0;-0.108752;-0.065087
2.52;8.5;7.0;5.75;5.0;1.0;0.5;0.25;0.0;2.25;0.25;0.75;0.5;0.25;1.5;0.0;0.25;-0.216797;0.022949;0.98291;-0.56;1.05;0.49;386.0;-0.226338;-0.00291;5.75;8.5;5.0;6.0;1.75;4.5;0.5;1.0;3.25;1.5;2.75;1.75;1.75;2.25;1.5;1.0;-0.257324;0.026855;0.981934;-0.77;-1.12;0.84;559.0;-0.109611;-0.069204
2.53;8.25;7.0;6.25;5.0;1.0;0.5;0.0;0.25;2.25;0.5;1.0;0.5;0.25;1.75;0.0;0.5;-0.230957;0.023926;0.986816;-0.56;0.84;0.49;399.0;-0.214146;-0.009325;6.0;8.5;5.0;6.25;1.25;4.25;0.75;1.0;3.25;1.5;2.75;1.75;1.5;2.5;1.5;0.75;-0.257812;0.030762;0.974121;-0.63;-1.05;0.91;558.0;-0.110511;-0.063826
2.54;8.25;7.25;6.0;4.5;1.0;0.5;0.0;0.25;2.25;0.5;1.0;0.5;0.25;1.75;0.25;0.25;-0.222168;0.023438;0.989746;-0.56;0.98;0.49;394.0;-0.211562;-0.007195;6.0;8.0;5.0;6.25;1.25;3.75;0.75;1.0;3.25;1.5;2.75;1.75;1.5;2.5;1.75;0.75;-0.254395;0.026855;0.974121;-0.77;-1.05;0.91;550.0;-0.104555;-0.060723
2.55;8.25;7.5;6.0;4.75;1.0;0.5;0.0;0.0;2.25;0.5;0.75;0.25;0.25;1.75;0.25;0.25;-0.22168;0.018555;0.994141;-0.63;1.12;0.42;389.0;-0.221932;-0.002851;5.25;8.5;4.5;6.25;1.25;4.0;0.5;1.0;3.25;1.75;3.0;1.75;1.5;2.5;1.5;1.0;-0.253906;0.026855;0.970703;-0.7;-1.12;0.84;544.0;-0.100534;-0.069702
2.56;8.5;7.0;6.0;4.75;1.0;0.5;0.0;0.0;2.0;0.75;0.75;0.25;0.0;1.75;0.25;0.0;-0.21875;0.02002;0.981934;-0.63;0.98;0.49;383.0;-0.226409;0.002059;5.0;8.25;4.25;6.0;1.5;3.75;0.75;1.0;3.25;1.75;3.0;1.5;1.5;2.5;1.5;0.75;-0.251465;0.030273;0.972168;-0.7;-1.12;0.84;532.0;-0.096834;-0.064038
2.57;8.25;7.25;6.0;4.75;1.0;0.5;0.25;0.25;2.0;0.5;0.75;0.25;0.0;1.75;0.25;0.25;-0.222168;0.021484;0.990234;-0.63;0.98;0.56;389.0;-0.221994;-0.003129;5.75;8.5;4.5;6.25;1.5;3.75;0.75;1.0;3.25;1.5;3.0;1.5;1.5;2.5;1.75;1.0;-0.254883;0.030762;0.96875;-0.7;-1.12;0.84;551.0;-0.102878;-0.063293
2.58;8.25;7.25;6.0;4.75;1.0;0.5;0.25;0.25;2.0;0.5;0.75;0.25;0.0;1.25;0.0;0.25;-0.216309;0.019531;0.992188;-0.56;0.91;0.49;382.0;-0.234443;-0.004736;6.0;8.0;5.0;6.25;1.25;4.0;0.75;1.0;3.25;1.75;3.0;1.75;1.5;2.5;1.75;0.75;-0.253418;0.024414;0.969727;-0.84;-1.05;0.84;559.0;-0.101362;-0.061501
2.59;8.25;7.25;6.0;4.75;1.0;0.5;0.0;0.25;2.0;0.5;0.75;0.5;0.0;1.5;0.25;0.25;-0.217773;0.022461;0.990234;-0.63;0.91;0.49;386.0;-0.225822;-0.009031;5.75;8.5;4.5;6.0;1.25;3.75;0.75;0.75;3.0;1.75;3.0;1.75;1.5;2.5;1.5;0.75;-0.252441;0.027832;0.970215;-0.84;-1.05;0.84;538.0;-0.105325;-0.062573
2.6;8.5;7.25;6.0;4.75;1.0;0.5;0.0;0.25;2.0;0.5;1.0;0.5;0.0;1.75;0.0;0.25;-0.217285;0.022461;0.994629;-0.49;0.84;0.56;391.0;-0.224655;-0.007313;5.5;8.5;5.0;6.25;1.25;3.75;0.75;1.0;3.0;1.5;2.75;1.75;1.5;2.5;1.5;1.0;-0.254395;0.026855;0.973145;-0.7;-1.12;0.84;545.0;-0.108142;-0.066236
2.61;8.25;7.0;6.0;4.75;1.0;1.0;0.0;0.0;2.0;0.5;1.25;0.5;0.0;1.5;0.25;0.25;-0.219727;0.022461;0.988281;-0.63;1.05;0.49;391.0;-0.219129;-0.009521;5.75;8.5;4.5;6.25;1.5;3.75;0.75;1.0;3.0;1.5;2.75;1.5;1.75;2.5;1.25;1.0;-0.256348;0.030273;0.970215;-0.7;-1.05;0.84;541.0;-0.111217;-0.066781
2.62;8.25;7.0;6.25;4.75;1.0;0.5;0.0;0.0;2.0;0.5;1.0;0.5;0.0;1.5;0.25;0.0;-0.222168;0.02002;0.987793;-0.63;1.05;0.49;383.0;-0.226097;-0.002679;5.75;8.5;4.25;6.0;1.5;3.75;0.75;1.0;3.0;1.75;3.0;1.25;1.75;2.5;1.5;0.75;-0.257324;0.026367;0.970215;-0.77;-1.19;0.77;539.0;-0.105965;-0.064537
2.63;8.5;7.25;6.0;4.75;1.0;0.5;0.0;0.25;2.0;0.5;0.75;0.5;0.25;1.5;0.25;0.0;-0.21875;0.020996;0.987305;-0.63;0.91;0.56;389.0;-0.226952;-0.009752;5.5;8.5;4.5;6.0;1.5;3.75;0.75;1.0;3.25;1.75;3.0;1.5;1.75;2.5;1.5;1.0;-0.257324;0.029785;0.976074;-0.77;-1.05;0.91;547.0;-0.100032;-0.064252
2.64;8.5;7.0;6.0;4.75;1.0;0.5;0.0;0.25;2.0;0.5;0.5;0.25;0.0;1.5;0.25;0.25;-0.21875;0.019531;0.982422;-0.56;0.91;0.56;380.0;-0.232573;-0.004133;5.5;8.5;4.5;6.0;1.75;3.75;0.75;1.0;3.25;1.75;2.75;1.75;1.25;2.5;1.5;1.0;-0.252441;0.031738;0.978516;-0.77;-1.12;0.84;546.0;-0.102577;-0.061082
2.65;8.25;7.0;6.0;4.75;1.0;0.5;0.0;0.25;2.0;0.5;0.5;0.25;0.25;1.5;0.25;0.25;-0.223633;0.019531;0.987305;-0.56;0.84;0.56;380.0;-0.228807;-0.007812;6.0;8.0;5.0;6.0;1.5;3.75;0.75;1.0;3.25;1.75;2.75;1.75;1.5;2.5;1.75;0.75;-0.257324;0.030273;0.973145;-0.63;-1.05;0.91;553.0;-0.101901;-0.05853
2.66;8.5;7.0;5.75;5.0;1.0;0.5;0.0;0.25;2.0;0.5;0.75;0.5;0.25;1.5;0.25;0.25;-0.219727;0.020996;0.986328;-0.42;0.77;0.56;388.0;-0.223644;-0.012336;6.0;8.0;4.25;6.0;1.0;3.75;0.75;1.0;3.25;1.75;3.0;1.75;1.5;2.5;1.5;1.0;-0.253906;0.027344;0.980957;-0.77;-1.12;0.91;539.0;-0.098566;-0.06325
2.67;8.5;7.25;5.75;4.75;1.0;0.25;0.0;0.25;2.0;0.5;0.25;0.5;0.25;1.5;0.25;0.25;-0.218262;0.019043;0.990723;-0.63;0.91;0.42;379.0;-0.231768;-0.008069;5.25;8.0;4.25;6.0;1.25;3.5;0.75;1.0;3.25;1.75;2.75;1.75;1.5;2.5;1.5;1.0;-0.250488;0.030762;0.965332;-0.7;-1.12;0.84;528.0;-0.095276;-0.063843
2.68;8.5;7.0;5.75;4.75;1.0;0.25;0.25;0.25;2.0;0.5;0.25;0.5;0.25;1.75;0.25;0.25;-0.222656;0.020508;0.984863;-0.77;0.91;0.49;383.0;-0.223289;-0.003207;5.25;8.0;5.0;6.0;1.5;4.0;0.75;1.0;3.25;2.0;2.75;1.75;1.75;2.5;1.5;0.75;-0.253906;0.024902;0.974121;-0.7;-1.05;0.77;550.0;-0.097247;-0.063244
2.69;8.25;7.0;6.0;4.75;1.0;0.5;0.0;0.25;2.0;0.75;0.75;0.25;0.25;1.5;0.25;0.25;-0.220215;0.018555;0.989746;-0.63;0.84;0.56;385.0;-0.221972;-0.008085;5.75;8.25;4.5;6.0;1.25;3.75;0.75;1.0;3.0;1.75;2.75;1.25;1.75;2.5;1.5;0.75;-0.253418;0.03125;0.973145;-0.7;-1.19;0.84;534.0;-0.10708;-0.06361
2.7;8.25;7.0;6.0;4.75;1.0;0.75;0.25;0.25;2.0;0.5;1.25;0.5;0.25;1.5;0.25;0.25;-0.217773;0.019043;0.990723;-0.63;0.84;0.42;398.0;-0.212073;-0.011616;5.25;8.25;4.5;6.0;1.25;3.5;0.75;1.0;3.25;1.75;2.75;1.5;1.75;2.75;1.75;0.5;-0.256836;0.026855;0.973633;-0.77;-0.98;0.77;535.0;-0.095853;-0.061623
2.71;8.25;7.25;6.0;4.75;1.0;0.75;0.25;0.25;2.0;0.5;1.0;0.5;0.25;1.75;0.25;0.25;-0.219238;0.026367;0.985352;-0.56;0.77;0.56;400.0;-0.212868;-0.010746;5.25;8.5;5.0;6.0;1.25;3.5;0.75;1.0;3.25;1.75;2.75;1.75;1.5;2.5;1.75;1.0;-0.253418;0.028809;0.969727;-0.63;-1.19;0.77;545.0;-0.098461;-0.062315
2.72;8.5;7.25;6.0;4.75;1.0;0.5;0.25;0.25;2.25;0.75;0.75;0.5;0.25;1.75;0.25;0.25;-0.219238;0.020508;0.986816;-0.49;0.77;0.49;404.0;-0.210409;-0.004178;5.5;8.25;4.5;6.0;1.5;3.5;0.75;1.0;3.25;1.75;2.75;1.75;1.5;2.5;1.5;1.0;-0.259277;0.024902;0.972168;-0.63;-0.98;0.91;539.0;-0.099522;-0.061853
2.73;8.25;7.0;6.0;4.75;1.0;0.5;0.25;0.25;2.0;0.75;1.0;0.5;0.25;1.75;0.25;0.25;-0.218262;0.017578;0.989746;-0.56;0.7;0.49;398.0;-0.208789;-0.007265;5.25;8.0;4.0;6.0;1.5;4.0;0.75;1.0;3.25;1.75;2.75;1.75;1.75;2.5;1.5;1.0;-0.254395;0.021973;0.976562;-0.7;-0.91;0.84;536.0;-0.093944;-0.068079
2.74;8.0;7.0;6.0;4.75;1.0;0.5;0.25;0.0;2.0;0.75;1.0;0.5;0.25;1.75;0.25;0.25;-0.222656;0.027832;0.992188;-0.7;0.84;0.49;391.0;-0.209475;-0.004008;5.0;8.0;4.25;6.0;1.5;4.0;0.75;1.0;3.25;2.0;3.0;1.75;1.5;2.5;1.5;1.0;-0.250488;0.030762;0.970703;-0.63;-0.98;0.84;540.0;-0.090987;-0.065959
2.75;8.25;7.0;6.0;4.75;1.0;0.5;0.25;0.25;2.0;0.5;1.0;0.5;0.25;1.5;0.0;0.5;-0.217773;0.022949;0.986328;-0.63;0.84;0.49;391.0;-0.218106;-0.009493;5.25;8.0;4.5;5.75;1.5;4.25;0.75;1.0;3.25;1.75;3.0;1.75;1.5;2.5;1.5;1.0;-0.255371;0.024902;0.97998;-0.56;-1.05;0.7;543.0;-0.09458;-0.065112
2.76;8.25;7.25;6.0;4.75;1.0;0.5;0.25;0.25;2.0;0.5;1.25;0.25;0.0;1.25;0.25;0.5;-0.222656;0.025879;0.990234;-0.56;0.91;0.56;392.0;-0.220772;-0.008094;5.25;8.25;4.25;5.75;1.5;4.25;0.75;1.0;3.5;2.0;2.75;1.75;1.75;2.5;1.5;1.0;-0.252441;0.023438;0.970703;-0.63;-1.05;0.84;548.0;-0.091621;-0.06499
2.77;8.5;7.0;6.0;4.75;1.0;0.5;0.25;0.0;2.25;0.25;1.0;0.25;0.0;1.75;0.25;0.25;-0.222168;0.020508;0.986328;-0.63;0.77;0.49;389.0;-0.219982;0.004136;5.25;7.75;4.5;6.0;1.5;4.0;0.75;1.0;3.25;2.0;3.0;1.75;1.75;2.5;1.5;1.0;-0.254883;0.026367;0.976074;-0.63;-0.98;0.77;546.0;-0.090953;-0.06543
2.78;8.5;7.0;6.0;4.75;1.0;0.5;0.0;0.0;2.0;0.25;1.0;0.5;0.0;1.75;0.0;0.25;-0.222168;0.01709;0.984375;-0.56;0.84;0.56;381.0;-0.229172;-0.002595;4.75;7.75;4.25;5.75;1.5;4.0;0.75;1.0;3.25;2.0;3.0;1.75;1.75;3.0;1.5;1.0;-0.259766;0.023926;0.96875;-0.63;-1.05;0.77;538.0;-0.081245;-0.065153
2.79;8.0;7.25;6.0;4.75;1.0;0.5;0.0;0.0;2.25;0.5;1.0;0.5;0.25;1.75;0.0;0.25;-0.219727;0.02002;0.996582;-0.56;0.7;0.63;387.0;-0.217481;-0.005036;4.75;7.75;4.5;5.5;1.0;3.5;0.5;1.0;3.25;1.75;3.0;1.75;1.75;2.5;1.75;1.0;-0.249512;0.02832;0.973145;-0.56;-0.91;0.84;518.0;-0.084585;-0.067825
2.8;8.5;7.25;5.5;4.75;1.0;0.5;0.0;0.25;2.0;0.5;0.75;0.5;0.25;1.75;0.25;0.25;-0.217285;0.022461;0.989258;-0.7;0.77;0.42;387.0;-0.22026;-0.011351;4.75;7.75;4.25;5.5;1.25;3.75;0.75;1.0;3.25;2.0;3.0;1.75;1.75;2.5;1.75;1.0;-0.255859;0.029785;0.975586;-0.56;-1.05;0.77;528.0;-0.081113;-0.066023
2.81;8.25;7.25;5.75;4.75;1.0;0.5;0.25;0.25;2.0;0.5;0.5;0.5;0.25;1.75;0.25;0.25;-0.225098;0.026855;0.992676;-0.49;0.77;0.56;388.0;-0.219381;-0.007975;5.25;7.5;4.0;5.5;1.25;3.75;0.75;1.0;3.25;2.0;2.75;1.75;1.75;2.75;1.75;1.0;-0.258301;0.026855;0.978516;-0.56;-1.05;0.77;527.0;-0.081391;-0.063223
2.82;8.0;7.0;6.0;4.75;1.0;0.5;0.25;0.25;2.0;0.5;0.5;0.5;0.25;1.5;0.25;0.25;-0.220215;0.016602;0.987793;-0.56;0.77;0.49;384.0;-0.220918;-0.008149;4.75;8.0;4.25;6.0;1.5;3.75;0.75;1.0;3.5;1.75;3.0;1.75;1.5;2.75;2.0;1.0;-0.258301;0.030273;0.975098;-0.63;-1.05;0.77;543.0;-0.08105;-0.063303
2.83;8.0;7.0;6.0;4.75;1.0;0.5;0.25;0.25;2.0;0.5;1.0;0.5;0.25;1.5;0.25;0.25;-0.220703;0.019043;0.988281;-0.63;0.7;0.56;390.0;-0.214357;-0.009731;5.0;7.75;4.0;5.5;1.5;4.0;0.75;1.0;3.75;2.0;3.0;1.5;1.5;2.75;2.0;1.0;-0.250977;0.024902;0.968262;-0.7;-0.91;0.84;541.0;-0.075851;-0.058004
2.84;8.5;7.25;5.5;4.75;1.0;0.5;0.0;0.25;2.25;0.5;0.75;0.5;0.0;1.5;0.5;0.25;-0.221191;0.02002;0.983887;-0.56;0.77;0.49;389.0;-0.217385;-0.007647;4.75;7.75;4.0;6.0;1.5;3.75;0.75;1.0;3.5;2.0;3.0;1.75;1.5;2.75;2.0;0.75;-0.254395;0.033203;0.972656;-0.63;-0.91;0.7;539.0;-0.077951;-0.062327
2.85;8.25;7.0;6.0;5.0;1.0;0.5;0.0;0.25;2.25;0.5;1.0;0.5;0.25;1.75;0.25;0.25;-0.21875;0.02002;0.991211;-0.49;0.84;0.56;397.0;-0.211407;-0.009473;4.75;7.75;4.25;6.0;1.5;3.5;0.75;1.0;3.25;2.0;3.0;1.75;1.5;2.75;1.5;0.75;-0.254883;0.030273;0.974609;-0.7;-1.05;0.77;529.0;-0.086133;-0.06233
2.86;8.25;7.0;6.0;5.0;1.0;0.75;0.0;0.25;2.5;0.5;1.0;0.5;0.25;1.75;0.25;0.5;-0.219727;0.017578;0.992188;-0.49;0.77;0.56;405.0;-0.204754;-0.010013;4.75;7.5;4.0;5.75;1.5;3.75;0.75;1.0;3.25;1.75;2.75;1.75;1.75;2.75;1.5;1.0;-0.254395;0.02832;0.975586;-0.77;-1.05;0.84;522.0;-0.083777;-0.065889
2.87;8.25;7.0;6.25;4.75;1.0;0.75;0.25;0.25;2.25;0.5;1.0;0.5;0.25;1.25;0.25;0.25;-0.224121;0.023438;0.981934;-0.56;0.91;0.42;400.0;-0.215051;-0.008641;4.75;7.5;4.0;5.5;1.5;4.0;0.75;1.0;3.75;2.0;3.0;1.75;2.0;2.5;1.75;1.0;-0.257812;0.025391;0.972656;-0.7;-1.12;0.84;538.0;-0.073546;-0.064073
2.88;8.25;7.25;6.0;4.75;1.0;0.75;0.25;0.25;2.0;0.75;1.0;0.75;0.25;1.75;0.5;0.25;-0.217773;0.020508;0.988281;-0.63;0.77;0.49;409.0;-0.202392;-0.012737;4.75;7.5;4.25;5.75;1.5;4.0;0.75;1.0;3.75;2.25;3.0;1.75;1.75;2.75;2.0;0.75;-0.254395;0.027344;0.974609;-0.56;-1.05;0.84;548.0;-0.071796;-0.060123
2.89;8.25;7.0;5.75;4.75;1.0;0.75;0.25;0.25;2.0;0.5;1.25;0.75;0.25;1.75;0.25;0.25;-0.223145;0.021484;0.989746;-0.63;0.84;0.49;400.0;-0.205014;-0.013332;4.75;7.25;4.5;5.75;1.5;4.0;0.75;1.0;3.75;2.0;3.0;1.75;1.75;2.75;1.75;1.0;-0.254883;0.025879;0.975098;-0.7;-1.05;0.84;544.0;-0.074266;-0.060015
2.9;8.0;7.25;6.0;4.75;1.0;0.75;0.25;0.25;2.25;0.5;1.0;0.75;0.25;1.5;0.25;0.25;-0.22168;0.015625;0.987793;-0.7;0.91;0.49;402.0;-0.207936;-0.012185;5.0;7.25;4.25;5.5;1.5;4.0;0.75;1.0;3.5;2.0;3.0;1.75;1.75;2.75;1.75;1.0;-0.253906;0.029297;0.977051;-0.7;-1.05;0.84;537.0;-0.075923;-0.061279
2.91;8.25;7.25;6.0;4.75;1.0;0.75;0.25;0.25;2.25;0.5;1.25;0.5;0.0;1.5;0.25;0.25;-0.223145;0.022461;0.987793;-0.56;0.77;0.56;402.0;-0.211422;-0.007405;4.75;7.75;4.0;5.75;1.5;4.0;0.75;1.0;3.5;2.0;2.75;1.75;1.75;2.5;1.75;1.0;-0.25293;0.029785;0.975586;-0.77;-1.12;0.84;534.0;-0.081247;-0.065692
2.92;8.25;7.25;6.0;4.75;1.0;0.75;0.0;0.25;2.25;0.5;1.25;0.5;0.0;1.75;0.25;0.25;-0.217773;0.023438;0.995605;-0.42;0.7;0.63;400.0;-0.210805;-0.008904;4.75;7.25;4.0;5.75;1.5;4.0;0.75;1.0;3.5;2.25;3.0;2.0;2.0;2.5;1.5;1.0;-0.256348;0.024902;0.969238;-0.77;-0.98;0.84;537.0;-0.074721;-0.067212
2.93;8.25;7.0;6.0;4.75;1.0;0.75;0.25;0.25;2.0;0.5;1.0;0.75;0.25;1.75;0.25;0.25;-0.22168;0.024414;0.990234;-0.63;0.77;0.56;401.0;-0.208552;-0.011819;4.75;7.25;4.25;5.25;1.25;3.75;0.75;1.0;3.5;2.0;3.25;1.75;1.75;2.5;1.5;1.0;-0.251953;0.02832;0.974609;-0.7;-1.12;0.77;523.0;-0.075391;-0.062006
2.94;8.25;7.25;6.0;4.75;1.0;0.75;0.25;0.25;2.0;0.5;0.75;0.5;0.25;1.75;0.0;0.25;-0.220215;0.01709;0.987305;-0.49;0.98;0.49;394.0;-0.220558;-0.009464;4.75;7.25;4.25;5.5;1.5;3.75;0.75;1.0;3.5;2.0;3.0;1.75;2.0;2.75;1.5;1.0;-0.258301;0.030273;0.966797;-0.84;-1.12;0.84;531.0;-0.075274;-0.062662
2.95;8.25;7.25;6.0;4.75;1.0;0.75;0.25;0.25;2.0;0.5;0.75;0.5;0.25;2.0;0.25;0.25;-0.221191;0.019531;0.986816;-0.49;0.84;0.56;400.0;-0.212375;-0.008899;4.75;7.75;4.25;5.5;1.25;4.0;0.75;1.0;3.25;2.0;3.0;1.75;2.0;2.75;1.5;1.0;-0.251953;0.022949;0.971191;-0.7;-1.12;0.84;532.0;-0.080881;-0.067779
2.96;8.25;7.5;6.0;5.0;1.0;0.5;0.25;0.25;2.0;0.5;0.75;0.5;0.25;1.5;0.25;0.25;-0.222656;0.019531;0.989746;-0.49;0.98;0.49;398.0;-0.221986;-0.011728;4.75;7.75;4.0;5.5;1.25;4.0;0.75;1.0;3.5;2.0;3.0;1.75;1.75;2.75;1.75;1.0;-0.260254;0.025391;0.976562;-0.7;-1.05;0.7;534.0;-0.076045;-0.064722
2.97;8.25;7.25;6.0;5.0;1.0;0.5;0.25;0.25;2.0;0.5;1.0;0.5;0.25;1.5;0.25;0.25;-0.217285;0.021484;0.983887;-0.56;0.84;0.56;398.0;-0.217533;-0.011499;4.75;7.5;4.0;6.0;1.5;4.0;0.75;1.0;3.5;2.25;3.0;1.75;1.75;2.75;2.0;0.75;-0.257812;0.028809;0.978027;-0.77;-1.05;0.77;544.0;-0.074055;-0.064065
2.98;8.0;7.0;6.0;4.75;1.0;0.75;0.0;0.25;2.0;0.5;1.0;0.5;0.25;1.75;0.25;0.25;-0.220703;0.020996;0.98877;-0.56;0.7;0.56;391.0;-0.213265;-0.01328;4.75;7.75;4.0;5.5;1.5;4.0;0.75;1.0;3.5;2.25;3.0;1.75;1.75;2.75;2.0;0.75;-0.252441;0.031738;0.975586;-0.7;-0.91;0.77;541.0;-0.073284;-0.062758
2.99;8.25;7.0;6.0;4.75;1.0;0.75;0.0;0.25;2.0;0.5;0.75;0.5;0.0;1.5;0.25;0.25;-0.21582;0.022461;0.990234;-0.56;0.84;0.56;386.0;-0.224009;-0.010038;4.75;7.5;4.25;5.5;1.25;4.0;0.75;1.0;3.75;2.0;3.25;1.75;1.75;2.75;1.75;0.75;-0.251953;0.028809;0.96875;-0.7;-0.91;0.84;539.0;-0.072915;-0.060715
3.0;8.25;7.0;6.0;4.75;1.0;0.5;0.0;0.25;2.0;0.5;0.25;0.5;0.0;1.75;0.25;0.25;-0.21875;0.022949;0.986816;-0.63;0.98;0.56;380.0;-0.227458;-0.005236;4.75;7.75;4.5;6.0;1.25;3.75;0.75;1.0;3.25;2.0;3.25;2.0;1.75;3.0;1.5;0.5;-0.258301;0.026855;0.976074;-0.7;-1.05;0.84;541.0;-0.082043;-0.064863
3.01;8.0;7.0;6.0;5.0;1.0;0.5;0.0;0.25;2.25;0.5;0.25;0.5;0.25;1.75;0.25;0.25;-0.22168;0.017578;0.98291;-0.7;0.77;0.56;386.0;-0.219727;-0.007974;4.75;7.75;4.25;5.75;1.5;4.0;0.75;1.0;3.5;2.25;3.0;1.75;2.0;2.75;1.5;1.0;-0.254883;0.024414;0.979004;-0.77;-1.05;0.84;545.0;-0.078372;-0.065
3.02;8.5;7.0;6.0;5.0;1.0;0.5;0.0;0.25;2.0;0.5;0.5;0.5;0.25;1.5;0.25;0.25;-0.219727;0.025391;0.988281;-0.7;0.84;0.56;388.0;-0.227284;-0.010775;4.75;7.25;4.0;5.5;1.5;4.0;0.75;1.0;3.5;2.25;3.25;1.75;2.0;2.75;1.75;1.0;-0.253906;0.035156;0.974121;-0.77;-1.05;0.84;540.0;-0.068796;-0.0644
3.03;8.25;7.0;6.0;5.0;1.0;0.5;0.0;0.25;2.0;0.5;1.0;0.5;0.25;1.5;0.25;0.25;-0.223633;0.017578;0.98291;-0.63;0.77;0.49;391.0;-0.219385;-0.013177;4.75;7.25;4.25;6.0;1.5;4.0;0.75;1.0;3.5;2.0;3.25;1.75;1.75;3.0;1.75;1.0;-0.25293;0.025391;0.97998;-0.77;-0.91;0.77;546.0;-0.072891;-0.063229
3.04;8.5;7.25;6.0;5.0;1.0;0.5;0.25;0.25;2.0;0.5;0.75;0.5;0.0;1.5;0.25;0.5;-0.219238;0.022949;0.98584;-0.63;0.77;0.49;397.0;-0.22219;-0.008347;4.75;7.0;4.25;6.0;1.5;4.0;0.75;1.0;3.5;2.0;3.25;1.75;1.5;2.75;1.75;1.0;-0.257324;0.028809;0.977539;-0.84;-0.98;0.84;539.0;-0.074435;-0.062043
3.05;8.25;7.0;6.0;5.0;1.0;0.5;0.25;0.25;2.0;0.5;1.0;0.5;0.0;1.75;0.25;0.5;-0.223145;0.02002;0.990234;-0.56;0.98;0.49;397.0;-0.212721;-0.007867;4.75;7.5;4.0;5.75;1.25;3.75;0.75;1.0;3.5;2.0;3.0;1.75;1.75;2.5;2.25;1.0;-0.251465;0.026855;0.975586;-0.91;-0.98;0.77;534.0;-0.072135;-0.065224
3.06;8.25;7.25;6.0;5.0;1.25;0.5;0.25;0.25;1.75;0.5;1.0;0.5;0.0;1.75;0.25;0.25;-0.220703;0.019043;0.98584;-0.7;0.77;0.42;397.0;-0.219714;-0.009748;4.75;7.25;4.0;5.5;1.5;3.75;0.75;1.0;3.75;2.0;3.0;1.75;1.75;2.25;2.0;1.0;-0.250977;0.025391;0.979004;-0.91;-0.98;0.84;530.0;-0.072081;-0.061807
3.07;8.25;7.25;6.25;4.75;1.0;0.5;0.25;0.25;2.25;0.25;0.75;0.5;0.25;1.75;0.5;0.25;-0.22168;0.020508;0.987793;-0.7;0.77;0.56;401.0;-0.21144;-0.005788;4.75;7.75;4.0;5.25;1.5;4.0;0.75;1.0;3.5;2.0;3.0;1.75;1.5;2.75;1.75;1.0;-0.25293;0.026855;0.976074;-0.84;-1.05;0.84;531.0;-0.076218;-0.061347
3.08;8.5;7.25;6.25;5.0;1.0;0.5;0.25;0.25;2.25;0.75;1.0;0.75;0.25;2.0;0.5;0.25;-0.225098;0.02002;0.987793;-0.7;0.91;0.49;421.0;-0.197868;-0.00736;4.75;7.0;4.0;5.25;1.5;3.75;0.5;1.0;3.5;2.0;3.0;1.75;1.5;2.75;1.5;0.75;-0.252441;0.025391;0.973633;-0.77;-1.19;0.84;512.0;-0.07598;-0.060169
3.09;8.5;7.25;5.75;5.0;1.0;0.75;0.0;0.25;2.25;0.5;1.0;0.5;0.25;1.5;0.25;0.25;-0.22168;0.020996;0.986328;-0.56;0.84;0.49;400.0;-0.216825;-0.013419;5.25;7.0;4.5;6.0;1.25;4.0;0.75;1.0;3.75;2.0;3.0;1.75;1.5;2.5;1.75;0.75;-0.253906;0.029785;0.975098;-0.91;-1.12;0.84;541.0;-0.081349;-0.05792
3.1;8.5;7.0;5.75;5.0;1.25;0.75;0.0;0.25;2.25;0.5;1.0;0.5;0.25;1.5;0.25;0.25;-0.221191;0.02002;0.986328;-0.56;0.77;0.63;401.0;-0.214882;-0.011898;4.75;7.25;4.25;5.75;1.25;3.75;0.75;1.25;3.5;2.0;3.0;1.75;1.75;2.75;2.0;1.0;-0.256348;0.029785;0.973633;-0.84;-1.05;0.84;539.0;-0.07162;-0.065264
3.11;8.0;7.0;6.25;5.0;1.0;0.75;0.25;0.25;2.25;0.5;0.75;0.5;0.25;1.25;0.25;0.25;-0.221191;0.020508;0.98584;-0.63;0.84;0.56;397.0;-0.217434;-0.010339;4.75;7.5;4.25;5.5;1.5;3.75;0.75;1.0;3.25;2.0;3.0;1.75;1.5;2.5;1.75;1.0;-0.256348;0.020508;0.975586;-0.91;-1.19;0.98;526.0;-0.080879;-0.063045
3.12;8.5;7.0;6.25;5.0;1.0;0.5;0.25;0.25;2.0;0.25;0.5;0.75;0.25;1.25;0.5;0.25;-0.223633;0.021973;0.987305;-0.63;0.98;0.49;396.0;-0.223718;-0.011602;5.0;7.75;5.0;6.25;1.0;3.75;0.75;1.0;3.25;2.25;2.75;1.75;2.0;2.5;2.0;1.0;-0.255859;0.033203;0.979492;-0.91;-1.19;0.84;551.0;-0.085281;-0.066679
3.13;8.5;7.0;6.25;4.75;1.0;0.5;0.25;0.25;2.0;0.5;1.0;0.25;0.25;1.5;0.25;0.25;-0.222168;0.022949;0.987305;-0.7;0.91;0.42;395.0;-0.220541;-0.005184;4.75;7.5;4.5;5.75;1.0;3.75;0.75;1.0;3.25;2.0;3.0;1.75;1.5;2.5;1.75;0.75;-0.250488;0.033203;0.974121;-0.91;-1.05;0.84;524.0;-0.083873;-0.0638
3.14;8.25;7.0;6.0;4.75;1.0;0.75;0.25;0.25;2.0;0.5;0.5;0.25;0.25;1.5;0.25;0.25;-0.217285;0.022949;0.989746;-0.63;1.12;0.56;387.0;-0.224927;-0.007185;5.0;8.0;4.25;5.5;1.25;4.0;0.75;1.0;3.5;2.0;3.0;1.75;1.5;2.75;1.75;1.0;-0.254395;0.029297;0.977051;-0.91;-0.98;0.84;540.0;-0.081494;-0.061683
3.15;8.25;7.0;6.0;5.0;1.25;0.5;0.0;0.25;2.25;0.5;0.5;0.5;0.0;1.75;0.5;0.25;-0.224121;0.015625;0.98584;-0.7;1.12;0.49;395.0;-0.214865;-0.005225;5.25;8.0;4.25;6.0;1.25;4.0;0.75;1.0;3.5;2.0;2.75;1.75;2.0;2.5;1.75;1.0;-0.255371;0.028809;0.975586;-0.98;-1.12;0.91;548.0;-0.086951;-0.066757
3.16;8.25;7.0;6.0;4.75;1.0;0.5;0.0;0.25;2.0;0.5;1.0;0.5;0.0;2.0;0.5;0.25;-0.212891;0.020996;0.98584;-0.49;1.05;0.49;393.0;-0.209167;-0.00713;5.25;8.0;4.25;6.0;1.25;4.25;0.75;1.0;3.5;2.0;2.75;1.75;1.75;2.5;1.5;1.0;-0.250977;0.024902;0.974121;-0.98;-1.12;0.84;546.0;-0.091011;-0.066096
3.17;8.25;7.25;6.0;4.75;1.0;0.5;0.25;0.25;2.0;0.25;1.0;0.5;0.25;2.0;0.25;0.25;-0.21582;0.01416;0.986328;-0.49;1.19;0.49;397.0;-0.212911;-0.008212;5.25;8.0;5.0;5.75;1.5;4.0;0.75;1.0;3.25;2.0;2.75;1.5;1.5;2.75;1.75;1.0;-0.254883;0.027832;0.971191;-0.84;-1.19;0.91;548.0;-0.092923;-0.059182
3.18;7.75;7.25;6.0;4.75;1.0;0.5;0.25;0.25;2.0;0.5;0.75;0.5;0.0;2.0;0.25;0.25;-0.215332;0.024902;0.991211;-0.56;1.12;0.56;389.0;-0.212369;-0.005851;5.25;8.0;4.5;5.5;1.0;3.75;0.75;1.0;3.25;1.75;3.0;1.75;1.75;2.5;1.5;1.0;-0.254883;0.026367;0.974121;-0.84;-1.26;0.98;530.0;-0.091323;-0.065069
3.19;8.25;7.25;5.75;4.75;1.0;0.5;0.25;0.25;2.0;0.5;1.0;0.5;0.0;1.75;0.25;0.5;-0.223145;0.027344;0.989746;-0.56;1.05;0.63;393.0;-0.213048;-0.00798;5.25;8.0;4.5;6.0;1.5;3.75;0.75;1.0;3.25;1.75;3.0;2.0;2.0;2.5;1.5;1.0;-0.250977;0.022461;0.978027;-0.91;-1.19;0.98;547.0;-0.091144;-0.068353
3.2;8.0;7.25;5.75;4.75;1.0;0.5;0.25;0.25;2.0;0.5;1.0;0.5;0.0;1.75;0.25;0.5;-0.224609;0.020508;0.988281;-0.49;0.98;0.56;390.0;-0.21167;-0.008827;5.25;8.25;4.5;6.25;1.5;3.75;0.75;1.0;3.25;1.75;3.0;1.75;1.75;2.5;1.75;0.75;-0.254883;0.03125;0.972656;-0.91;-1.26;0.91;549.0;-0.095013;-0.066189
3.21;7.75;6.75;5.75;4.75;1.0;0.5;0.25;0.25;2.0;0.5;1.0;0.5;0.0;1.5;0.25;0.5;-0.217773;0.023926;0.98584;-0.56;1.05;0.49;380.0;-0.211338;-0.008756;5.75;8.5;5.0;6.0;1.5;4.0;0.5;1.0;3.25;1.75;2.75;1.75;1.5;2.75;1.5;1.0;-0.25293;0.032227;0.974609;-1.05;-1.26;0.91;555.0;-0.104092;-0.063314
3.22;8.0;7.0;6.0;4.75;1.0;0.5;0.25;0.25;2.0;0.5;1.0;0.5;0.0;1.5;0.25;0.25;-0.217285;0.02002;0.984863;-0.63;1.05;0.42;387.0;-0.216691;-0.006983;6.0;8.5;5.0;6.0;1.5;4.0;0.75;1.0;3.25;1.75;2.75;1.75;1.5;2.75;1.5;1.0;-0.252441;0.026367;0.977539;-1.19;-1.12;0.91;562.0;-0.104246;-0.060206
3.23;8.25;7.0;6.0;4.75;1.0;0.75;0.25;0.25;2.0;0.5;1.0;0.5;0.25;1.5;0.25;0.25;-0.218262;0.02002;0.98877;-0.56;0.91;0.63;395.0;-0.215241;-0.010862;6.0;8.5;5.0;6.0;1.5;3.75;0.75;1.0;3.25;1.75;2.75;1.75;1.5;2.75;1.5;1.0;-0.253906;0.029785;0.978516;-1.26;-1.12;0.84;559.0;-0.103991;-0.059074
3.24;8.25;7.25;6.0;4.75;1.0;0.5;0.25;0.25;2.25;0.5;0.75;0.75;0.25;1.25;0.25;0.25;-0.225098;0.023438;0.98584;-0.63;0.98;0.49;396.0;-0.216516;-0.009727;6.0;8.25;4.5;6.25;1.5;4.25;0.75;1.0;3.25;1.75;2.75;1.5;1.5;2.75;1.25;1.0;-0.250977;0.027344;0.975586;-1.19;-1.12;0.84;554.0;-0.106576;-0.062066
3.25;7.75;7.0;6.0;4.75;1.0;0.5;0.25;0.25;2.25;0.5;0.75;0.5;0.25;1.5;0.25;0.25;-0.22168;0.019531;0.98584;-0.56;0.98;0.63;387.0;-0.211882;-0.007191;6.0;8.25;4.5;6.25;1.25;3.75;0.75;1.0;3.25;1.75;3.0;1.5;1.5;2.5;1.5;0.75;-0.253906;0.025391;0.974609;-1.12;-1.12;0.84;546.0;-0.10501;-0.061173
3.26;7.75;7.0;5.75;4.75;1.25;0.5;0.25;0.25;2.0;0.75;0.5;0.5;0.0;1.5;0.25;0.25;-0.220703;0.023438;0.979492;-0.56;0.91;0.56;381.0;-0.217428;-0.005913;6.0;8.0;5.0;6.25;1.25;4.0;0.75;1.0;3.0;2.0;2.75;1.5;1.5;2.25;1.5;0.5;-0.258301;0.026855;0.969238;-1.26;-1.19;0.84;546.0;-0.111392;-0.061752
3.27;8.25;7.0;5.75;4.75;1.0;0.75;0.25;0.25;3.0;0.75;0.5;0.5;0.0;1.5;0.0;0.25;-0.219727;0.023926;0.993164;-0.49;0.91;0.56;399.0;-0.207762;0.003826;6.0;8.25;5.0;5.5;1.5;4.0;0.75;1.0;3.0;1.75;2.75;1.5;1.5;2.5;1.5;0.75;-0.252441;0.028809;0.969238;-1.26;-1.05;0.84;543.0;-0.108283;-0.059176
3.28;8.25;7.0;6.0;4.75;1.0;0.5;0.25;0.25;2.25;0.75;1.0;0.5;0.25;1.5;0.0;0.25;-0.216797;0.023438;0.983398;-0.56;0.84;0.49;396.0;-0.212693;-0.005264;6.0;8.25;5.0;6.0;1.5;3.75;0.75;1.0;3.25;1.75;2.75;1.75;1.5;2.5;1.5;0.5;-0.256836;0.027832;0.971191;-1.26;-1.12;0.77;551.0;-0.107233;-0.058214
3.29;7.75;7.0;6.0;4.75;0.75;0.25;0.25;0.25;2.0;0.5;1.0;0.5;0.25;1.75;0.25;0.25;-0.22168;0.019531;0.984863;-0.56;0.84;0.49;383.0;-0.210343;-0.007984;6.25;8.5;5.0;6.5;1.5;3.75;0.75;1.0;3.25;1.75;2.75;1.75;1.25;2.5;1.5;1.0;-0.254395;0.029785;0.96875;-1.33;-1.05;0.91;563.0;-0.110723;-0.059289
3.3;8.0;7.25;6.0;4.75;1.0;0.5;0.25;0.25;2.0;0.25;0.75;0.5;0.25;1.5;0.25;0.25;-0.221191;0.020996;0.979492;-0.63;0.77;0.56;386.0;-0.222281;-0.010507;6.0;8.5;5.0;6.5;1.5;3.75;0.75;1.0;3.25;1.75;2.75;1.75;1.5;2.5;1.75;1.0;-0.256836;0.030762;0.973633;-1.4;-1.12;0.84;565.0;-0.105465;-0.061921
3.31;8.0;7.0;6.0;4.75;1.0;0.75;0.25;0.25;1.75;0.5;0.75;0.5;0.25;1.5;0.25;0.25;-0.220703;0.026855;0.984375;-0.56;0.91;0.49;386.0;-0.2215;-0.013603;6.0;8.5;5.0;6.5;1.5;3.5;0.75;1.0;3.0;1.75;2.75;1.5;1.75;2.5;1.5;0.5;-0.254395;0.028809;0.976074;-1.33;-1.12;0.84;553.0;-0.113178;-0.061992
3.32;8.5;7.0;6.0;5.0;1.0;0.5;0.25;0.25;1.75;0.5;0.75;0.5;0.25;1.5;0.25;0.25;-0.217773;0.020508;0.987305;-0.49;0.84;0.56;392.0;-0.225157;-0.011482;6.5;8.5;5.0;6.25;1.5;3.75;0.75;1.0;3.0;1.75;2.5;1.5;1.5;2.5;1.5;0.5;-0.256836;0.029785;0.974121;-1.47;-1.05;0.84;553.0;-0.118369;-0.058515
3.33;8.25;7.0;6.0;4.75;1.0;0.5;0.25;0.25;1.75;0.25;1.0;0.5;0.25;1.5;0.5;0.25;-0.216309;0.019043;0.989258;-0.63;0.77;0.49;389.0;-0.218801;-0.012552;6.25;8.75;5.0;6.5;1.25;3.75;0.75;1.0;3.0;1.75;2.5;1.5;1.25;2.5;1.5;0.5;-0.253906;0.027832;0.975098;-1.47;-1.19;0.91;550.0;-0.120386;-0.059703
3.34;8.25;7.0;6.0;4.75;1.0;0.5;0.25;0.25;2.0;0.25;1.0;0.5;0.0;1.5;0.25;0.25;-0.218262;0.017578;0.990723;-0.56;0.77;0.56;387.0;-0.22141;-0.006657;6.5;8.75;5.0;6.25;1.5;4.0;0.75;1.0;3.0;1.75;2.5;1.5;1.25;2.5;1.5;0.5;-0.257324;0.02832;0.96582;-1.47;-1.05;0.91;556.0;-0.12112;-0.058443
3.35;8.25;7.5;6.0;5.0;1.0;0.5;0.25;0.25;2.25;0.5;0.5;0.5;0.0;1.25;0.0;0.25;-0.218262;0.022949;0.987305;-0.56;0.63;0.56;391.0;-0.231633;-0.006246;6.5;8.75;5.0;6.25;1.5;4.0;0.75;1.0;3.0;1.75;2.5;1.5;1.5;2.25;1.5;0.5;-0.254883;0.021484;0.976074;-1.33;-0.91;0.84;556.0;-0.122118;-0.061135
3.36;8.5;7.5;6.25;5.0;1.0;0.5;0.25;0.25;2.0;0.25;0.5;0.5;0.25;1.5;0.0;0.5;-0.220215;0.025391;0.994141;-0.49;0.63;0.49;396.0;-0.232539;-0.0105;6.5;9.0;5.0;6.0;1.25;3.75;0.5;0.75;3.0;1.5;2.5;1.75;1.5;2.5;1.25;0.5;-0.251953;0.02832;0.973145;-1.4;-1.12;0.77;541.0;-0.125433;-0.060769
3.37;8.25;7.25;6.25;4.75;0.75;0.5;0.25;0.25;2.0;0.25;0.75;0.5;0.0;1.5;0.25;0.25;-0.220703;0.019531;0.989258;-0.56;0.84;0.49;387.0;-0.227081;-0.006659;6.75;8.75;5.0;6.25;1.25;3.75;0.5;1.0;3.0;1.75;2.75;1.75;1.5;2.5;1.25;0.5;-0.256348;0.025879;0.971191;-1.4;-1.12;0.77;554.0;-0.121863;-0.062444
3.38;8.25;7.5;6.0;5.0;1.0;0.75;0.0;0.25;1.75;0.5;0.75;0.5;0.0;1.5;0.25;0.25;-0.223145;0.02002;0.990723;-0.49;0.77;0.49;390.0;-0.231383;-0.016307;6.75;8.75;5.0;6.5;1.25;3.75;0.75;1.0;2.75;1.75;2.75;1.5;1.5;2.25;1.25;0.5;-0.257812;-0.012207;0.956055;-1.4;-0.84;0.63;552.0;-0.127673;-0.063025
3.39;8.25;7.25;5.75;5.0;1.0;0.5;0.0;0.25;2.0;0.25;1.0;0.25;0.0;1.75;0.25;0.25;-0.217285;0.019043;0.987793;-0.56;0.84;0.56;385.0;-0.22548;-0.00955;6.75;9.0;5.0;6.5;1.25;4.0;0.75;0.75;3.0;1.75;2.75;1.5;1.25;2.25;1.25;0.5;-0.254883;0.032227;0.974121;-1.47;-0.98;0.84;555.0;-0.128769;-0.058286
3.4;8.25;7.5;5.75;4.75;1.0;0.5;0.25;0.25;2.0;0.25;1.0;0.25;0.25;1.5;0.5;0.25;-0.223145;0.019531;0.989258;-0.49;0.7;0.56;392.0;-0.219792;-0.010617;6.75;9.0;5.0;6.5;1.5;4.0;0.75;1.0;3.0;1.75;2.25;1.25;1.25;2.5;1.25;0.5;-0.257324;0.030762;0.971191;-1.33;-1.05;0.77;556.0;-0.131015;-0.05733
3.41;8.5;7.5;5.75;5.0;1.0;0.5;0.0;0.25;2.0;0.25;1.25;0.5;0.25;1.5;0.25;0.5;-0.217285;0.022949;0.988281;-0.56;0.7;0.56;398.0;-0.220765;-0.017443;6.5;9.0;5.0;6.5;1.25;3.75;0.5;1.0;2.75;1.5;2.5;1.25;1.5;2.5;1.25;0.5;-0.25;0.027832;0.973145;-1.12;-0.98;0.7;542.0;-0.132431;-0.064843
3.42;8.25;7.5;6.25;5.0;1.0;0.5;0.0;0.25;0.75;0.5;1.0;0.5;0.0;1.5;0.25;0.5;-0.220215;0.022949;0.984863;-0.63;0.91;0.49;381.0;-0.244869;-0.026285;6.5;9.0;5.0;6.25;1.25;3.5;0.5;0.75;2.5;1.5;2.75;1.25;1.25;2.5;1.25;0.5;-0.248047;0.024902;0.977051;-1.26;-0.98;0.7;529.0;-0.134423;-0.060992
3.43;8.25;7.25;6.0;5.0;1.0;0.5;0.0;0.25;1.5;0.5;1.0;0.75;0.25;1.75;0.25;0.5;-0.22168;0.01709;0.985352;-0.56;0.84;0.56;393.0;-0.22025;-0.021461;6.5;8.75;5.0;6.5;1.5;3.75;0.75;1.0;2.75;1.5;2.75;1.25;1.25;2.5;1.5;0.5;-0.253418;0.024902;0.974121;-1.19;-1.12;0.84;550.0;-0.126107;-0.060043
3.44;8.5;7.5;6.25;5.0;1.0;0.5;0.0;0.0;2.0;0.5;1.0;0.25;0.25;1.5;0.25;0.25;-0.219727;0.026367;0.984375;-0.63;0.77;0.63;395.0;-0.22888;-0.007413;6.5;9.0;5.0;6.5;1.0;3.5;0.75;0.75;3.0;1.5;2.5;1.25;1.5;2.5;1.5;0.5;-0.253906;0.027832;0.974121;-1.05;-1.12;0.84;542.0;-0.126248;-0.057408
3.45;8.5;7.5;6.25;5.0;1.0;0.5;0.0;0.0;2.0;0.5;0.75;0.25;0.0;1.75;0.25;0.25;-0.216309;0.022461;0.987793;-0.63;0.84;0.56;392.0;-0.230791;-0.0028;7.0;9.25;5.0;6.25;1.25;3.5;0.75;0.75;3.0;1.5;2.25;1.25;1.25;2.25;1.25;0.5;-0.257812;0.024414;0.975098;-1.05;-1.12;0.84;540.0;-0.137912;-0.05339
3.46;8.5;7.5;6.25;5.0;1.0;0.5;0.0;0.25;1.75;0.5;0.75;0.25;0.0;1.75;0.25;0.25;-0.23291;0.019531;0.990723;-0.56;0.77;0.56;393.0;-0.232911;-0.009446;6.75;8.75;5.0;6.25;1.5;3.5;0.75;0.75;2.75;1.5;2.5;1.25;1.25;2.25;1.5;0.25;-0.250488;0.029297;0.971191;-1.05;-1.05;0.84;536.0;-0.132965;-0.0545
3.47;8.25;7.5;5.75;5.0;1.0;0.5;0.25;0.25;2.0;0.5;0.75;0.5;0.25;1.75;0.25;0.25;-0.219727;0.028809;0.98877;-0.56;0.77;0.56;397.0;-0.217939;-0.011396;6.5;8.75;5.0;6.5;1.5;3.75;0.75;0.75;2.75;1.5;2.5;1.25;1.25;2.5;1.5;0.25;-0.259277;0.02832;0.973145;-0.98;-0.98;0.77;541.0;-0.130174;-0.056502
3.48;8.5;7.5;6.0;5.0;1.0;0.75;0.0;0.25;1.5;0.5;0.75;0.5;0.25;1.25;0.25;0.25;-0.21582;0.017578;0.986816;-0.63;0.84;0.56;390.0;-0.238521;-0.02191;7.0;9.5;5.0;6.25;1.5;4.0;0.5;0.75;2.75;1.5;2.5;1.25;1.25;2.25;1.5;0.5;-0.253418;0.026367;0.970215;-0.91;-1.05;0.84;549.0;-0.138738;-0.060485
3.49;8.5;7.5;6.0;5.25;1.0;0.75;0.0;0.25;1.75;0.5;1.0;0.5;0.25;1.25;0.25;0.25;-0.220215;0.016602;0.985352;-0.63;1.05;0.35;399.0;-0.231128;-0.021454;7.0;8.5;5.0;6.5;1.5;4.0;0.5;1.0;2.75;1.5;2.5;1.25;1.5;2.5;1.75;0.5;-0.256836;0.022461;0.973633;-0.91;-1.05;0.77;554.0;-0.12709;-0.062761
3.5;8.25;7.5;6.25;5.25;1.0;1.0;0.0;0.25;2.0;0.5;1.0;0.5;0.25;1.25;0.25;0.25;-0.223145;0.018555;0.98291;-0.63;0.98;0.49;406.0;-0.225314;-0.020767;6.75;8.5;5.0;6.5;1.5;4.0;0.75;0.75;2.75;1.5;2.5;1.25;1.5;2.5;1.5;0.5;-0.255859;0.02832;0.972168;-0.84;-1.05;0.84;548.0;-0.127775;-0.058753
3.51;8.25;7.25;6.0;5.0;1.0;0.75;0.25;0.25;1.75;0.5;1.0;0.5;0.25;1.25;0.0;0.25;-0.22168;0.021973;0.991699;-0.56;0.49;0.63;392.0;-0.22966;-0.016692;6.5;8.75;5.0;6.25;1.25;3.75;0.5;0.75;3.0;1.5;2.75;1.25;1.5;2.5;1.5;0.5;-0.253906;0.024414;0.973633;-0.84;-1.12;0.84;541.0;-0.123851;-0.059091
3.52;8.5;7.5;6.0;4.75;1.0;0.5;0.0;0.25;2.0;0.5;0.75;0.5;0.0;1.5;0.25;0.25;-0.21875;0.021973;0.985352;-0.49;0.7;0.56;391.0;-0.228337;-0.00919;6.25;8.75;5.0;6.5;1.25;3.5;0.75;0.75;2.75;1.5;2.5;1.0;1.5;2.5;1.5;0.5;-0.254395;0.025879;0.973145;-0.91;-1.05;0.77;533.0;-0.127776;-0.058045
3.53;8.5;7.5;6.0;5.0;1.0;0.5;0.0;0.25;2.0;0.25;0.75;0.5;0.0;1.5;0.25;0.25;-0.223145;0.024414;0.986816;-0.63;0.77;0.49;391.0;-0.232198;-0.011375;6.5;8.5;5.0;6.25;1.25;3.5;0.75;0.75;2.75;1.5;2.5;1.25;1.25;2.5;1.25;0.5;-0.254395;0.023926;0.976562;-0.91;-0.98;0.84;528.0;-0.129362;-0.055056
3.54;8.25;7.5;6.0;5.0;1.0;0.75;0.0;0.25;1.75;0.5;1.0;0.5;0.25;1.5;0.0;0.25;-0.219727;0.025879;0.990723;-0.49;0.77;0.56;393.0;-0.230314;-0.01922;6.5;8.5;5.0;6.0;1.25;3.5;0.75;0.75;2.75;1.5;2.25;1.25;1.25;2.25;1.25;0.5;-0.25293;0.023438;0.973633;-0.84;-1.05;0.77;520.0;-0.132823;-0.054781
3.55;8.25;7.5;6.0;5.0;1.0;0.75;0.25;0.25;2.0;0.5;1.0;0.25;0.25;1.5;0.25;0.25;-0.221191;0.025879;0.990723;-0.49;0.77;0.49;401.0;-0.22137;-0.012367;6.25;8.5;5.0;6.0;1.25;3.5;0.5;0.75;2.75;1.5;2.75;1.25;1.5;2.25;1.75;0.5;-0.256836;0.032227;0.973633;-0.77;-0.98;0.84;527.0;-0.121913;-0.060762
3.56;8.5;7.5;6.0;5.0;1.0;0.75;0.25;0.25;2.0;0.5;0.75;0.5;0.0;1.5;0.25;0.25;-0.222656;0.026367;0.986328;-0.7;0.91;0.49;401.0;-0.225045;-0.010173;6.25;8.75;5.0;6.25;1.25;3.5;0.75;0.75;3.0;1.5;2.75;1.25;1.5;2.25;1.5;0.5;-0.252441;0.024414;0.980957;-0.84;-1.05;0.77;537.0;-0.122976;-0.057503
3.57;8.5;7.5;6.0;5.0;1.0;0.75;0.25;0.0;1.75;0.5;0.75;0.5;0.0;1.75;0.25;0.25;-0.22168;0.021484;0.986816;-0.56;0.98;0.49;396.0;-0.227895;-0.007626;6.5;8.75;5.0;6.25;1.5;3.5;0.75;0.75;3.0;1.5;2.75;1.25;1.5;2.25;1.25;0.5;-0.258789;0.029785;0.977539;-0.77;-1.12;0.77;540.0;-0.127271;-0.055841
3.58;8.5;7.5;6.25;5.0;1.25;0.5;0.0;0.25;2.0;0.5;1.0;0.5;0.25;1.75;0.25;0.25;-0.222168;0.018555;0.984863;-0.49;0.84;0.56;408.0;-0.219154;-0.011819;6.5;8.5;5.0;6.25;1.5;3.75;0.75;0.75;3.25;1.75;2.5;1.25;1.25;2.25;1.25;0.5;-0.25293;0.030273;0.968262;-0.77;-1.12;0.84;542.0;-0.124756;-0.051633
3.59;8.25;7.5;6.25;5.0;1.0;0.5;0.0;0.25;2.0;0.5;1.0;0.5;0.25;1.5;0.25;0.25;-0.217773;0.016602;0.990723;-0.56;0.91;0.49;399.0;-0.222227;-0.014325;6.5;8.5;5.0;6.25;1.25;3.5;0.5;0.75;3.0;1.75;2.5;1.5;1.25;2.25;1.25;0.5;-0.256836;0.027832;0.975586;-0.77;-1.05;0.84;531.0;-0.126947;-0.056831
3.6;8.5;7.5;6.25;5.0;1.0;0.5;0.0;0.25;1.5;0.5;1.25;0.5;0.25;1.25;0.0;0.25;-0.222168;0.018555;0.987305;-0.49;0.98;0.49;393.0;-0.237335;-0.020075;6.25;8.75;5.0;6.25;1.25;3.75;0.75;0.75;2.75;1.75;2.5;1.25;1.25;2.5;1.5;0.5;-0.253906;0.024902;0.974121;-0.7;-1.12;0.77;537.0;-0.124567;-0.057164
3.61;8.25;7.5;6.25;5.0;1.0;0.5;0.0;0.25;1.75;0.5;1.0;0.5;0.0;1.5;0.25;0.0;-0.226562;0.021973;0.987793;-0.56;1.05;0.49;392.0;-0.231149;-0.013141;6.25;8.75;5.0;6.25;1.5;3.5;0.75;0.75;2.75;1.5;2.5;1.75;1.5;2.5;2.0;0.5;-0.256348;0.025879;0.973633;-0.77;-1.05;0.84;548.0;-0.115975;-0.060481
3.62;8.5;7.5;6.0;5.0;1.0;0.75;0.0;0.25;1.75;0.5;1.0;0.5;0.25;1.5;0.25;0.0;-0.221191;0.017578;0.986328;-0.63;1.05;0.49;397.0;-0.229146;-0.017664;6.25;8.5;5.0;6.25;1.5;3.5;0.75;0.75;3.0;1.5;2.5;1.75;1.25;2.5;1.25;0.5;-0.251953;0.02832;0.972168;-0.84;-1.05;0.84;538.0;-0.121713;-0.055656
3.63;8.75;7.5;6.0;5.0;1.0;0.75;0.0;0.25;2.0;0.25;0.75;0.5;0.25;1.25;0.25;0.25;-0.220703;0.019043;0.987305;-0.56;0.98;0.49;397.0;-0.234206;-0.016254;6.25;8.5;5.0;6.25;1.5;3.5;0.75;0.75;3.0;1.5;2.25;1.5;1.25;2.5;1.25;0.5;-0.254395;0.027344;0.974121;-0.77;-1.12;0.77;532.0;-0.12537;-0.054033
3.64;8.75;7.5;6.25;4.75;1.0;0.5;0.0;0.25;2.0;0.25;0.75;0.5;0.0;1.25;0.25;0.25;-0.217773;0.024414;0.986328;-0.63;0.91;0.49;392.0;-0.237091;-0.009209;6.5;8.5;5.0;6.25;1.5;3.75;0.75;0.75;3.0;1.5;2.5;1.5;1.25;2.5;1.25;0.5;-0.255859;0.023926;0.97168;-0.77;-1.05;0.77;541.0;-0.125113;-0.054712
3.65;8.5;7.5;6.0;5.0;1.0;0.5;0.0;0.0;1.75;0.25;0.75;0.5;0.0;1.5;0.25;0.25;-0.221191;0.026367;0.984863;-0.56;0.98;0.49;383.0;-0.239144;-0.009909;6.5;8.5;5.0;6.25;1.5;3.75;0.5;1.0;3.0;1.5;2.75;1.5;1.25;2.25;1.25;0.5;-0.250488;0.021484;0.976562;-0.84;-1.19;0.84;541.0;-0.12626;-0.060885
3.66;8.25;7.5;6.25;5.0;1.0;0.5;0.0;0.25;1.75;0.5;0.75;0.5;0.25;1.5;0.25;0.25;-0.219727;0.018555;0.988281;-0.63;1.05;0.56;393.0;-0.229846;-0.016213;6.5;8.75;5.0;6.5;1.5;3.75;0.75;1.0;3.0;1.5;2.75;1.5;1.25;2.25;1.5;0.5;-0.255371;0.023926;0.975098;-0.77;-1.12;0.77;554.0;-0.124155;-0.060106
3.67;8.25;7.5;6.25;4.75;1.0;0.5;0.0;0.25;2.0;0.5;1.0;0.5;0.25;1.75;0.25;0.25;-0.222168;0.023926;0.98584;-0.56;0.91;0.56;399.0;-0.21804;-0.011624;6.75;8.75;5.0;6.5;1.5;4.0;0.75;1.0;3.0;1.5;2.5;1.75;1.5;2.25;1.5;0.5;-0.256836;0.024902;0.974609;-0.77;-1.05;0.84;562.0;-0.124554;-0.062988
3.68;8.5;7.5;6.0;5.0;1.0;0.5;0.25;0.25;2.0;0.5;1.0;0.5;0.0;1.75;0.25;0.25;-0.220215;0.024902;0.985352;-0.7;0.91;0.49;403.0;-0.218713;-0.007903;6.5;8.75;5.0;6.25;1.25;3.75;0.75;1.0;3.0;1.0;2.5;1.75;1.5;2.25;1.5;0.5;-0.260254;0.026855;0.977051;-0.77;-1.19;0.91;545.0;-0.125864;-0.063852
3.69;8.5;7.0;6.0;5.0;1.0;0.5;0.25;0.25;1.5;0.5;1.0;0.5;0.0;1.75;0.0;0.25;-0.220703;0.022949;0.993164;-0.56;0.91;0.49;388.0;-0.229523;-0.010501;6.5;8.75;5.0;6.25;1.25;4.0;0.5;0.75;3.0;1.5;2.75;1.25;1.5;2.25;1.5;0.5;-0.256348;0.02832;0.974609;-0.84;-1.12;0.84;542.0;-0.126305;-0.061279
3.7;8.75;7.0;6.0;5.0;1.0;0.75;0.25;0.25;2.0;0.5;0.75;0.5;0.25;2.0;0.25;0.25;-0.226074;0.025879;0.992188;-0.56;0.91;0.56;406.0;-0.214324;-0.007875;6.5;8.75;5.0;6.25;1.5;3.75;0.5;0.75;3.0;1.5;2.75;1.25;1.5;2.25;1.25;0.5;-0.253418;0.030273;0.973145;-0.77;-1.19;0.84;539.0;-0.128995;-0.059318
3.71;8.25;7.25;5.75;5.0;1.0;0.5;0.25;0.25;2.25;0.25;0.75;0.5;0.25;1.5;0.25;0.25;-0.217773;0.019531;0.986328;-0.63;0.91;0.56;393.0;-0.219389;-0.009464;6.5;8.75;5.0;6.25;1.25;3.75;0.5;1.0;3.0;1.5;2.75;1.25;1.5;2.25;1.5;0.5;-0.252441;0.026367;0.975586;-0.77;-1.12;0.84;543.0;-0.125289;-0.062653
3.72;8.5;7.0;6.0;5.0;1.0;0.5;0.25;0.25;2.0;0.5;0.75;0.5;0.25;1.5;0.25;0.25;-0.218262;0.020508;0.989746;-0.63;1.05;0.49;395.0;-0.220801;-0.008896;6.5;8.5;5.0;6.25;1.5;3.5;0.75;1.0;2.75;1.5;2.75;1.25;1.5;2.25;1.5;0.5;-0.259766;0.027344;0.976074;-0.7;-1.05;0.91;541.0;-0.124742;-0.060233
3.73;8.25;7.0;6.0;5.0;1.0;0.5;0.25;0.25;1.75;0.25;0.75;0.5;0.0;1.5;0.25;0.25;-0.221191;0.025879;0.991699;-0.63;0.84;0.42;384.0;-0.229713;-0.010166;6.5;8.5;5.0;6.25;1.5;3.5;0.5;0.75;2.75;1.75;2.75;1.25;1.5;2.5;1.5;0.5;-0.248047;0.026855;0.973633;-0.7;-1.05;0.84;538.0;-0.122934;-0.058303
3.74;8.25;7.5;6.0;5.0;1.0;0.5;0.25;0.25;2.0;0.25;0.75;0.5;0.0;1.25;0.25;0.5;-0.219727;0.02832;0.992188;-0.56;0.91;0.56;392.0;-0.229255;-0.011837;6.75;8.75;5.0;6.25;1.5;3.75;0.5;1.0;2.75;1.75;2.75;1.25;1.5;2.5;1.25;0.5;-0.253418;0.02832;0.972168;-0.77;-1.19;0.84;548.0;-0.127828;-0.061511
3.75;8.25;7.5;6.0;5.0;1.0;0.5;0.25;0.25;2.0;0.25;0.75;0.5;0.0;1.25;0.25;0.25;-0.223145;0.022461;0.98877;-0.77;1.05;0.49;390.0;-0.231494;-0.010691;6.5;9.0;5.0;6.25;1.5;3.75;0.75;0.75;2.75;1.5;2.5;1.25;1.5;2.25;1.5;0.5;-0.258301;0.025391;0.977051;-0.63;-0.98;0.77;542.0;-0.130319;-0.059544
3.76;8.5;7.75;6.25;5.0;1.0;0.5;0.0;0.25;1.75;0.5;1.0;0.5;0.25;1.75;0.0;0.25;-0.223145;0.022949;0.989746;-0.63;0.91;0.49;401.0;-0.229831;-0.015389;6.5;8.75;5.0;6.25;1.5;3.5;0.75;0.75;3.0;1.75;2.5;1.25;1.5;2.0;1.5;0.5;-0.257324;0.021973;0.966797;-0.77;-1.12;0.84;541.0;-0.126689;-0.056036
3.77;8.5;7.75;6.25;5.0;1.0;0.5;0.0;0.25;2.0;0.5;1.25;0.75;0.25;1.5;0.25;0.25;-0.220215;0.020508;0.987305;-0.7;0.91;0.56;410.0;-0.218519;-0.017092;6.5;8.75;5.0;6.25;1.25;3.5;0.5;0.75;3.0;1.75;2.5;1.25;1.25;2.25;1.5;0.5;-0.252441;0.022461;0.975098;-0.63;-1.19;0.77;534.0;-0.127256;-0.056194
3.78;8.5;7.25;6.0;5.0;1.0;0.5;0.0;0.0;2.0;0.5;1.0;0.25;0.25;1.25;0.25;0.25;-0.217773;0.021973;0.987793;-0.56;0.77;0.56;387.0;-0.231215;-0.008251;6.5;8.75;5.0;6.5;1.25;3.5;0.75;0.75;3.0;1.5;2.5;1.5;1.5;2.5;1.5;0.75;-0.256348;0.022949;0.974121;-0.7;-1.19;0.91;547.0;-0.121824;-0.058204
3.79;8.5;7.25;6.0;5.0;1.0;0.5;0.0;0.0;2.0;0.5;1.0;0.25;0.25;1.25;0.25;0.25;-0.219238;0.024902;0.986816;-0.56;0.77;0.56;387.0;-0.231215;-0.008251;6.5;8.75;5.0;6.25;1.25;3.75;0.5;0.5;3.0;1.5;2.75;1.0;1.5;2.5;1.5;0.5;-0.250977;0.027832;0.977539;-0.7;-1.05;0.77;534.0;-0.126513;-0.055223
3.8;8.75;6.75;6.0;5.0;1.0;0.5;0.25;0.25;2.0;0.5;0.75;0.5;0.25;1.25;0.25;0.25;-0.220703;0.025879;0.98877;-0.63;0.91;0.42;393.0;-0.224597;-0.008143;6.75;9.0;5.0;6.0;1.25;3.75;0.5;0.75;3.0;1.5;2.5;1.25;1.25;2.5;1.5;0.5;-0.249512;0.025391;0.974121;-0.7;-0.91;0.77;538.0;-0.128919;-0.055725
3.81;8.25;7.0;6.25;5.0;1.0;0.5;0.25;0.25;1.75;0.25;0.75;0.25;0.25;1.5;0.25;0.25;-0.219238;0.025391;0.98877;-0.56;0.84;0.49;386.0;-0.230836;-0.010001;6.75;9.0;5.0;6.5;1.25;3.75;0.5;0.75;2.75;1.75;2.5;1.25;1.25;2.5;1.5;0.75;-0.254883;0.025879;0.970215;-0.77;-1.05;0.84;545.0;-0.129936;-0.059827
3.82;8.25;7.25;6.25;5.0;1.0;0.5;0.0;0.25;2.0;0.25;0.75;0.5;0.0;1.5;0.25;0.25;-0.222168;0.018555;0.98877;-0.63;0.91;0.49;389.0;-0.230018;-0.010457;6.5;8.75;5.0;6.25;1.5;3.5;0.5;1.0;3.0;1.5;2.5;1.75;1.25;2.5;1.5;0.5;-0.255371;0.026367;0.972168;-0.7;-0.98;0.84;546.0;-0.122443;-0.060265
3.83;8.5;7.0;5.75;5.0;1.0;0.5;0.0;0.0;2.0;0.5;1.0;0.5;0.0;1.5;0.25;0.25;-0.222168;0.021484;0.984863;-0.7;0.91;0.49;385.0;-0.224995;-0.006247;6.25;8.75;5.0;6.25;1.5;3.5;0.5;1.0;3.25;1.75;2.75;1.5;1.5;2.25;1.0;1.0;-0.254395;0.021973;0.973633;-0.77;-0.98;0.84;547.0;-0.120506;-0.061237
3.84;8.5;7.0;6.0;5.0;1.0;0.5;0.0;0.0;1.5;0.5;0.5;0.5;0.25;1.5;0.25;0.25;-0.214844;0.022949;0.98584;-0.7;0.91;0.49;377.0;-0.238832;-0.011977;6.5;8.75;5.0;6.25;1.5;3.5;0.75;1.0;3.0;1.5;2.75;1.5;1.25;2.25;1.25;0.75;-0.252441;0.028809;0.971191;-0.77;-1.12;0.84;546.0;-0.124582;-0.058615
3.85;8.5;7.25;6.0;5.0;0.75;0.5;0.0;0.25;2.0;0.75;0.5;0.5;0.25;1.75;0.25;0.25;-0.21875;0.019043;0.987305;-0.7;0.91;0.49;393.0;-0.222116;-0.010669;6.5;8.5;5.0;6.25;1.5;3.5;0.75;1.0;3.0;1.5;2.75;1.5;1.5;2.25;1.25;0.75;-0.249512;0.030762;0.974121;-0.63;-0.98;0.77;546.0;-0.121967;-0.059856
3.86;8.25;7.5;6.25;5.0;1.0;0.5;0.0;0.0;2.25;0.5;0.75;0.75;0.25;1.75;0.25;0.25;-0.220703;0.023926;0.988281;-0.63;0.91;0.49;401.0;-0.216562;-0.008021;6.25;8.5;5.0;6.25;1.5;3.5;0.75;1.0;2.75;1.5;2.75;1.5;1.5;2.25;1.25;0.75;-0.256348;0.02832;0.972168;-0.7;-0.98;0.84;540.0;-0.123;-0.062953
3.87;8.25;7.5;6.0;5.0;1.25;0.5;0.0;0.0;2.0;0.5;1.0;0.5;0.25;1.75;0.25;0.25;-0.220215;0.023438;0.991211;-0.63;0.91;0.49;397.0;-0.219655;-0.009473;6.5;8.75;5.0;6.25;1.5;3.75;0.75;0.75;2.75;1.5;2.5;1.75;1.25;2.5;1.25;0.5;-0.25293;0.026855;0.97168;-0.7;-1.12;0.77;543.0;-0.127209;-0.058678
3.88;8.75;7.5;6.0;5.0;1.25;0.5;0.0;0.0;2.0;0.75;1.0;0.5;0.25;1.25;0.0;0.0;-0.22168;0.027344;0.988281;-0.7;0.98;0.49;397.0;-0.233066;-0.007791;6.25;8.75;5.0;6.25;1.5;3.5;0.75;0.75;2.75;1.75;2.5;1.25;1.5;2.0;1.0;0.5;-0.255371;0.03125;0.976562;-0.7;-1.05;0.84;529.0;-0.133595;-0.05887
3.89;8.5;7.5;6.25;5.0;1.0;0.75;0.0;0.25;2.0;0.75;0.75;0.5;0.25;1.75;0.0;0.0;-0.223633;0.019531;0.985352;-0.63;0.84;0.49;403.0;-0.225863;-0.011409;6.5;8.5;5.0;6.25;1.5;3.5;0.75;0.75;3.0;1.75;2.75;1.25;1.5;2.0;1.25;0.5;-0.253906;0.023438;0.973145;-0.63;-1.12;0.84;538.0;-0.126304;-0.055699
3.9;8.25;7.5;6.25;5.0;1.0;0.5;0.25;0.25;2.0;0.75;0.75;0.75;0.25;1.75;0.25;0.0;-0.222656;0.022461;0.986328;-0.63;0.98;0.56;407.0;-0.214535;-0.010276;6.5;8.75;5.0;6.25;1.25;3.5;0.75;1.0;3.0;1.75;2.5;1.5;1.5;2.25;1.5;0.5;-0.251953;0.02832;0.974609;-0.63;-0.91;0.84;547.0;-0.121773;-0.059505
3.91;8.25;7.5;6.0;5.0;1.0;0.5;0.25;0.25;2.0;0.75;1.0;0.75;0.25;1.5;0.25;0.0;-0.217285;0.022461;0.990723;-0.63;0.91;0.49;405.0;-0.214635;-0.012851;6.5;8.75;5.0;6.5;1.25;3.75;0.75;1.0;2.75;1.5;2.5;1.25;1.5;2.5;1.5;0.5;-0.256836;0.021484;0.978027;-0.63;-0.98;0.84;546.0;-0.126681;-0.062149
3.92;8.75;7.0;6.0;5.0;1.0;0.5;0.25;0.0;2.25;0.5;1.0;0.75;0.25;1.75;0.25;0.0;-0.21875;0.016113;0.989258;-0.56;0.98;0.49;404.0;-0.212271;-0.002236;6.5;8.5;5.0;6.25;1.5;3.75;0.5;1.0;2.75;1.5;2.75;1.25;1.5;2.25;1.25;0.5;-0.255859;0.027344;0.969727;-0.7;-1.05;0.84;537.0;-0.129307;-0.063614
3.93;8.5;7.5;6.25;5.0;1.0;0.5;0.25;0.25;2.25;0.5;0.75;0.5;0.25;1.75;0.25;0.25;-0.222168;0.022949;0.98584;-0.56;1.12;0.63;409.0;-0.215785;-0.006568;6.5;8.75;5.0;6.0;1.5;3.75;0.5;0.75;3.0;1.5;2.5;1.5;1.5;2.25;1.25;0.5;-0.255371;0.026855;0.974609;-0.7;-0.98;0.84;536.0;-0.128188;-0.05936
3.94;8.25;7.5;6.0;5.0;1.0;0.5;0.25;0.0;2.0;0.5;0.5;0.5;0.25;1.25;0.5;0.25;-0.222656;0.020508;0.984375;-0.7;0.98;0.49;391.0;-0.226645;-0.008561;6.5;8.5;5.0;6.25;1.5;3.5;0.5;0.75;3.0;1.5;2.75;1.25;1.5;2.25;1.5;0.5;-0.250488;0.027344;0.978027;-0.84;-1.05;0.84;537.0;-0.124648;-0.057754
3.95;8.25;7.25;6.25;5.0;1.0;0.5;0.0;0.0;2.0;0.5;0.75;0.5;0.25;1.75;0.5;0.25;-0.217285;0.022949;0.980957;-0.63;1.05;0.56;395.0;-0.218143;-0.008007;6.25;8.5;5.0;6.5;1.25;3.75;0.75;0.75;2.75;1.75;2.5;1.25;1.5;2.25;1.75;0.5;-0.25293;0.025391;0.979004;-0.77;-1.19;0.84;540.0;-0.122311;-0.060492
3.96;8.75;7.25;6.25;5.0;1.0;0.75;0.0;0.25;2.0;0.5;1.0;0.5;0.25;1.75;0.25;0.25;-0.22168;0.017578;0.987305;-0.56;0.84;0.56;408.0;-0.219414;-0.01247;6.5;9.0;5.0;6.25;1.5;3.5;0.5;1.0;3.0;1.5;2.5;1.25;1.5;2.25;1.5;0.5;-0.258789;0.026855;0.973145;-0.77;-1.05;0.91;543.0;-0.128344;-0.061016
3.97;8.5;7.5;5.75;5.0;1.0;0.75;0.25;0.25;1.75;0.5;0.75;0.5;0.25;1.5;0.25;0.25;-0.215332;0.026855;0.990234;-0.7;0.98;0.63;397.0;-0.226733;-0.016181;6.5;8.5;5.0;6.25;1.5;3.5;0.5;1.0;3.0;1.5;2.5;1.75;1.5;2.25;1.0;0.25;-0.250488;0.030273;0.975098;-0.7;-1.05;0.84;536.0;-0.129093;-0.061625
3.98;8.75;7.5;5.75;5.0;1.0;0.75;0.25;0.0;1.75;0.5;0.75;0.5;0.25;1.5;0.25;0.25;-0.218262;0.019043;0.981934;-0.7;0.91;0.42;395.0;-0.230254;-0.011331;6.25;8.5;5.0;6.5;1.25;3.75;0.5;1.0;3.0;1.75;2.75;1.75;1.5;2.25;1.25;0.5;-0.252441;0.019531;0.972168;-0.77;-1.12;0.91;547.0;-0.120771;-0.06565
3.99;8.75;7.25;6.0;5.0;1.0;0.5;0.25;0.25;1.75;0.75;1.0;0.5;0.25;1.5;0.0;0.25;-0.224609;0.024414;0.992188;-0.77;0.91;0.56;400.0;-0.225625;-0.011309;6.0;8.75;5.0;6.25;1.5;3.5;0.5;1.0;3.0;1.75;2.5;1.5;1.5;2.25;1.25;0.5;-0.257324;0.029785;0.97168;-0.77;-0.98;0.91;538.0;-0.123202;-0.062795
4.0;8.75;7.5;6.0;5.0;0.75;0.5;0.0;0.0;2.0;0.25;0.75;0.5;0.25;1.75;0.0;0.25;-0.221191;0.021484;0.983887;-0.63;1.05;0.49;389.0;-0.235059;-0.008061;6.5;9.0;5.0;6.5;1.5;3.75;0.5;1.0;3.0;1.5;2.5;1.25;1.5;1.5;1.5;0.5;-0.250488;0.030273;0.969727;-0.84;-1.12;0.91;542.0;-0.136309;-0.066153
4.01;8.5;7.5;6.0;5.0;1.0;0.5;0.0;0.0;2.0;0.0;0.75;0.75;0.25;2.0;0.25;0.25;-0.223633;0.019043;0.989258;-0.63;0.91;0.49;394.0;-0.224705;-0.010441;6.75;8.5;5.0;6.25;1.5;3.75;0.75;1.0;3.0;1.5;2.5;1.75;1.5;2.25;1.5;0.5;-0.250488;0.018555;0.973145;-0.91;-0.98;0.84;554.0;-0.122192;-0.060513
4.02;8.25;7.5;5.75;5.0;1.0;0.5;0.25;0.25;1.75;0.25;0.5;0.5;0.25;1.75;0.25;0.25;-0.221191;0.025391;0.987305;-0.56;0.98;0.49;388.0;-0.228953;-0.013814;6.5;8.5;5.0;6.5;1.25;3.75;0.5;0.75;3.0;1.75;2.5;1.5;1.5;2.5;1.5;0.5;-0.254883;0.030273;0.969238;-0.91;-1.12;0.84;545.0;-0.121575;-0.05982
4.03;8.25;7.25;5.75;4.75;1.0;0.5;0.25;0.0;1.75;0.5;0.5;0.5;0.25;1.75;0.25;0.25;-0.222168;0.020508;0.991211;-0.56;0.98;0.42;381.0;-0.226114;-0.00643;6.0;8.5;5.0;6.5;1.25;3.5;0.5;0.75;3.0;1.75;2.5;1.5;1.25;2.5;1.5;0.5;-0.253418;0.024902;0.975098;-0.91;-0.98;0.91;534.0;-0.119702;-0.058648
4.04;8.5;7.5;6.0;5.0;1.0;0.5;0.25;0.25;2.0;0.5;0.5;0.5;0.25;1.75;0.25;0.25;-0.219727;0.023438;0.981934;-0.63;0.98;0.49;400.0;-0.222788;-0.00903;6.0;8.75;5.0;6.5;1.25;3.75;0.5;1.0;3.0;1.75;2.5;1.5;1.25;2.25;1.5;0.5;-0.248535;0.025879;0.976562;-0.84;-1.19;0.77;541.0;-0.122722;-0.063904
4.05;8.25;7.5;6.0;5.0;1.0;0.75;0.0;0.0;2.0;0.5;0.5;0.5;0.25;1.25;0.25;0.25;-0.215332;0.019531;0.993652;-0.63;0.98;0.56;387.0;-0.234036;-0.01272;7.0;8.75;5.0;6.25;1.5;3.5;0.75;1.0;3.0;1.75;2.5;1.25;1.5;2.25;1.25;0.5;-0.253418;0.031738;0.969727;-0.77;-1.05;0.84;550.0;-0.129176;-0.055759
4.06;8.0;7.25;6.0;5.0;1.0;0.5;0.0;0.0;2.0;0.5;0.75;0.5;0.25;1.25;0.25;0.0;-0.214355;0.022949;0.986328;-0.63;0.98;0.56;380.0;-0.231061;-0.010175;7.0;9.0;5.0;6.25;1.5;3.5;0.5;1.0;2.75;1.5;2.5;1.25;1.25;2.0;1.25;0.5;-0.256836;0.02832;0.978027;-0.84;-1.05;0.84;537.0;-0.140299;-0.060622
4.07;8.25;7.0;6.0;5.0;1.0;0.5;0.0;0.25;2.0;0.5;0.5;0.5;0.25;1.75;0.0;0.25;-0.218262;0.023926;0.98877;-0.7;1.12;0.56;385.0;-0.226859;-0.009987;6.5;8.75;5.0;6.5;1.25;3.5;0.5;1.0;2.75;1.75;2.5;1.25;1.5;2.25;1.25;0.5;-0.251465;0.023438;0.974609;-0.84;-1.05;0.91;537.0;-0.13137;-0.063582
4.08;8.5;7.5;6.0;5.0;1.0;1.0;0.0;0.25;2.0;0.5;0.5;0.5;0.25;1.75;0.25;0.0;-0.219727;0.023438;0.984863;-0.63;0.91;0.56;400.0;-0.227017;-0.014414;6.5;8.5;5.0;6.5;1.5;3.75;0.75;1.0;2.75;1.5;2.5;1.25;1.25;2.25;1.5;0.5;-0.250488;0.02832;0.974609;-0.98;-0.98;0.98;542.0;-0.128922;-0.060273
4.09;8.25;7.0;6.0;5.0;1.0;0.75;0.0;0.25;2.0;0.5;0.5;0.5;0.25;1.75;0.0;0.0;-0.219727;0.026367;0.990234;-0.63;0.98;0.56;386.0;-0.228536;-0.010846;6.5;8.75;5.0;6.5;1.5;3.75;0.75;1.0;2.75;1.5;2.5;1.5;1.5;2.5;1.5;0.5;-0.254395;0.024902;0.975098;-0.98;-1.05;0.91;552.0;-0.124924;-0.062696
4.1;8.5;7.0;6.0;4.75;1.0;0.75;0.0;0.25;1.75;0.5;0.75;0.5;0.0;1.5;0.25;0.25;-0.224121;0.020508;0.985352;-0.56;0.91;0.56;385.0;-0.229785;-0.011805;6.5;8.75;5.0;6.5;1.5;3.75;0.5;1.0;2.75;1.25;2.5;1.5;1.25;2.25;1.25;0.5;-0.250488;0.02002;0.972168;-0.98;-0.98;0.91;538.0;-0.134879;-0.064891
4.11;8.5;7.25;6.25;5.0;1.0;0.75;0.0;0.25;1.75;0.5;0.75;0.75;0.0;1.5;0.25;0.25;-0.222168;0.019043;0.989746;-0.56;1.05;0.56;397.0;-0.228496;-0.015681;6.5;8.25;5.0;6.5;1.5;3.5;0.5;0.75;2.75;1.25;2.5;1.25;1.25;2.25;1.5;0.5;-0.251953;0.027344;0.977539;-0.91;-0.98;0.84;525.0;-0.131972;-0.05898
4.12;8.5;7.5;6.25;4.75;1.0;0.75;0.0;0.25;2.0;0.5;0.75;0.5;0.0;1.5;0.0;0.25;-0.22168;0.02832;0.987305;-0.63;1.05;0.49;394.0;-0.232675;-0.009888;7.0;8.75;5.0;6.25;1.5;3.5;0.5;0.75;2.75;1.5;2.75;1.0;1.5;2.25;1.5;0.5;-0.255859;0.024902;0.97168;-0.98;-0.98;0.77;538.0;-0.133259;-0.057443
