Time;left pressure 1[N/cm²];left pressure 2[N/cm²];left pressure 3[N/cm²];left pressure 4[N/cm²];left pressure 5[N/cm²];left pressure 6[N/cm²];left pressure 7[N/cm²];left pressure 8[N/cm²];left pressure 9[N/cm²];left pressure 10[N/cm²];left pressure 11[N/cm²];left pressure 12[N/cm²];left pressure 13[N/cm²];left pressure 14[N/cm²];left pressure 15[N/cm²];left pressure 16[N/cm²];left acceleration X[g];left acceleration Y[g];left acceleration Z[g];left angular X[dps];left angular Y[dps];left angular Z[dps];left total force[N];left center of pressure X[-0.5...+0.5];left center of pressure Y[-0.5...+0.5];right pressure 1[N/cm²];right pressure 2[N/cm²];right pressure 3[N/cm²];right pressure 4[N/cm²];right pressure 5[N/cm²];right pressure 6[N/cm²];right pressure 7[N/cm²];right pressure 8[N/cm²];right pressure 9[N/cm²];right pressure 10[N/cm²];right pressure 11[N/cm²];right pressure 12[N/cm²];right pressure 13[N/cm²];right pressure 14[N/cm²];right pressure 15[N/cm²];right pressure 16[N/cm²];right acceleration X[g];right acceleration Y[g];right acceleration Z[g];right angular X[dps];right angular Y[dps];right angular Z[dps];right total force[N];right center of pressure X[-0.5...+0.5];right center of pressure Y[-0.5...+0.5]
0.0;7.5;8.25;8.0;9.25;2.0;3.25;0.0;1.25;0.75;2.75;3.25;3.0;2.0;1.0;0.75;1.5;-0.209961;0.032227;0.976074;-2.94;2.31;-0.42;567.0;-0.15517;-0.093964;4.25;4.0;4.25;3.75;1.5;1.0;0.0;0.5;0.0;1.0;2.0;2.25;1.25;2.5;0.5;1.0;-0.242676;0.024414;0.989258;0.42;-1.89;0.42;302.0;-0.113894;-0.077494
0.01;7.5;8.25;7.75;9.25;2.0;3.25;0.0;1.25;0.75;2.25;3.25;3.0;2.0;0.75;0.75;1.5;-0.208008;0.03125;0.980469;-2.8;2.24;-0.42;557.0;-0.160484;-0.097396;4.25;4.0;4.25;3.75;1.5;1.0;0.0;0.5;0.0;1.0;2.0;2.25;1.25;2.5;0.5;1.0;-0.242676;0.024414;0.989258;0.42;-1.89;0.42;302.0;-0.113894;-0.077494
0.02;7.25;8.0;7.5;9.0;2.0;2.75;0.0;1.25;0.75;2.5;3.25;3.0;2.0;0.75;0.5;1.5;-0.20459;0.032715;0.978027;-2.94;2.31;-0.49;541.0;-0.157963;-0.09594;4.25;4.0;4.25;3.75;1.5;1.0;0.0;0.5;0.0;1.0;2.0;2.25;1.25;2.5;0.5;1.0;-0.242676;0.024414;0.989258;0.42;-1.89;0.42;302.0;-0.113894;-0.077494
0.03;6.75;8.0;7.5;8.75;2.0;3.0;0.0;1.25;0.75;2.75;3.25;2.75;2.0;0.5;0.5;1.5;-0.211914;0.030762;0.97998;-2.66;2.38;-0.42;533.0;-0.157035;-0.097493;4.25;4.0;4.25;3.75;1.5;1.0;0.0;0.5;0.0;1.0;2.0;2.25;1.25;2.5;0.5;1.0;-0.242676;0.024414;0.989258;0.42;-1.89;0.42;302.0;-0.113894;-0.077494
0.04;6.75;7.75;7.5;8.75;2.0;3.0;0.0;1.25;1.0;2.75;3.25;2.5;2.0;0.5;0.5;1.5;-0.211426;0.026367;0.979004;-2.45;2.31;-0.42;532.0;-0.155181;-0.093925;4.25;4.0;4.25;3.75;1.5;1.0;0.0;0.5;0.0;1.0;2.0;2.25;1.25;2.5;0.5;1.0;-0.242676;0.024414;0.989258;0.42;-1.89;0.42;302.0;-0.113894;-0.077494
0.05;6.75;7.75;7.5;8.75;2.0;2.75;0.0;1.0;0.75;2.75;3.25;2.5;2.0;0.5;0.5;1.5;-0.203125;0.030273;0.980957;-2.31;2.45;-0.42;522.0;-0.158817;-0.093129;4.25;4.0;4.25;3.75;1.5;1.0;0.0;0.5;0.0;1.0;2.0;2.25;1.25;2.5;0.5;1.0;-0.242676;0.024414;0.989258;0.42;-1.89;0.42;302.0;-0.113894;-0.077494
0.06;6.75;7.75;7.5;8.25;2.0;2.75;0.0;1.0;1.0;2.5;3.25;3.0;2.0;0.25;0.5;1.5;-0.203613;0.03418;0.976562;-2.17;2.52;-0.49;520.0;-0.155457;-0.093373;4.25;4.0;4.25;3.75;1.5;1.0;0.0;0.5;0.0;1.0;2.0;2.25;1.25;2.5;0.5;1.0;-0.242676;0.024414;0.989258;0.42;-1.89;0.42;302.0;-0.113894;-0.077494
0.07;6.75;7.5;7.25;8.5;2.0;2.75;0.0;1.0;1.0;2.5;3.25;3.0;2.0;0.25;0.5;1.5;-0.206055;0.028809;0.97998;-2.1;2.52;-0.49;518.0;-0.154402;-0.09473;4.25;4.0;4.25;3.75;1.5;1.0;0.0;0.5;0.0;1.0;2.0;2.25;1.25;2.5;0.5;1.0;-0.242676;0.024414;0.989258;0.42;-1.89;0.42;302.0;-0.113894;-0.077494
0.08;6.5;7.5;7.0;8.25;2.0;3.0;0.0;1.0;1.0;2.75;3.25;3.0;2.0;0.5;0.75;1.5;-0.20459;0.032227;0.975586;-1.96;2.45;-0.42;520.0;-0.144714;-0.095005;4.25;4.0;4.25;3.75;1.5;1.0;0.0;0.5;0.0;1.0;2.0;2.25;1.25;2.5;0.5;1.0;-0.242676;0.024414;0.989258;0.42;-1.89;0.42;302.0;-0.113894;-0.077494
0.09;6.5;7.25;7.25;8.0;2.0;2.5;0.0;1.0;1.0;2.75;3.0;2.75;2.0;0.25;0.75;1.5;-0.203125;0.030762;0.976074;-1.82;2.24;-0.42;505.0;-0.149402;-0.091033;4.25;4.0;4.25;3.75;1.5;1.0;0.0;0.5;0.0;1.0;2.0;2.25;1.25;2.5;0.5;1.0;-0.242676;0.024414;0.989258;0.42;-1.89;0.42;302.0;-0.113894;-0.077494
0.1;6.75;7.25;7.25;7.75;2.0;2.25;0.0;1.0;0.75;2.25;3.25;2.75;2.0;0.5;0.75;1.5;-0.203613;0.027832;0.976074;-1.68;2.17;-0.35;498.0;-0.152306;-0.091264;4.25;4.0;4.5;4.0;1.5;1.5;0.0;0.5;0.0;1.25;2.0;2.0;0.75;2.75;0.5;1.25;-0.251953;0.022461;0.987793;0.21;-1.96;0.28;312.0;-0.115491;-0.071644
0.11;6.75;6.75;7.25;7.75;2.0;2.5;0.0;1.0;1.25;2.25;3.25;2.75;2.0;0.25;0.75;1.5;-0.209473;0.030762;0.976562;-1.54;1.89;-0.28;501.0;-0.146935;-0.087927;4.25;4.25;4.25;3.75;1.5;1.5;0.0;0.75;0.0;1.25;2.25;2.25;1.0;2.5;0.75;1.25;-0.246582;0.02002;0.987793;0.21;-1.96;0.49;321.0;-0.105499;-0.082783
0.12;6.25;6.75;7.25;7.75;1.75;2.25;0.0;1.25;1.0;2.25;3.25;3.0;1.75;0.25;0.75;1.75;-0.197754;0.030762;0.973145;-1.54;1.75;-0.28;492.0;-0.144059;-0.09465;4.0;4.0;4.25;3.5;1.5;1.5;0.0;0.75;0.0;1.25;2.0;2.0;1.25;3.0;0.5;1.5;-0.244141;0.020996;0.990723;-0.0;-1.89;0.28;313.0;-0.09791;-0.080527
0.13;6.0;6.75;6.75;7.75;1.75;2.5;0.0;1.25;0.75;2.25;3.25;2.75;2.0;0.5;1.0;1.5;-0.211914;0.027832;0.976562;-1.33;1.68;-0.35;487.0;-0.140533;-0.099994;4.0;4.0;4.25;3.75;1.75;1.5;0.0;0.75;0.0;1.25;2.0;2.0;1.0;3.0;0.5;1.5;-0.242188;0.018555;0.986328;-0.21;-1.82;0.14;316.0;-0.101621;-0.077939
0.14;6.0;6.25;6.75;7.5;1.75;2.5;0.0;1.0;1.0;1.75;3.25;2.75;2.0;0.25;0.75;1.5;-0.207031;0.028809;0.977539;-1.12;1.47;-0.35;469.0;-0.145044;-0.096811;4.0;4.25;4.25;3.75;1.75;1.5;0.0;0.75;0.0;1.25;2.25;2.25;1.0;3.0;0.0;1.5;-0.24707;0.023438;0.987305;-0.28;-1.89;0.14;319.0;-0.107046;-0.080618
0.15;5.75;6.25;6.75;7.25;1.75;2.5;0.0;1.0;1.0;1.75;3.25;2.75;2.0;0.25;0.5;1.5;-0.207031;0.02832;0.969238;-1.05;1.26;-0.21;461.0;-0.1459;-0.097287;4.0;4.25;4.25;3.5;1.75;1.25;0.0;0.5;0.0;1.0;2.25;2.25;1.0;3.0;0.0;1.5;-0.243164;0.015625;0.980957;-0.42;-1.96;0.28;307.0;-0.109151;-0.074991
0.16;5.75;6.25;6.75;7.5;1.75;2.0;0.0;1.0;0.75;2.0;3.25;3.0;2.0;0.5;0.5;1.5;-0.20752;0.030762;0.978027;-1.12;1.19;-0.28;462.0;-0.142745;-0.097565;4.25;4.25;4.25;3.5;2.0;1.75;0.0;0.75;0.0;1.5;2.25;2.25;1.25;3.25;0.25;1.25;-0.244629;0.023926;0.992676;-0.28;-1.89;0.14;332.0;-0.098368;-0.077111
0.17;5.75;6.25;6.75;7.5;1.5;2.25;0.0;1.0;0.75;2.0;3.25;3.0;2.0;0.75;0.5;1.5;-0.200684;0.034668;0.971191;-1.26;1.19;-0.28;464.0;-0.140358;-0.09827;4.0;4.25;4.25;3.75;1.75;1.25;0.0;0.5;0.0;1.25;2.25;2.25;1.25;3.25;0.0;1.25;-0.241699;0.019043;0.986816;-0.14;-1.96;0.14;315.0;-0.104404;-0.075072
0.18;5.75;6.0;6.75;7.25;1.75;2.25;0.0;1.0;0.75;1.75;3.25;2.75;2.0;0.75;0.5;1.5;-0.20459;0.028809;0.972656;-1.19;1.26;-0.35;457.0;-0.142173;-0.095993;4.25;4.0;4.5;4.0;1.5;1.75;0.0;0.5;0.0;1.5;2.25;2.25;1.0;3.0;0.0;1.25;-0.242188;0.020996;0.982422;0.07;-2.03;0.14;322.0;-0.110635;-0.075247
0.19;5.75;6.0;6.75;7.25;1.75;2.25;0.0;1.0;0.75;1.75;3.0;2.5;2.0;1.0;0.5;1.5;-0.208984;0.027832;0.976074;-1.54;1.26;-0.35;454.0;-0.143732;-0.093435;4.25;4.0;4.25;4.0;1.75;1.75;0.0;0.75;0.0;1.5;2.25;2.25;1.25;3.0;0.5;1.5;-0.245605;0.026855;0.983398;0.07;-2.1;0.28;335.0;-0.096469;-0.082679
0.2;6.0;6.0;6.75;7.0;1.75;2.25;0.0;1.0;0.25;1.75;3.0;2.75;2.0;1.0;0.5;1.5;-0.206055;0.03125;0.978516;-1.26;1.12;-0.42;450.0;-0.148104;-0.098006;4.25;4.25;4.25;4.0;1.75;1.75;0.0;0.75;0.25;1.5;2.25;2.25;1.25;3.25;0.25;1.75;-0.245605;0.022461;0.987305;-0.0;-2.17;0.21;341.0;-0.094134;-0.079116
0.21;6.0;5.5;6.75;7.25;1.75;1.75;0.0;1.0;0.25;1.75;3.0;3.0;2.0;1.25;0.5;1.5;-0.203613;0.030273;0.978027;-1.33;1.33;-0.35;447.0;-0.141369;-0.095807;4.0;4.25;4.25;4.0;2.0;1.75;0.0;0.75;0.0;1.25;2.25;2.75;1.25;3.75;0.25;1.75;-0.244629;0.027344;0.989746;-0.0;-2.1;0.14;345.0;-0.087026;-0.08398
0.22;5.5;5.5;6.5;7.0;1.75;2.25;0.0;0.75;0.5;1.75;3.0;3.0;2.25;1.5;0.75;1.5;-0.208984;0.030273;0.975586;-1.47;1.54;-0.35;448.0;-0.127647;-0.095857;4.25;4.25;4.25;3.75;2.5;1.5;0.0;0.75;0.0;1.5;2.25;2.75;1.25;3.75;0.5;1.75;-0.237793;0.022949;0.993164;-0.0;-2.03;0.07;353.0;-0.081775;-0.076647
0.23;5.5;5.5;6.5;7.0;1.75;1.75;0.0;1.0;0.5;1.75;3.25;2.75;2.25;1.5;0.75;1.5;-0.208984;0.032715;0.97168;-1.61;1.54;-0.28;447.0;-0.126278;-0.09516;4.25;4.25;4.5;3.75;2.0;1.5;0.0;0.75;0.0;1.5;2.25;2.25;1.5;3.75;0.25;1.5;-0.231934;0.004883;0.990234;-0.28;-2.1;0.14;343.0;-0.090957;-0.075589
0.24;5.5;5.5;6.25;6.75;1.5;2.0;0.0;1.25;0.5;1.5;3.25;2.75;2.25;1.5;0.75;1.5;-0.200684;0.03125;0.981934;-1.54;1.61;-0.42;442.0;-0.125742;-0.101072;4.25;4.0;4.5;4.0;2.0;1.5;0.0;0.75;0.0;1.5;2.5;2.25;1.25;3.5;0.25;1.5;-0.245117;0.021484;0.983398;-0.35;-2.03;0.07;342.0;-0.092702;-0.075616
0.25;5.5;5.25;6.0;6.75;1.5;2.25;0.0;1.25;0.25;1.75;3.25;3.0;2.0;2.0;1.0;1.5;-0.208008;0.032715;0.973633;-1.82;1.75;-0.56;447.0;-0.115379;-0.101393;4.25;4.0;4.5;4.0;1.75;1.5;0.0;0.75;0.0;1.25;2.5;2.75;1.5;3.75;0.5;1.5;-0.240234;0.019043;0.982422;-0.42;-1.96;0.07;348.0;-0.081881;-0.081966
0.26;5.25;5.5;6.0;6.25;1.5;2.25;0.0;1.25;0.25;1.5;2.75;3.0;2.0;2.25;1.0;1.75;-0.210938;0.031738;0.974609;-1.89;1.68;-0.49;436.0;-0.115254;-0.101539;4.25;4.0;4.25;3.75;2.0;1.75;0.0;0.75;0.0;1.25;2.5;2.75;1.25;3.75;0.25;1.5;-0.243164;0.021484;0.98584;-0.56;-1.89;0.21;344.0;-0.084984;-0.080188
0.27;5.5;5.25;6.0;6.25;1.5;2.0;0.0;1.25;0.5;1.5;2.75;3.0;2.25;2.0;1.25;1.5;-0.206055;0.026855;0.979004;-1.75;1.75;-0.35;439.0;-0.111864;-0.098453;4.25;4.0;4.5;3.5;2.0;1.5;0.0;0.75;0.0;1.25;2.75;2.75;1.5;4.0;0.25;1.75;-0.244629;0.021484;0.985352;-0.49;-2.03;0.21;349.0;-0.075636;-0.078167
0.28;5.25;5.25;6.25;6.25;1.75;2.25;0.0;1.25;0.25;1.75;3.0;3.0;2.25;1.75;1.0;1.5;-0.209473;0.032715;0.977539;-1.82;1.68;-0.42;441.0;-0.115735;-0.101901;4.0;4.0;4.5;3.75;2.25;1.5;0.0;0.5;0.0;1.25;2.75;2.25;1.5;4.0;0.5;1.5;-0.243652;0.023438;0.990723;-0.56;-2.03;0.14;344.0;-0.078337;-0.071934
0.29;5.25;5.25;6.25;6.0;1.5;2.0;0.0;1.0;0.25;1.75;3.25;3.0;2.25;2.5;1.25;1.5;-0.204102;0.029785;0.976562;-1.82;1.68;-0.42;441.0;-0.102475;-0.094514;4.0;4.0;4.5;4.0;2.25;1.5;0.0;0.75;0.0;1.5;2.75;2.75;1.5;4.0;0.25;1.75;-0.240723;0.021484;0.987305;-0.56;-2.1;0.14;357.0;-0.074597;-0.079668
0.3;5.25;5.25;6.0;6.25;1.75;1.75;0.0;1.0;0.25;1.5;3.0;3.0;2.0;2.5;1.0;1.5;-0.202148;0.032227;0.975098;-1.68;1.61;-0.42;431.0;-0.11097;-0.093471;4.25;4.0;4.5;3.75;2.0;1.5;0.0;0.75;0.0;1.5;2.5;2.75;1.75;4.25;0.25;1.75;-0.242188;0.02832;0.983887;-0.42;-2.1;0.14;356.0;-0.072766;-0.078786
0.31;5.0;5.0;6.0;6.0;1.5;1.75;0.0;1.0;0.25;1.75;2.75;2.75;2.0;2.5;1.0;1.5;-0.205566;0.029297;0.975098;-1.54;1.75;-0.42;418.0;-0.108163;-0.092083;4.0;4.0;4.25;3.75;2.0;1.5;0.0;1.0;0.0;1.5;2.25;2.75;1.75;4.25;0.25;1.75;-0.239258;0.027344;0.979492;-0.42;-2.03;0.21;352.0;-0.070376;-0.084604
0.32;5.0;5.25;6.0;5.75;1.25;1.75;0.0;1.0;0.5;2.0;3.25;3.0;2.0;2.75;1.0;1.5;-0.210449;0.030273;0.973633;-1.47;1.54;-0.42;431.0;-0.095113;-0.089088;4.0;4.0;4.25;4.0;2.25;1.5;0.0;0.75;0.0;1.5;2.0;2.75;1.5;4.75;0.25;1.75;-0.237793;0.020508;0.988281;-0.42;-2.17;0.14;353.0;-0.070958;-0.075544
0.33;5.25;5.25;6.5;5.75;1.25;1.75;0.0;1.0;0.5;1.75;2.75;3.0;2.25;3.0;1.0;1.5;-0.211914;0.030762;0.984863;-1.33;1.61;-0.35;435.0;-0.101195;-0.086765;4.0;3.75;4.25;4.0;2.0;1.5;0.0;0.75;0.0;1.5;2.5;3.0;1.5;4.75;0.5;1.75;-0.243164;0.018066;0.98584;-0.42;-2.17;0.14;359.0;-0.058428;-0.078265
0.34;5.25;5.0;6.25;6.0;1.5;1.75;0.0;1.0;0.5;1.5;3.0;3.0;2.0;3.0;1.5;1.5;-0.204102;0.029297;0.97998;-1.19;1.75;-0.42;439.0;-0.095119;-0.086566;4.0;3.75;4.25;3.75;1.75;1.75;0.0;0.75;0.0;1.5;2.75;3.0;1.5;4.75;0.25;1.75;-0.242188;0.019043;0.990723;-0.42;-2.03;0.07;356.0;-0.058217;-0.079948
0.35;5.25;5.0;6.25;5.75;1.25;2.0;0.0;1.0;0.5;1.75;2.75;2.75;2.0;3.0;1.25;1.5;-0.205566;0.035645;0.977539;-1.12;1.75;-0.49;431.0;-0.098916;-0.085465;4.0;3.75;4.25;3.5;2.0;1.75;0.0;0.75;0.0;1.5;2.75;3.0;1.5;4.75;0.25;1.5;-0.240723;0.018555;0.98584;-0.63;-2.17;0.14;355.0;-0.058567;-0.076837
0.36;5.25;4.75;6.25;5.75;1.5;2.0;0.0;1.0;0.5;1.75;2.75;3.0;2.25;3.25;1.0;1.5;-0.205078;0.030762;0.975586;-1.19;1.75;-0.42;435.0;-0.094763;-0.08599;4.25;3.75;4.5;3.5;2.0;1.75;0.0;0.75;0.0;1.5;2.75;3.25;1.75;5.0;0.25;1.75;-0.248047;0.01709;0.989258;-0.56;-2.1;0.21;368.0;-0.055034;-0.077506
0.37;5.25;5.0;6.0;5.75;1.25;1.75;0.0;1.0;0.25;1.75;2.75;3.25;2.25;3.25;1.25;1.75;-0.210938;0.030273;0.973145;-1.47;1.96;-0.49;433.0;-0.091146;-0.091998;4.0;3.75;4.5;3.5;2.0;1.5;0.0;0.75;0.0;1.5;2.75;2.75;1.75;5.25;0.25;1.75;-0.233398;0.030762;0.984375;-0.63;-1.82;0.07;360.0;-0.052886;-0.072662
0.38;5.25;5.0;6.0;5.75;1.25;1.75;0.0;1.0;0.25;1.25;3.0;3.0;2.25;3.25;1.25;1.75;-0.205078;0.030762;0.976074;-1.47;1.68;-0.28;428.0;-0.095086;-0.092784;3.75;3.25;4.5;3.5;2.5;1.5;0.0;1.0;0.0;1.5;2.75;3.0;1.75;5.5;0.25;1.75;-0.242676;0.022461;0.98877;-0.63;-1.82;0.21;367.0;-0.041922;-0.074225
0.39;4.75;5.0;6.25;5.75;1.5;1.75;0.0;1.0;0.5;1.5;3.0;3.0;2.0;3.5;1.25;1.5;-0.206543;0.034668;0.974121;-1.61;1.68;-0.35;432.0;-0.08827;-0.085453;3.75;4.0;4.5;3.5;2.25;1.5;0.0;0.75;0.0;1.5;2.75;2.75;1.5;5.25;0.25;1.75;-0.24707;0.022461;0.986816;-0.49;-1.82;0.21;360.0;-0.054585;-0.071203
0.4;4.75;5.0;6.25;5.75;1.5;1.75;0.0;1.0;0.5;2.0;3.0;2.75;2.0;4.0;1.25;1.5;-0.204102;0.027832;0.975586;-1.61;1.75;-0.42;439.0;-0.081304;-0.079874;4.0;3.5;4.25;3.0;2.0;1.5;0.0;1.0;0.0;1.25;2.5;2.75;1.5;5.0;0.25;1.75;-0.241699;0.018066;0.986816;-0.49;-1.89;0.21;343.0;-0.053157;-0.074258
0.41;5.0;4.5;6.0;6.0;1.5;1.75;0.0;0.75;0.5;1.25;2.25;3.0;2.25;4.0;1.5;1.5;-0.208008;0.035645;0.975586;-1.68;1.75;-0.35;425.0;-0.085847;-0.082314;3.75;3.25;4.25;3.5;2.25;1.75;0.0;0.75;0.0;1.5;2.5;2.75;1.5;5.25;0.5;1.75;-0.245117;0.016113;0.984863;-0.42;-1.82;0.28;353.0;-0.04522;-0.071918
0.42;4.75;4.75;6.0;5.75;1.5;1.75;0.0;1.0;0.5;1.25;2.5;3.0;2.25;4.0;1.0;1.5;-0.204102;0.029785;0.975586;-1.75;1.82;-0.35;423.0;-0.087943;-0.086006;4.0;3.25;4.25;4.0;2.25;1.5;0.0;1.0;0.0;1.5;2.5;3.0;1.5;5.5;0.5;1.75;-0.240723;0.022949;0.984375;-0.35;-1.82;0.21;367.0;-0.045754;-0.074916
0.43;5.0;4.5;6.0;5.75;1.5;1.75;0.0;1.0;0.25;1.5;2.75;2.75;2.0;3.5;1.0;1.5;-0.208008;0.026855;0.976562;-1.68;1.75;-0.28;416.0;-0.095099;-0.085849;4.0;3.25;4.5;3.5;2.0;1.5;0.0;1.0;0.0;1.5;2.75;2.75;1.75;5.5;0.25;1.75;-0.243164;0.022949;0.985352;-0.42;-1.82;0.21;361.0;-0.045072;-0.073357
0.44;5.0;4.5;6.0;5.25;1.75;1.75;0.0;1.25;0.5;1.25;3.0;3.0;2.0;3.75;1.5;1.75;-0.210938;0.032715;0.979492;-2.03;2.1;-0.35;432.0;-0.077633;-0.084853;3.5;3.25;4.5;3.5;2.25;1.75;0.0;1.0;0.0;1.5;2.75;3.0;1.75;5.5;0.25;1.75;-0.244141;0.021973;0.992676;-0.42;-1.89;0.35;364.0;-0.03955;-0.078033
0.45;5.0;4.5;5.75;5.75;1.5;1.75;0.0;1.0;0.5;1.25;3.0;2.75;2.25;3.75;1.25;1.5;-0.207031;0.031738;0.973633;-1.96;1.82;-0.35;424.0;-0.08432;-0.085901;3.5;3.75;4.25;3.5;2.25;1.5;0.0;1.25;0.25;1.75;2.75;3.0;1.75;5.5;0.5;1.75;-0.244629;0.026855;0.983398;-0.49;-1.89;0.35;375.0;-0.033753;-0.078102
0.46;4.75;4.5;6.0;5.25;1.5;1.75;0.0;1.0;0.25;1.5;3.0;2.5;2.25;4.0;1.25;1.5;-0.206055;0.02832;0.975098;-1.96;1.68;-0.28;417.0;-0.080846;-0.083333;4.0;3.25;4.25;3.5;2.25;1.5;0.0;0.75;0.0;1.25;2.75;3.25;1.75;5.5;0.75;1.75;-0.240723;0.022949;0.984863;-0.56;-1.89;0.21;365.0;-0.036185;-0.074583
0.47;4.75;4.75;5.75;5.0;1.5;1.75;0.0;1.0;0.25;1.5;3.0;2.75;2.25;3.5;1.0;1.5;-0.208496;0.030273;0.978516;-2.17;1.75;-0.35;410.0;-0.086492;-0.088109;4.0;3.25;4.5;3.25;2.0;1.75;0.0;0.75;0.0;1.25;2.75;2.75;1.75;5.5;0.5;1.75;-0.23877;0.021973;0.98877;-0.49;-1.68;0.21;357.0;-0.043122;-0.071385
0.48;4.75;4.75;5.75;5.0;1.25;1.75;0.0;1.0;0.5;1.75;3.0;3.0;2.0;3.25;1.0;1.75;-0.209473;0.033691;0.974121;-2.31;1.82;-0.35;413.0;-0.082021;-0.08675;4.0;3.75;4.25;3.25;2.25;1.5;0.0;0.75;0.0;1.25;2.75;2.75;1.75;5.5;0.5;1.75;-0.237305;0.022461;0.98291;-0.49;-1.61;0.42;359.0;-0.045985;-0.071308
0.49;5.25;4.75;5.75;5.0;1.75;1.75;0.0;1.0;0.25;1.75;3.25;2.75;2.0;3.25;1.0;1.5;-0.20752;0.032715;0.977051;-2.52;1.68;-0.35;419.0;-0.090539;-0.083344;3.5;3.5;4.25;3.25;2.25;1.75;0.0;1.0;0.25;1.5;3.25;3.0;1.75;6.0;0.5;1.75;-0.242676;0.021973;0.98877;-0.28;-1.47;0.35;376.0;-0.023861;-0.07334
0.5;5.0;4.75;6.0;4.75;1.75;1.75;0.0;0.75;0.25;1.75;3.25;3.0;2.25;3.25;1.0;1.5;-0.205078;0.027344;0.976562;-2.66;1.75;-0.42;417.0;-0.08595;-0.082944;4.0;3.25;4.5;3.5;2.25;1.75;0.0;1.0;0.25;1.75;3.25;3.0;1.75;6.0;0.25;1.75;-0.242676;0.021973;0.981445;-0.28;-1.61;0.28;385.0;-0.031412;-0.069245
0.51;4.75;4.75;5.75;5.0;1.75;1.75;0.0;0.75;0.25;1.75;3.0;3.0;2.0;3.0;1.0;1.5;-0.208008;0.028809;0.973633;-2.94;1.96;-0.42;408.0;-0.090025;-0.085431;4.0;3.5;4.5;3.5;2.0;1.75;0.0;1.0;0.25;1.5;3.0;3.0;1.5;5.5;0.25;1.75;-0.243164;0.020508;0.981934;-0.35;-1.61;0.21;372.0;-0.043056;-0.071948
0.52;4.75;4.5;5.75;5.25;1.75;1.75;0.0;0.75;0.5;2.0;3.25;3.0;2.0;2.75;1.25;1.75;-0.201172;0.033203;0.97998;-3.01;1.89;-0.35;419.0;-0.080753;-0.08441;4.0;4.0;4.5;3.25;2.25;1.75;0.0;1.0;0.25;1.25;2.5;3.0;1.75;5.25;0.5;2.0;-0.240723;0.020508;0.983398;-0.35;-1.54;0.28;373.0;-0.048942;-0.075974
0.53;5.0;4.5;5.75;5.0;1.75;1.75;0.0;1.0;0.5;1.75;3.25;3.0;2.0;2.0;1.25;1.5;-0.200684;0.03418;0.978027;-3.22;1.89;-0.35;412.0;-0.091905;-0.089343;4.0;3.75;4.5;3.25;2.25;1.5;0.0;0.75;0.0;1.5;2.75;3.25;1.75;5.25;0.0;1.75;-0.238281;0.025879;0.990723;-0.35;-1.75;0.42;362.0;-0.0512;-0.073671
0.54;4.75;4.5;6.0;5.0;1.75;1.75;0.0;1.0;0.5;1.75;3.25;3.0;2.0;1.75;1.25;1.5;-0.210449;0.027344;0.97998;-3.29;1.89;-0.28;410.0;-0.093742;-0.090765;4.25;4.0;4.25;3.25;2.25;1.5;0.0;0.75;0.25;1.5;2.75;3.0;1.75;5.25;0.0;1.75;-0.244141;0.022461;0.990723;-0.42;-1.82;0.35;365.0;-0.05348;-0.069484
0.55;4.5;4.5;6.0;5.25;1.75;1.75;0.0;1.0;0.5;2.25;3.5;3.0;2.0;1.25;1.0;1.5;-0.205078;0.030762;0.974121;-3.29;2.1;-0.42;411.0;-0.095276;-0.093955;4.25;3.75;4.25;3.25;2.5;1.5;0.0;0.75;0.25;1.5;2.75;3.0;1.5;5.25;0.5;1.75;-0.245605;0.017578;0.98291;-0.42;-1.68;0.42;369.0;-0.046476;-0.065783
0.56;5.0;4.5;6.0;5.25;1.75;1.75;0.0;1.0;0.5;2.25;3.5;3.0;2.0;1.25;0.75;1.5;-0.206055;0.030762;0.982422;-3.29;1.89;-0.35;414.0;-0.102328;-0.091492;4.0;3.5;4.5;3.25;2.5;1.0;0.0;0.75;0.0;1.5;2.75;3.0;1.5;5.25;0.5;1.75;-0.249023;0.021973;0.986328;-0.42;-1.75;0.28;358.0;-0.044383;-0.065152
0.57;5.25;5.0;6.0;5.25;1.5;1.75;0.0;1.0;0.5;2.5;3.25;3.0;2.0;1.5;0.75;1.5;-0.202148;0.02832;0.974121;-3.36;1.96;-0.35;420.0;-0.104792;-0.089598;4.0;3.75;4.5;3.25;2.25;1.75;0.0;0.75;0.25;1.5;3.0;2.75;1.75;5.0;0.5;1.75;-0.239746;0.026367;0.985352;-0.35;-1.75;0.42;369.0;-0.047094;-0.070751
0.58;5.0;4.75;6.0;5.0;1.5;1.75;0.0;1.0;0.75;2.75;3.25;3.25;2.0;1.0;1.0;1.5;-0.206543;0.030762;0.976562;-3.22;1.82;-0.35;419.0;-0.095155;-0.089688;4.0;3.75;4.25;3.25;2.25;1.75;0.0;0.75;0.25;1.5;3.0;2.75;1.75;5.0;0.5;1.75;-0.244629;0.018555;0.98877;-0.42;-1.75;0.42;366.0;-0.045429;-0.071971
0.59;4.75;4.5;5.75;5.25;1.5;1.75;0.0;0.75;0.25;2.75;3.5;3.0;2.0;1.0;1.0;1.5;-0.206055;0.030762;0.978516;-3.22;1.96;-0.28;404.0;-0.097853;-0.094554;3.75;3.75;4.25;3.25;2.25;1.75;0.0;0.75;0.0;1.5;2.75;3.25;1.75;5.25;0.25;1.75;-0.243652;0.022461;0.988281;-0.28;-1.82;0.35;362.0;-0.044464;-0.077786
0.6;4.75;4.25;5.75;5.25;1.75;1.75;0.0;0.75;0.25;2.5;3.75;3.0;2.0;1.0;1.0;1.75;-0.206543;0.029297;0.981934;-3.15;1.96;-0.35;406.0;-0.094775;-0.094979;3.5;3.5;4.25;3.25;2.0;1.75;0.0;1.0;0.25;1.5;2.75;3.25;1.75;5.5;0.25;1.75;-0.238281;0.016113;0.991699;-0.21;-1.75;0.28;364.0;-0.033235;-0.078227
0.61;4.75;4.25;6.0;4.75;1.5;1.75;0.0;0.5;0.5;2.75;3.75;2.75;2.0;1.25;1.0;1.75;-0.208496;0.02832;0.975586;-3.01;1.75;-0.35;402.0;-0.088178;-0.083393;4.0;3.5;4.25;3.25;2.25;1.75;0.0;1.0;0.25;1.5;3.0;3.25;1.75;5.0;0.5;1.75;-0.243652;0.019043;0.986328;-0.21;-1.75;0.35;373.0;-0.03921;-0.077817
0.62;4.5;4.25;6.25;5.0;1.75;1.75;0.0;0.75;0.5;2.75;3.5;3.0;1.75;1.5;0.75;1.5;-0.209473;0.030273;0.973145;-3.01;2.03;-0.42;407.0;-0.091822;-0.083318;4.0;4.0;4.25;3.25;2.25;1.5;0.0;1.0;0.25;2.0;3.0;3.0;1.75;5.25;0.5;1.75;-0.243164;0.018066;0.98291;-0.35;-1.61;0.35;379.0;-0.038332;-0.072602
0.63;4.75;4.25;6.25;5.0;1.75;1.75;0.0;0.75;0.5;2.75;3.5;3.0;1.75;1.5;1.0;1.5;-0.204102;0.029297;0.974609;-2.73;1.96;-0.28;413.0;-0.090592;-0.082106;4.0;3.25;4.25;3.25;2.25;1.75;0.0;1.0;0.25;1.75;3.0;3.0;1.75;5.25;0.5;2.0;-0.239258;0.020996;0.987793;-0.28;-1.82;0.42;374.0;-0.032662;-0.074155
0.64;4.75;4.5;6.0;5.0;1.75;1.5;0.0;0.75;0.5;3.0;3.75;3.25;1.75;1.0;1.0;1.5;-0.207031;0.027832;0.975586;-2.8;2.1;-0.28;413.0;-0.090012;-0.085811;4.0;3.25;4.5;3.5;2.0;1.5;0.0;1.0;0.0;1.75;2.75;3.0;1.75;5.25;0.5;2.0;-0.245605;0.020508;0.984863;-0.21;-1.68;0.35;368.0;-0.039158;-0.076381
0.65;5.0;4.75;6.0;5.0;1.5;1.5;0.0;0.75;0.75;3.0;3.5;3.0;1.75;1.0;1.0;1.5;-0.202637;0.032715;0.985352;-2.31;2.1;-0.28;413.0;-0.094722;-0.081637;4.0;3.25;4.5;4.0;2.25;1.5;0.0;1.0;0.0;2.0;2.75;3.0;1.75;5.0;0.5;1.75;-0.243652;0.018066;0.984375;-0.35;-1.75;0.42;375.0;-0.045486;-0.077154
0.66;5.0;4.5;5.75;5.0;1.75;1.5;0.0;0.75;0.75;3.0;3.5;3.0;1.75;1.25;1.0;1.5;-0.201172;0.029785;0.981445;-2.38;2.17;-0.28;413.0;-0.089361;-0.080034;4.0;3.25;4.5;4.0;2.0;1.5;0.0;0.75;0.25;1.5;3.0;3.0;1.75;5.25;0.75;1.75;-0.245605;0.016602;0.98291;-0.28;-1.75;0.28;374.0;-0.038887;-0.072716
0.67;5.0;4.25;5.75;5.0;1.75;1.75;0.0;0.75;1.25;3.0;3.5;3.0;1.75;1.25;1.0;1.5;-0.209961;0.031738;0.975098;-2.38;2.17;-0.28;420.0;-0.082587;-0.07529;4.0;3.25;4.5;3.5;2.0;1.75;0.0;0.75;0.25;1.5;3.0;3.0;1.75;5.5;0.75;1.75;-0.239746;0.025391;0.984375;-0.28;-1.75;0.35;374.0;-0.033492;-0.070514
0.68;4.75;4.25;5.75;5.0;1.75;1.5;0.0;0.75;1.0;3.0;3.75;3.0;1.75;1.5;0.75;1.5;-0.201172;0.025879;0.979492;-2.17;2.1;-0.28;414.0;-0.08142;-0.07682;4.0;3.5;4.25;3.25;2.0;1.75;0.0;1.0;0.0;1.5;3.25;3.0;1.75;5.25;0.75;1.75;-0.241699;0.024902;0.978027;-0.35;-1.75;0.28;372.0;-0.035313;-0.079236
0.69;4.5;4.5;5.75;5.0;1.5;1.25;0.0;0.5;1.25;3.0;3.75;3.25;2.0;1.5;1.0;1.5;-0.208496;0.029297;0.976074;-2.03;2.1;-0.21;415.0;-0.072234;-0.075877;4.0;3.5;4.25;3.5;2.25;1.75;0.0;1.0;0.0;1.75;3.0;3.25;1.75;5.5;0.5;1.75;-0.244629;0.020508;0.981934;-0.21;-1.82;0.28;379.0;-0.036563;-0.078079
0.7;4.75;4.5;5.5;4.75;1.75;1.25;0.0;0.75;0.75;3.0;3.5;3.0;2.0;1.75;0.75;1.5;-0.20166;0.02832;0.977051;-1.89;2.03;-0.21;406.0;-0.080963;-0.079451;4.0;3.5;4.25;3.75;2.5;1.75;0.0;1.25;0.25;1.75;2.75;3.25;1.75;5.5;0.75;2.0;-0.242188;0.023438;0.986328;-0.21;-1.82;0.35;393.0;-0.033664;-0.078823
0.71;4.5;4.5;5.5;4.75;1.75;1.5;0.0;0.75;1.0;3.0;3.5;2.75;2.0;1.5;0.5;1.5;-0.206543;0.032227;0.978516;-1.68;2.03;-0.21;402.0;-0.084334;-0.079019;4.0;3.5;4.25;3.75;2.25;1.75;0.0;1.0;0.0;2.0;2.75;3.25;1.75;5.5;0.75;1.75;-0.240234;0.022949;0.985352;-0.21;-1.68;0.28;385.0;-0.035228;-0.077937
0.72;4.5;4.5;6.0;4.75;1.75;1.5;0.0;0.75;1.25;3.0;3.75;3.0;2.0;1.5;0.75;1.5;-0.205078;0.02832;0.975098;-1.68;1.96;-0.21;419.0;-0.077215;-0.075629;4.0;4.0;4.25;3.75;2.0;1.75;0.0;1.0;0.0;2.0;3.0;3.25;1.75;5.5;0.5;2.0;-0.242188;0.022461;0.980469;-0.14;-1.82;0.35;388.0;-0.038977;-0.081024
0.73;4.75;4.5;5.75;4.75;1.75;1.75;0.0;0.75;1.25;2.75;3.75;3.0;2.0;1.25;0.5;1.5;-0.207031;0.02832;0.970215;-1.47;1.89;-0.21;414.0;-0.086073;-0.079021;4.0;3.5;4.25;3.5;2.25;1.75;0.0;1.0;0.0;1.5;3.0;3.25;1.75;5.25;0.5;2.0;-0.239258;0.026855;0.984375;-0.21;-1.75;0.35;376.0;-0.039591;-0.081361
0.74;4.75;4.75;5.75;5.0;1.75;1.75;0.0;0.75;1.25;2.75;3.75;3.0;2.0;1.25;0.5;1.5;-0.208008;0.030273;0.982422;-1.47;1.89;-0.21;419.0;-0.089209;-0.080455;3.5;3.25;4.25;3.75;2.25;1.75;0.0;1.0;0.0;1.5;2.75;3.25;1.75;5.25;0.75;2.0;-0.243652;0.023438;0.992676;-0.28;-1.68;0.28;371.0;-0.032714;-0.084311
0.75;4.5;4.5;5.75;4.75;1.75;1.75;0.0;0.75;1.25;2.75;3.5;3.0;2.0;1.25;0.75;1.5;-0.210938;0.033691;0.97998;-1.4;1.82;-0.14;411.0;-0.082906;-0.079989;3.5;3.5;4.25;3.5;2.25;2.0;0.0;1.0;0.25;1.5;3.25;3.25;1.75;5.5;0.25;2.25;-0.237793;0.021973;0.988281;-0.21;-1.68;0.21;380.0;-0.030203;-0.081872
0.76;4.5;4.0;5.0;4.75;1.75;1.5;0.0;0.75;1.25;2.75;3.5;3.0;2.0;1.5;0.75;1.5;-0.207031;0.031738;0.973145;-1.26;1.75;-0.21;398.0;-0.072071;-0.079855;4.0;3.5;4.25;3.25;2.25;1.75;0.0;1.0;0.0;1.5;3.25;3.25;1.75;5.75;0.25;2.25;-0.246582;0.024902;0.988281;-0.28;-1.75;0.42;379.0;-0.032546;-0.078476
0.77;4.75;4.0;5.5;4.75;1.75;1.5;0.0;0.75;0.5;2.25;3.5;3.25;2.0;2.0;0.75;1.5;-0.202637;0.030762;0.977539;-1.26;1.75;-0.21;398.0;-0.082081;-0.085547;4.0;3.5;4.25;3.5;2.25;1.75;0.0;1.0;0.0;1.5;3.0;3.25;1.75;5.25;0.25;2.0;-0.243164;0.021973;0.981445;-0.28;-1.75;0.28;373.0;-0.042743;-0.081355
0.78;4.5;4.0;5.5;4.5;1.5;1.5;0.0;0.75;1.0;2.25;3.25;3.5;2.0;2.25;1.0;1.5;-0.209473;0.030762;0.976562;-1.19;1.68;-0.21;401.0;-0.06705;-0.080746;4.0;3.25;4.25;3.5;2.25;1.75;0.0;1.0;0.0;1.5;3.0;3.25;1.75;5.0;0.5;1.75;-0.243164;0.027344;0.986816;-0.21;-1.75;0.35;370.0;-0.041315;-0.081471
0.79;4.5;4.25;5.5;4.75;1.25;1.5;0.0;0.75;0.75;2.25;3.25;3.0;2.0;1.75;1.0;1.5;-0.204102;0.027832;0.975586;-0.98;1.54;-0.21;391.0;-0.081908;-0.086151;3.75;3.5;4.25;3.25;2.25;1.5;0.0;1.25;0.25;1.5;3.25;3.25;1.75;5.75;0.25;2.25;-0.242676;0.023438;0.985352;-0.35;-1.75;0.35;380.0;-0.026482;-0.07846
0.8;4.0;4.0;5.5;4.75;1.25;1.25;0.0;1.0;0.75;2.25;3.25;3.0;2.0;2.5;1.0;1.5;-0.201172;0.030273;0.979492;-0.84;1.54;-0.14;391.0;-0.06642;-0.085626;3.75;3.75;4.25;3.75;2.5;1.5;0.0;1.25;0.25;0.75;3.25;3.25;2.0;6.0;0.25;2.0;-0.249512;0.018555;0.979492;-0.21;-1.75;0.28;386.0;-0.036452;-0.082855
0.81;4.5;3.75;5.5;4.75;1.5;1.75;0.0;0.75;0.75;2.0;3.25;3.0;2.0;2.5;1.25;1.5;-0.210449;0.024414;0.977539;-0.84;1.61;-0.21;398.0;-0.069743;-0.082203;3.75;3.5;4.125;3.5;2.375;1.5;0.0;1.125;0.125;1.0;3.25;3.25;1.875;6.0;0.375;2.0;-0.24658200000000002;0.0197755;0.9799805;-0.21;-1.75;0.245;377.5;-0.0295115;-0.0803095
0.82;4.25;4.0;5.0;4.75;1.25;1.75;0.0;0.75;0.75;1.75;3.5;3.0;2.0;2.5;1.25;1.5;-0.206055;0.03125;0.971191;-0.91;1.61;-0.35;389.0;-0.066465;-0.088644;3.75;3.25;4.0;3.25;2.25;1.5;0.0;1.0;0.0;1.25;3.25;3.25;1.75;6.0;0.5;2.0;-0.243652;0.020996;0.980469;-0.21;-1.75;0.21;369.0;-0.022571;-0.077764
0.83;4.0;4.0;5.0;4.5;1.25;1.75;0.0;0.75;1.0;2.0;3.5;3.0;2.25;2.25;1.0;1.5;-0.208008;0.027832;0.976562;-0.98;1.61;-0.21;387.0;-0.062394;-0.088502;3.75;3.5;4.0;3.25;2.0;1.5;0.0;1.0;0.25;1.75;3.5;3.25;2.0;6.0;0.25;2.25;-0.240234;0.022949;0.98584;-0.35;-1.54;0.35;381.0;-0.017027;-0.077599
0.84;4.0;3.75;5.5;4.75;1.25;1.5;0.0;0.75;0.75;1.75;3.5;3.0;2.0;2.0;1.0;1.5;-0.201172;0.030273;0.977539;-1.05;1.68;-0.28;380.0;-0.073003;-0.088615;3.0;3.75;4.0;3.5;2.25;1.75;0.0;1.25;0.25;1.75;3.25;3.25;2.0;6.0;0.0;2.0;-0.243164;0.021484;0.985352;-0.42;-1.61;0.28;381.0;-0.021169;-0.085397
0.85;4.25;4.0;4.75;4.75;1.25;1.5;0.0;0.75;0.5;1.75;3.0;3.0;2.0;2.5;1.25;1.5;-0.201172;0.029785;0.974609;-1.26;1.75;-0.28;375.0;-0.071256;-0.091416;3.75;3.0;4.25;3.5;2.0;1.75;0.0;1.25;0.5;2.25;3.25;3.5;1.75;6.0;0.25;2.0;-0.242188;0.020996;0.986328;-0.35;-1.54;0.14;393.0;-0.013643;-0.074271
0.86;4.25;3.75;4.75;4.25;1.5;1.75;0.0;0.75;0.25;1.75;3.0;3.0;2.0;2.75;1.25;1.5;-0.202637;0.02832;0.977539;-1.26;1.75;-0.21;372.0;-0.067028;-0.090862;4.0;3.0;4.25;3.25;2.0;1.75;0.0;1.25;0.5;2.0;3.25;3.5;2.0;6.0;0.25;2.0;-0.23877;0.021973;0.981934;-0.42;-1.61;0.14;392.0;-0.01497;-0.075064
0.87;4.25;3.75;5.0;4.25;1.25;1.5;0.0;0.75;0.25;1.75;3.0;3.0;2.25;3.0;1.25;1.5;-0.209473;0.032227;0.976074;-1.33;1.82;-0.28;373.0;-0.063355;-0.089929;3.75;3.0;4.0;3.25;2.0;1.5;0.0;1.0;0.25;2.0;3.25;3.5;2.0;6.0;0.5;1.75;-0.242188;0.021973;0.982422;-0.35;-1.61;0.28;379.0;-0.010265;-0.07514
0.88;4.25;3.75;4.75;4.0;1.25;1.25;0.0;1.0;0.5;1.75;3.0;3.25;2.0;2.5;1.25;1.5;-0.208984;0.030762;0.978027;-1.33;1.89;-0.21;368.0;-0.061059;-0.091191;3.75;3.25;3.75;3.25;2.25;1.75;0.0;1.0;0.25;2.0;3.25;3.25;2.0;6.0;0.75;2.0;-0.243164;0.023438;0.987305;-0.42;-1.61;0.35;385.0;-0.01;-0.076681
0.89;4.25;4.0;4.75;4.5;1.25;1.5;0.0;0.75;0.5;1.75;3.25;3.25;2.0;2.5;1.25;1.5;-0.200684;0.026855;0.981934;-1.47;1.96;-0.28;378.0;-0.065675;-0.092041;3.0;3.0;4.0;3.0;2.0;1.75;0.0;1.25;0.5;1.75;3.25;3.25;2.0;6.0;0.75;2.25;-0.239746;0.02002;0.989746;-0.21;-1.68;0.35;378.0;0.003407;-0.080602
0.9;4.0;4.0;5.0;4.5;1.5;1.5;0.0;0.75;0.5;2.25;3.25;3.0;2.0;2.75;1.25;1.5;-0.208008;0.029785;0.970703;-1.54;1.96;-0.28;385.0;-0.06038;-0.085999;2.75;3.0;4.0;3.25;2.0;1.75;0.0;1.25;0.5;1.5;3.25;3.5;2.0;6.25;0.75;2.25;-0.247559;0.024902;0.987793;-0.42;-1.61;0.21;380.0;0.006165;-0.083964
0.91;4.25;3.75;5.0;4.25;1.5;1.5;0.0;0.5;0.5;2.0;3.25;3.25;2.0;3.0;1.25;1.5;-0.215332;0.030273;0.97168;-1.68;2.03;-0.21;381.0;-0.056954;-0.081141;3.75;3.25;4.0;3.25;2.5;1.5;0.0;1.0;0.5;1.75;3.25;3.5;2.0;6.25;0.75;2.25;-0.246094;0.019531;0.986816;-0.42;-1.61;0.35;394.0;-0.006057;-0.072116
0.92;4.5;3.75;5.0;4.25;1.5;1.25;0.0;0.75;0.5;2.0;3.25;3.25;2.25;2.5;1.25;1.5;-0.209961;0.030273;0.975098;-1.82;1.89;-0.21;383.0;-0.062114;-0.086612;4.0;3.25;4.25;3.25;2.5;1.75;0.0;1.25;0.5;1.75;3.25;3.5;2.0;6.25;0.75;2.25;-0.239258;0.022461;0.98291;-0.35;-1.61;0.21;406.0;-0.011404;-0.074193
0.93;4.0;4.0;4.75;4.5;1.5;1.25;0.0;1.0;0.5;1.75;3.25;3.25;2.0;2.5;1.25;2.0;-0.208984;0.03125;0.976074;-1.82;1.89;-0.28;382.0;-0.059632;-0.095577;3.25;3.25;4.25;3.0;2.5;1.75;0.0;1.25;0.25;2.0;3.25;3.5;2.0;6.5;0.5;2.25;-0.245605;0.022461;0.983398;-0.42;-1.75;0.35;395.0;-0.002845;-0.077314
0.94;4.0;3.75;4.75;4.25;1.5;1.5;0.0;1.0;0.5;1.75;3.25;3.0;2.0;3.0;1.25;1.5;-0.210938;0.033691;0.97998;-1.89;1.96;-0.35;378.0;-0.056041;-0.08945;3.0;3.0;4.0;3.25;2.25;1.5;0.0;1.25;0.25;2.0;3.5;3.25;2.25;6.5;0.5;2.25;-0.244141;0.028809;0.984863;-0.49;-1.75;0.35;386.0;0.005177;-0.080816
0.95;4.0;3.75;4.75;4.25;1.5;1.5;0.0;0.5;0.5;2.0;3.25;3.0;2.0;3.0;1.25;1.5;-0.208984;0.029297;0.975098;-2.03;2.17;-0.35;373.0;-0.054867;-0.082217;4.0;3.25;4.0;3.25;2.0;1.75;0.0;1.25;0.25;2.0;3.5;3.25;2.25;6.25;0.5;2.0;-0.245605;0.024414;0.984375;-0.56;-1.68;0.35;396.0;-0.011555;-0.079248
0.96;4.0;3.75;4.5;4.25;1.25;1.5;0.0;0.5;0.5;1.75;3.25;3.0;2.0;3.0;1.25;1.75;-0.206055;0.031738;0.977539;-2.03;2.24;-0.28;366.0;-0.053292;-0.086493;3.5;3.25;4.25;3.25;2.0;1.75;0.0;1.25;0.25;2.25;3.25;3.5;1.75;6.5;0.75;2.25;-0.238281;0.024414;0.987305;-0.49;-1.89;0.28;398.0;-0.002357;-0.07605
0.97;4.25;3.75;4.5;4.5;1.25;1.5;0.0;0.75;0.5;2.0;3.25;3.25;2.0;2.75;1.25;1.5;-0.207031;0.029297;0.979004;-2.03;2.17;-0.28;377.0;-0.057247;-0.090334;3.5;3.25;4.25;3.0;2.5;1.75;0.0;1.25;0.5;2.25;3.25;3.5;1.75;6.5;0.75;2.0;-0.241211;0.019043;0.986816;-0.49;-1.82;0.21;402.0;-0.00121;-0.069508
0.98;3.75;3.75;5.0;4.0;1.25;1.5;0.0;1.0;0.5;1.75;3.25;3.25;2.0;2.75;1.25;1.5;-0.206055;0.03125;0.978027;-2.1;2.17;-0.28;373.0;-0.053799;-0.092579;3.5;3.25;4.0;3.0;2.5;1.5;0.0;1.25;0.5;2.0;3.75;3.5;1.75;7.0;0.75;2.25;-0.237305;0.023438;0.981445;-0.49;-1.75;0.21;405.0;0.008574;-0.068912
0.99;3.75;3.75;5.0;4.0;1.25;1.25;0.0;1.0;0.5;1.75;3.25;3.25;2.0;2.5;1.25;1.25;-0.20459;0.033203;0.973145;-2.24;2.17;-0.28;367.0;-0.057306;-0.091992;3.5;2.75;3.75;3.0;2.5;1.5;0.0;1.25;0.0;2.0;3.25;3.25;1.75;7.0;0.25;2.25;-0.243652;0.026367;0.98291;-0.42;-1.89;0.42;378.0;0.001534;-0.072421
1.0;4.0;3.75;4.75;4.0;1.25;1.25;0.0;0.75;0.5;1.75;3.5;3.25;2.0;2.75;1.25;1.5;-0.212402;0.029297;0.980469;-2.17;2.31;-0.28;369.0;-0.052368;-0.088297;3.5;3.0;4.0;3.25;2.5;1.75;0.0;1.25;0.0;1.75;3.75;3.5;2.0;6.25;0.25;2.25;-0.246582;0.018555;0.984863;-0.56;-1.82;0.35;390.0;-0.00895;-0.083559
1.01;4.0;3.75;4.75;4.0;1.25;1.25;0.0;0.5;0.5;1.75;3.5;3.25;2.0;3.0;0.5;1.5;-0.20166;0.03125;0.976074;-2.1;2.17;-0.28;360.0;-0.060127;-0.083648;3.5;3.0;4.25;3.25;2.5;1.75;0.0;1.25;0.25;2.0;3.75;3.5;1.75;7.0;0.5;2.25;-0.239258;0.026855;0.983887;-0.56;-1.82;0.28;405.0;0.001425;-0.072382
1.02;3.75;3.75;4.75;4.0;1.25;1.25;0.0;0.5;0.25;1.75;3.25;3.25;2.25;3.0;0.5;1.5;-0.20752;0.038574;0.975098;-2.1;2.1;-0.28;354.0;-0.061255;-0.090448;3.0;2.75;4.25;3.25;2.75;1.75;0.0;1.25;0.0;2.0;3.5;3.5;1.75;7.0;0.75;2.25;-0.243652;0.026855;0.988281;-0.42;-1.68;0.21;397.0;0.00736;-0.075911
1.03;3.75;3.75;5.0;4.25;1.25;1.5;0.0;0.75;0.75;1.75;3.25;3.25;2.0;2.5;0.75;1.5;-0.206055;0.029297;0.979492;-1.96;2.17;-0.21;368.0;-0.062499;-0.088924;4.0;3.0;4.25;4.0;2.5;1.75;0.0;1.0;0.0;2.0;3.5;3.75;1.75;6.5;0.5;2.25;-0.243164;0.025879;0.979492;-0.35;-1.68;0.35;407.0;-0.015883;-0.076741
1.04;4.0;3.75;4.75;4.25;1.25;1.5;0.0;0.5;0.75;1.75;3.25;3.25;2.0;2.0;1.0;1.5;-0.210938;0.030273;0.977539;-2.03;2.1;-0.35;363.0;-0.066064;-0.088787;3.5;3.5;4.25;3.5;2.25;1.75;0.0;1.0;0.25;2.0;3.75;3.5;2.0;7.0;0.5;2.5;-0.244629;0.018066;0.984863;-0.42;-1.75;0.35;409.0;-0.002157;-0.075247
1.05;4.0;3.75;4.5;4.25;1.5;1.25;0.0;0.75;0.75;1.75;3.5;3.25;2.0;2.5;1.0;1.5;-0.205566;0.030762;0.976074;-1.96;2.03;-0.28;371.0;-0.056253;-0.087906;3.0;3.25;4.25;3.25;2.75;2.0;0.0;1.25;0.0;2.0;3.75;3.5;2.25;7.0;0.75;2.5;-0.245605;0.024414;0.990234;-0.35;-1.61;0.21;413.0;0.005827;-0.083302
1.06;4.25;3.75;4.75;4.0;1.5;1.5;0.0;0.75;0.5;2.0;3.25;3.25;2.0;2.25;1.0;1.5;-0.203125;0.025879;0.97168;-2.1;2.03;-0.28;371.0;-0.06461;-0.089003;3.0;2.75;4.25;3.25;2.5;2.0;0.0;1.25;0.0;2.0;3.75;3.5;2.0;7.25;0.75;2.25;-0.242676;0.018555;0.990234;-0.28;-1.68;0.35;404.0;0.011608;-0.079162
1.07;4.5;3.75;5.0;4.0;1.5;1.25;0.0;0.75;0.5;1.75;3.25;3.0;2.0;2.5;0.5;1.5;-0.20752;0.031738;0.980469;-2.03;1.89;-0.14;365.0;-0.076067;-0.083004;3.5;3.0;4.0;3.25;2.25;1.75;0.0;1.25;0.0;1.75;3.75;3.5;1.75;7.25;0.75;2.25;-0.242676;0.024414;0.98291;-0.35;-1.68;0.35;398.0;0.005394;-0.076901
1.08;4.0;3.75;4.75;4.0;1.5;1.25;0.0;0.75;0.5;1.75;3.25;3.0;2.0;2.5;0.75;1.5;-0.208984;0.032227;0.978516;-1.96;1.89;-0.21;359.0;-0.066347;-0.087097;3.75;3.0;4.0;3.25;2.25;1.75;0.0;1.25;0.0;2.0;3.5;3.5;2.0;7.0;0.75;2.25;-0.248535;0.021973;0.982422;-0.42;-1.61;0.35;401.0;0.001568;-0.077964
1.09;3.75;3.75;4.75;4.25;1.25;1.25;0.0;0.75;0.5;2.0;3.25;3.0;2.0;2.5;1.0;1.5;-0.20459;0.027832;0.973145;-1.96;1.75;-0.21;362.0;-0.059523;-0.089547;3.5;3.25;4.0;3.25;2.25;1.75;0.0;1.25;0.0;1.75;3.5;3.5;2.25;7.25;0.75;2.25;-0.236328;0.020508;0.981934;-0.35;-1.75;0.35;402.0;0.003313;-0.0813
1.1;3.75;3.75;4.5;4.0;1.25;1.25;0.0;0.75;0.75;2.25;3.25;3.0;2.0;2.5;1.0;1.5;-0.205566;0.029297;0.976562;-2.1;1.68;-0.35;362.0;-0.051208;-0.085514;4.0;3.25;4.25;3.25;2.5;1.75;0.0;1.25;0.0;1.75;3.5;3.25;2.0;7.25;0.75;2.5;-0.241699;0.023926;0.98291;-0.49;-1.75;0.35;410.0;-0.005528;-0.074161
1.11;3.75;3.75;4.5;4.0;1.25;1.25;0.0;0.75;0.5;2.0;3.5;3.0;2.0;2.5;1.0;1.5;-0.201172;0.030762;0.975098;-2.03;1.75;-0.35;359.0;-0.054102;-0.090095;3.5;3.25;4.25;3.25;2.5;1.75;0.0;1.25;0.5;1.5;3.75;3.5;2.0;7.25;0.75;2.25;-0.238281;0.021973;0.984863;-0.42;-1.75;0.35;412.0;0.003696;-0.07269
1.12;4.0;3.75;4.5;4.0;1.5;1.25;0.0;0.75;0.5;1.75;3.5;3.0;2.0;2.25;1.25;1.5;-0.209961;0.030273;0.977539;-1.96;1.61;-0.35;362.0;-0.058637;-0.090147;3.0;3.25;4.0;3.25;2.25;1.75;0.0;1.25;0.0;2.0;3.5;3.5;1.75;7.0;0.75;2.5;-0.243652;0.020508;0.987305;-0.42;-1.82;0.28;395.0;0.007399;-0.080859
1.13;4.0;3.75;4.75;4.25;1.25;1.5;0.0;0.75;0.5;1.75;3.25;3.0;2.25;2.5;1.25;1.5;-0.203125;0.03125;0.976074;-1.89;1.61;-0.21;370.0;-0.060055;-0.092715;3.25;3.25;4.0;3.25;2.25;1.75;0.0;1.25;0.0;2.0;3.75;3.5;2.25;7.25;0.75;2.5;-0.244629;0.020996;0.983887;-0.56;-1.82;0.35;406.0;0.010045;-0.082582
1.14;4.0;3.75;4.5;4.25;1.5;1.5;0.0;0.75;0.5;1.75;3.5;3.25;2.25;2.5;1.0;1.5;-0.20752;0.029785;0.975098;-1.96;1.75;-0.28;372.0;-0.058388;-0.094617;3.25;3.25;4.0;3.25;2.5;1.75;0.0;1.25;0.0;2.25;3.75;3.5;2.25;6.5;0.75;2.0;-0.241211;0.016602;0.984375;-0.56;-1.82;0.28;403.0;0.001861;-0.083223
1.15;3.75;3.75;4.5;4.0;1.25;1.25;0.0;0.75;0.5;2.0;3.5;3.0;2.25;2.5;1.25;1.5;-0.206055;0.028809;0.978516;-1.82;1.82;-0.21;364.0;-0.049434;-0.092249;3.25;3.25;4.25;3.25;2.5;1.75;0.0;1.25;0.0;2.0;3.75;3.5;2.0;6.5;0.75;2.25;-0.237305;0.020996;0.987305;-0.63;-1.82;0.14;402.0;-0.001232;-0.081717
1.16;3.75;3.75;5.0;4.0;1.25;1.25;0.0;0.75;0.5;2.25;3.5;3.0;2.0;2.75;1.25;1.5;-0.207031;0.029297;0.974121;-1.96;1.82;-0.21;372.0;-0.049281;-0.084741;4.0;3.25;4.25;3.25;2.5;1.75;0.0;1.25;0.25;2.0;3.75;3.5;2.25;7.25;0.75;2.25;-0.241699;0.023926;0.988281;-0.42;-1.75;0.21;422.0;0.000515;-0.073468
1.17;4.25;3.75;4.75;4.25;1.25;1.25;0.0;0.75;0.5;1.75;3.25;3.0;2.0;2.5;1.25;1.25;-0.205078;0.033203;0.974609;-1.82;1.82;-0.21;366.0;-0.064716;-0.086946;3.75;3.25;4.25;3.25;2.5;2.0;0.0;1.25;0.25;2.0;3.75;3.5;2.0;7.25;0.75;2.25;-0.241699;0.024902;0.989258;-0.56;-1.68;0.21;420.0;0.001141;-0.073881
1.18;4.0;3.75;4.75;4.0;1.25;1.5;0.0;0.75;0.5;1.75;3.25;3.0;2.25;2.5;1.0;1.25;-0.208984;0.028809;0.973145;-1.96;1.82;-0.14;363.0;-0.0633;-0.090965;3.25;3.25;4.25;3.25;2.25;1.75;0.0;1.25;0.25;1.75;3.75;3.5;2.25;7.25;0.75;2.25;-0.243164;0.022949;0.98877;-0.49;-1.61;0.28;408.0;0.007504;-0.078713
1.19;3.75;3.75;4.75;4.25;1.25;1.25;0.0;0.75;0.5;1.75;3.25;3.25;2.0;2.5;1.0;1.5;-0.205566;0.029785;0.974609;-1.96;1.82;-0.28;362.0;-0.059727;-0.092148;3.25;3.0;4.25;3.25;2.25;1.75;0.0;1.25;0.25;2.0;3.75;3.5;2.25;7.0;0.75;2.5;-0.239746;0.027344;0.983398;-0.49;-1.54;0.21;408.0;0.010442;-0.07943
1.2;4.0;3.75;4.75;4.25;1.25;1.25;0.0;0.75;0.5;1.75;3.25;3.25;2.0;2.25;1.25;1.5;-0.208984;0.031738;0.974609;-1.89;2.03;-0.21;365.0;-0.061548;-0.092225;3.0;3.25;4.25;3.25;2.25;1.75;0.0;1.25;0.25;2.0;3.75;3.5;2.0;7.0;0.75;2.5;-0.241211;0.02002;0.986328;-0.49;-1.54;0.21;406.0;0.009806;-0.079083
1.21;4.25;3.75;4.5;4.25;1.5;1.5;0.0;0.75;0.5;1.75;3.25;3.0;2.0;2.5;0.75;1.5;-0.211426;0.025879;0.973633;-1.82;1.82;-0.21;365.0;-0.069516;-0.089479;3.0;3.25;4.25;3.25;2.25;1.5;0.0;1.25;0.25;2.0;3.75;3.25;2.25;7.0;0.5;2.25;-0.246582;0.024414;0.987793;-0.56;-1.54;0.21;398.0;0.006648;-0.077586
1.22;4.25;3.75;5.5;4.25;1.5;1.5;0.0;0.75;0.5;1.75;3.25;3.25;2.0;2.5;1.0;1.5;-0.206055;0.032715;0.975586;-1.96;1.82;-0.07;381.0;-0.070042;-0.085619;3.0;3.25;4.25;3.25;2.25;1.75;0.0;1.25;0.25;2.0;3.75;3.5;2.0;7.0;0.5;2.0;-0.239746;0.026855;0.983887;-0.49;-1.54;0.49;400.0;0.004813;-0.07747
1.23;4.25;3.75;5.0;4.25;1.5;1.25;0.0;0.75;0.5;2.0;3.5;3.25;2.0;2.25;0.75;1.5;-0.207031;0.027344;0.976074;-1.75;1.75;-0.21;373.0;-0.068401;-0.087565;3.25;2.75;4.25;3.0;2.0;1.75;0.0;1.0;0.25;2.0;3.75;3.5;1.75;7.0;0.5;1.75;-0.247559;0.024414;0.989746;-0.49;-1.61;0.35;385.0;0.008105;-0.069003
1.24;4.25;3.75;5.0;4.25;1.25;1.25;0.0;0.75;0.5;2.25;3.25;3.0;2.0;2.5;0.75;1.5;-0.207031;0.031738;0.979004;-1.82;1.75;-0.14;370.0;-0.067095;-0.084398;3.25;3.25;4.0;3.25;2.25;1.75;0.0;1.0;0.25;2.0;3.5;3.5;2.0;7.0;0.5;2.25;-0.248535;0.03125;0.979004;-0.56;-1.61;0.42;395.0;0.003972;-0.074957
1.25;4.25;3.75;5.0;4.0;1.25;1.5;0.0;0.75;0.5;1.75;3.25;3.0;2.0;2.75;0.5;1.5;-0.208496;0.035156;0.974121;-2.03;1.75;-0.21;364.0;-0.071086;-0.085349;3.25;3.0;4.0;3.25;2.25;1.75;0.0;1.25;0.5;2.0;3.25;3.25;2.0;6.5;0.5;2.25;-0.245117;0.021973;0.984375;-0.49;-1.68;0.35;390.0;0.001084;-0.07557
1.26;4.25;3.75;5.0;4.5;1.5;1.5;0.0;0.75;0.75;1.75;3.25;3.25;2.0;2.5;0.75;1.5;-0.212891;0.032715;0.974609;-2.1;1.54;-0.21;379.0;-0.069235;-0.086119;3.5;3.0;4.0;3.25;2.5;1.75;0.0;1.25;0.25;2.25;3.5;3.5;2.0;6.25;0.25;2.25;-0.244141;0.024414;0.984863;-0.56;-1.82;0.28;395.0;-0.005029;-0.078444
1.27;4.25;3.75;4.75;4.5;1.5;1.25;0.0;0.75;0.5;1.75;3.5;3.25;2.0;2.5;1.0;1.5;-0.203125;0.028809;0.975586;-2.03;1.75;-0.14;375.0;-0.064613;-0.08939;3.25;3.25;4.25;3.5;2.5;1.75;0.0;1.25;0.25;2.0;3.5;3.5;2.0;6.5;0.5;2.25;-0.242676;0.023438;0.98584;-0.56;-1.82;0.35;403.0;-0.005235;-0.079574
1.28;4.25;3.75;5.0;4.5;1.25;1.75;0.0;0.75;0.5;1.75;3.5;3.5;2.0;2.5;1.0;1.5;-0.205566;0.032227;0.973145;-2.03;1.75;-0.21;384.0;-0.065008;-0.093189;3.25;3.5;4.0;3.5;2.25;1.75;0.0;1.25;0.25;2.0;3.5;3.5;1.75;6.25;0.5;2.25;-0.241699;0.026367;0.987305;-0.49;-1.61;0.28;395.0;-0.00817;-0.08154
1.29;4.25;3.75;5.0;4.75;1.25;1.5;0.0;0.75;0.5;1.75;3.0;3.5;2.0;2.5;1.0;1.5;-0.208008;0.028809;0.977051;-2.1;1.75;-0.14;378.0;-0.070018;-0.092537;3.5;3.5;4.25;3.5;2.5;1.75;0.0;1.25;0.5;1.75;3.5;3.5;1.75;6.0;0.5;2.25;-0.243652;0.026367;0.984863;-0.49;-1.54;0.28;402.0;-0.014984;-0.07757
1.3;4.25;3.75;5.0;4.5;1.25;1.25;0.0;0.75;0.5;1.75;3.0;3.5;2.25;2.5;1.0;1.5;-0.207031;0.029297;0.974609;-2.03;1.89;-0.14;375.0;-0.066448;-0.092393;3.75;3.5;4.25;3.5;2.5;1.75;0.0;1.0;0.5;1.75;3.5;3.25;1.75;6.0;0.25;2.25;-0.242188;0.020996;0.983887;-0.63;-1.68;0.35;395.0;-0.021849;-0.071842
1.31;4.75;3.75;5.0;4.5;1.25;1.25;0.0;0.75;0.75;1.75;3.5;3.5;2.0;2.5;1.25;1.5;-0.209961;0.031738;0.976074;-1.96;1.82;-0.14;389.0;-0.062391;-0.084827;4.0;3.5;4.25;3.5;2.25;1.5;0.0;1.0;0.25;1.75;3.5;3.5;1.75;6.25;0.25;2.25;-0.248047;0.019043;0.987793;-0.49;-1.61;0.28;394.0;-0.021156;-0.073219
1.32;4.5;3.75;5.0;4.5;1.5;1.5;0.0;0.75;0.5;1.75;3.25;3.0;2.0;2.25;1.25;1.5;-0.208496;0.029297;0.974121;-2.1;1.89;-0.28;379.0;-0.072347;-0.08787;3.25;3.5;4.25;3.5;2.25;1.75;0.0;1.0;0.25;1.5;3.5;3.5;1.75;6.25;0.5;2.25;-0.246094;0.021973;0.987305;-0.56;-1.68;0.28;389.0;-0.0133;-0.079225
1.33;4.75;3.75;5.0;4.75;1.25;1.75;0.0;0.75;0.5;1.75;3.25;3.25;2.0;2.25;0.75;1.5;-0.209473;0.034668;0.976074;-2.03;1.89;-0.21;381.0;-0.081006;-0.091427;4.0;3.5;4.25;3.75;2.25;1.75;0.0;1.0;0.25;2.0;3.0;3.25;1.75;6.25;0.5;2.0;-0.243652;0.021484;0.98291;-0.49;-1.68;0.28;396.0;-0.025441;-0.071929
1.34;4.25;4.0;5.0;4.75;1.5;1.75;0.0;0.5;0.5;2.25;3.25;3.25;2.0;2.75;0.75;1.5;-0.203613;0.030762;0.975098;-2.03;1.82;-0.28;387.0;-0.069932;-0.085467;4.0;3.75;4.25;3.5;2.25;1.75;0.0;1.0;0.0;2.0;3.25;3.25;2.0;6.0;0.5;2.25;-0.242676;0.018066;0.98877;-0.56;-1.61;0.35;396.0;-0.026534;-0.078875
1.35;4.25;4.0;5.5;4.5;1.5;1.75;0.0;0.75;0.5;2.25;3.25;3.25;2.0;2.5;0.75;1.25;-0.209961;0.028809;0.970703;-2.1;1.75;-0.28;390.0;-0.07477;-0.085616;4.0;3.75;4.25;3.25;2.25;1.75;0.0;1.0;0.0;2.0;3.25;3.25;1.75;6.0;0.75;2.0;-0.239258;0.023926;0.990234;-0.56;-1.75;0.21;392.0;-0.024221;-0.074948
1.36;4.25;3.75;5.5;4.5;1.5;1.5;0.0;0.75;0.5;2.0;3.25;3.0;2.0;2.5;0.75;1.25;-0.20459;0.029297;0.972168;-2.17;1.75;-0.21;380.0;-0.076266;-0.083352;3.25;3.75;4.25;3.75;2.25;1.75;0.0;1.25;0.25;1.75;3.25;3.25;2.0;6.0;0.5;2.25;-0.243164;0.021484;0.980469;-0.77;-1.82;0.35;395.0;-0.020226;-0.084602
1.37;4.25;4.0;5.5;4.5;1.5;1.5;0.0;0.5;0.5;1.75;3.25;3.25;2.0;2.5;0.5;1.5;-0.207031;0.030762;0.976562;-2.17;1.82;-0.14;377.0;-0.080985;-0.084082;4.0;4.0;4.0;3.75;2.5;1.75;0.0;1.0;0.25;1.75;3.25;3.25;1.75;6.0;0.75;2.0;-0.243652;0.023926;0.98584;-0.56;-1.82;0.35;401.0;-0.028519;-0.075784
1.38;4.0;4.25;5.5;4.75;1.5;1.5;0.0;0.75;0.5;1.75;3.25;3.25;2.0;2.5;1.25;1.5;-0.210449;0.032715;0.976074;-2.17;1.68;-0.21;391.0;-0.071757;-0.089782;4.0;3.75;4.25;3.75;2.5;1.75;0.0;1.0;0.25;1.5;3.0;3.25;1.75;5.75;0.25;2.0;-0.23877;0.020508;0.984863;-0.77;-1.96;0.35;388.0;-0.03976;-0.076029
1.39;4.25;4.0;5.5;4.75;1.5;1.5;0.0;0.75;0.5;1.75;3.25;3.0;2.0;2.5;1.0;1.5;-0.208496;0.028809;0.970215;-2.45;1.68;-0.21;386.0;-0.077096;-0.086644;4.0;3.5;4.75;3.75;2.5;1.75;0.0;1.25;0.25;1.75;3.25;3.25;1.75;5.75;0.25;1.75;-0.243164;0.024902;0.986816;-0.77;-1.89;0.28;399.0;-0.038275;-0.07475
1.4;4.5;4.0;5.0;4.75;1.5;1.5;0.0;0.75;0.5;2.0;3.25;3.0;2.0;2.5;0.75;1.5;-0.208008;0.028809;0.981445;-2.45;1.61;-0.21;383.0;-0.077726;-0.086895;4.0;3.5;4.75;4.0;2.5;1.75;0.0;1.25;0.0;1.5;3.25;3.25;1.75;6.0;0.5;1.75;-0.248047;0.019043;0.983398;-0.7;-1.89;0.35;401.0;-0.038872;-0.078232
1.41;4.5;3.75;5.5;4.75;1.25;1.25;0.0;0.75;0.5;1.75;3.0;3.0;2.0;2.5;1.0;1.5;-0.205078;0.029297;0.978516;-2.52;1.68;-0.21;379.0;-0.078466;-0.084356;4.0;3.5;4.5;4.0;2.25;1.75;0.0;0.75;0.0;1.5;3.25;3.25;1.75;6.0;0.5;2.0;-0.242188;0.023926;0.981445;-0.63;-1.82;0.21;389.0;-0.035765;-0.075109
1.42;4.5;4.0;5.75;4.75;1.5;1.5;0.0;0.75;0.5;1.75;3.0;3.0;2.0;2.5;1.0;1.0;-0.210449;0.03418;0.979004;-2.59;1.68;-0.21;386.0;-0.085772;-0.082269;3.75;4.0;4.75;3.75;2.5;1.75;0.0;0.75;0.0;1.75;3.25;3.25;1.75;5.75;0.5;2.0;-0.239258;0.019531;0.983887;-0.84;-1.75;0.28;395.0;-0.038898;-0.074673
1.43;4.5;4.25;5.5;4.75;1.5;1.75;0.0;0.75;0.5;1.75;3.0;3.0;2.0;2.25;1.0;1.25;-0.206543;0.028809;0.977051;-2.73;1.82;-0.28;388.0;-0.088082;-0.087576;4.0;3.75;4.75;3.75;2.5;1.75;0.0;0.75;0.25;1.5;3.0;3.0;1.75;5.75;0.5;2.0;-0.241211;0.018555;0.982422;-0.84;-1.75;0.35;390.0;-0.041916;-0.069144
1.44;4.5;4.0;5.5;4.75;1.5;1.5;0.0;0.75;0.5;2.0;3.25;3.0;2.0;2.5;0.5;1.25;-0.203125;0.025879;0.977539;-3.01;1.96;-0.28;385.0;-0.085313;-0.083572;4.0;4.0;4.75;4.0;2.5;1.75;0.0;1.0;0.25;1.5;3.0;3.25;1.75;5.5;0.5;2.0;-0.244141;0.023438;0.989746;-0.77;-1.89;0.35;400.0;-0.046251;-0.076653
1.45;4.75;4.0;5.5;4.75;1.5;1.5;0.0;0.75;0.5;2.0;3.0;3.0;1.75;1.75;0.5;1.25;-0.209473;0.033691;0.979004;-3.29;2.03;-0.35;376.0;-0.099582;-0.08428;4.0;4.25;4.75;4.25;2.5;1.75;0.0;0.75;0.25;1.5;3.0;3.25;1.75;5.5;0.5;2.0;-0.244141;0.026855;0.980957;-0.84;-1.82;0.35;401.0;-0.050352;-0.07519
1.46;4.75;4.25;5.75;4.75;1.5;1.75;0.0;0.5;0.5;2.25;3.0;3.0;2.0;1.75;0.5;1.25;-0.205566;0.026855;0.970703;-3.36;1.96;-0.28;385.0;-0.100105;-0.082929;4.0;4.0;4.75;4.25;2.25;1.75;0.0;0.75;0.0;1.5;3.0;3.25;1.75;5.25;0.5;1.75;-0.243652;0.024414;0.986328;-0.98;-1.75;0.42;389.0;-0.054203;-0.079105
1.47;4.75;4.25;5.75;5.0;1.75;1.25;0.0;0.5;0.5;2.25;3.25;3.0;2.0;1.75;0.5;1.25;-0.205566;0.029785;0.96875;-3.5;2.31;-0.35;388.0;-0.098677;-0.080469;4.5;4.0;4.5;4.25;2.5;1.75;0.0;0.75;0.0;1.5;3.0;3.25;1.75;5.0;0.5;1.75;-0.242676;0.021973;0.983887;-0.91;-1.89;0.42;392.0;-0.060338;-0.078233
1.48;4.5;4.25;5.75;5.0;1.5;1.5;0.0;0.75;0.5;2.25;3.25;3.0;1.75;1.5;0.25;1.0;-0.205078;0.031738;0.96875;-3.29;2.24;-0.35;381.0;-0.105458;-0.085695;4.0;4.25;4.75;4.25;2.5;1.75;0.0;0.75;0.0;1.5;2.75;3.25;1.75;5.0;0.5;1.75;-0.246094;0.020996;0.983398;-0.91;-1.96;0.35;389.0;-0.061283;-0.079786
1.49;4.75;4.5;5.75;5.25;2.0;1.5;0.0;0.75;0.75;2.25;3.25;2.5;1.75;1.5;0.25;1.25;-0.203613;0.030273;0.975098;-3.15;2.31;-0.21;393.0;-0.110377;-0.07878;4.0;4.25;4.75;4.0;2.5;1.25;0.0;1.0;0.5;1.5;2.75;2.75;1.75;4.75;0.5;1.75;-0.244141;0.021484;0.983887;-0.77;-2.03;0.35;384.0;-0.058811;-0.071537
1.5;4.75;4.25;6.0;4.75;1.75;1.25;0.0;0.5;0.5;2.25;3.5;2.75;1.5;0.75;0.25;1.25;-0.208984;0.027344;0.974609;-3.15;2.45;-0.28;372.0;-0.116824;-0.078313;4.25;4.25;5.25;4.0;2.5;1.75;0.0;0.5;0.25;1.5;3.0;2.75;1.75;5.0;0.75;2.0;-0.246582;0.020996;0.982422;-0.7;-1.82;0.21;396.0;-0.059805;-0.067412
1.51;4.75;4.25;5.75;4.75;1.75;1.5;0.0;0.5;0.75;2.75;3.25;2.75;1.75;0.75;0.5;1.0;-0.208008;0.029785;0.972168;-3.01;2.45;-0.28;382.0;-0.106728;-0.077072;4.5;4.25;5.25;4.25;2.75;2.0;0.0;0.75;0.0;1.5;2.75;3.25;1.75;5.0;0.25;1.75;-0.242676;0.02002;0.984863;-0.84;-1.96;0.28;403.0;-0.072614;-0.075349
1.52;4.75;4.0;5.75;4.75;1.75;1.75;0.0;0.5;0.75;2.75;3.5;3.0;1.5;1.25;0.5;1.0;-0.209473;0.027832;0.979004;-2.87;2.45;-0.21;389.0;-0.096698;-0.074728;4.5;4.25;5.25;4.25;2.5;2.0;0.0;1.0;0.0;1.5;2.75;3.25;1.75;5.0;0.25;1.75;-0.242676;0.023438;0.98584;-0.84;-1.75;0.28;404.0;-0.071688;-0.079258
1.53;4.75;4.5;5.75;4.75;1.75;1.25;0.0;0.5;0.75;2.75;3.0;2.5;1.5;0.75;0.25;0.75;-0.206055;0.027344;0.977539;-2.87;2.52;-0.28;370.0;-0.119923;-0.071193;4.25;4.25;5.25;4.0;2.75;2.0;0.0;1.0;0.25;1.5;3.0;3.0;1.75;5.0;0.25;1.75;-0.239746;0.02002;0.987793;-0.77;-1.82;0.21;405.0;-0.065716;-0.074489
1.54;4.75;4.25;5.75;4.75;1.75;1.25;0.0;0.5;0.75;3.0;3.5;2.5;1.5;1.0;0.25;1.0;-0.211426;0.027344;0.980957;-2.8;2.38;-0.21;379.0;-0.106146;-0.069777;4.0;4.25;4.75;4.0;2.5;2.0;0.0;1.0;0.0;1.5;2.75;3.0;1.75;5.0;0.25;1.75;-0.239746;0.01709;0.987305;-0.84;-1.68;0.28;388.0;-0.064853;-0.081693
1.55;4.75;4.25;5.75;4.75;1.5;1.5;0.0;0.5;1.0;3.0;3.5;2.75;1.5;1.0;0.5;1.25;-0.208984;0.025879;0.975586;-2.8;2.45;-0.21;389.0;-0.096038;-0.071697;4.25;4.25;4.5;4.0;2.5;1.75;0.0;1.0;0.0;1.5;2.75;2.75;1.5;5.0;0.25;1.75;-0.246582;0.021973;0.989258;-0.7;-1.68;0.21;380.0;-0.068288;-0.076633
1.56;4.75;4.25;5.75;4.75;1.5;1.25;0.0;0.5;1.0;3.0;3.5;2.5;1.0;1.5;0.5;1.25;-0.202148;0.028809;0.977051;-2.73;2.31;-0.21;383.0;-0.095084;-0.061547;4.25;4.25;4.75;4.25;2.5;1.75;0.0;1.0;0.25;1.5;2.75;2.75;1.75;5.0;0.25;1.75;-0.242676;0.022461;0.987305;-0.91;-1.68;0.35;391.0;-0.0672;-0.075685
1.57;4.75;4.5;6.0;4.75;1.75;1.25;0.0;0.5;1.25;3.0;3.5;3.0;1.0;1.0;0.5;1.25;-0.211426;0.025879;0.97998;-2.45;2.24;-0.14;395.0;-0.096881;-0.063158;4.25;4.25;5.25;4.0;2.5;1.75;0.0;1.0;0.25;1.5;2.75;2.75;1.75;4.75;0.5;1.75;-0.241699;0.02002;0.981934;-0.98;-1.68;0.35;394.0;-0.067898;-0.073725
1.58;5.0;4.75;6.25;4.75;1.5;1.25;0.0;0.5;1.25;3.0;3.5;3.0;1.5;1.0;0.25;1.25;-0.206055;0.025879;0.975098;-2.24;2.24;-0.28;402.0;-0.102093;-0.066603;4.25;4.5;4.75;4.25;2.5;1.75;0.0;1.0;0.25;1.5;2.75;2.75;1.5;4.75;0.5;1.75;-0.242188;0.02002;0.98584;-0.84;-1.68;0.28;392.0;-0.069983;-0.075503
1.59;5.0;4.5;6.25;4.75;1.5;1.25;0.0;0.5;1.0;3.0;3.5;3.0;1.5;1.0;0.25;1.25;-0.211426;0.029785;0.97998;-2.31;2.1;-0.14;396.0;-0.103224;-0.068839;4.5;4.0;5.25;4.0;2.5;1.75;0.0;1.0;0.0;1.25;2.75;2.75;1.5;4.75;0.25;1.75;-0.245117;0.017578;0.990234;-0.77;-1.75;0.35;384.0;-0.077512;-0.073591
1.6;5.25;4.75;6.25;4.75;1.75;1.5;0.0;0.5;1.25;3.0;3.25;3.0;1.5;1.25;0.25;1.25;-0.209961;0.026367;0.978516;-2.17;1.89;-0.14;409.0;-0.103904;-0.064423;4.5;4.25;4.75;4.0;2.5;1.75;0.0;0.75;0.25;1.5;2.75;2.75;1.5;5.0;0.25;1.75;-0.246094;0.020508;0.984863;-0.7;-1.82;0.28;385.0;-0.069764;-0.068086
1.61;5.25;4.25;6.0;4.75;1.5;1.5;0.0;0.5;1.25;3.0;3.25;2.75;1.25;1.75;0.25;1.0;-0.208496;0.026367;0.974609;-1.96;1.82;-0.14;397.0;-0.098614;-0.058047;4.25;4.5;4.75;4.25;2.25;1.75;0.0;0.75;0.0;1.5;2.75;3.0;1.5;5.0;0.25;1.75;-0.243164;0.021973;0.984863;-0.7;-1.89;0.35;384.0;-0.071625;-0.07639
1.62;5.0;4.25;6.0;5.0;1.5;1.75;0.0;0.5;1.25;3.0;3.25;3.0;1.5;1.5;0.25;1.0;-0.211914;0.027832;0.976562;-1.89;1.82;-0.14;403.0;-0.097556;-0.066673;4.25;4.25;5.25;4.75;2.5;1.5;0.0;0.5;0.0;1.5;2.75;3.0;1.25;4.75;0.25;1.75;-0.243164;0.016113;0.982422;-0.56;-1.75;0.42;385.0;-0.079887;-0.069312
1.63;5.0;4.75;6.0;5.0;1.5;1.5;0.0;0.5;1.25;3.0;3.25;3.0;1.5;1.5;0.5;1.25;-0.208984;0.026367;0.979004;-1.75;1.89;-0.21;409.0;-0.096015;-0.067343;4.5;4.25;5.25;4.75;2.5;1.75;0.0;0.75;0.0;1.5;2.75;2.75;1.5;4.5;0.25;1.75;-0.239746;0.019043;0.984863;-0.56;-1.68;0.28;391.0;-0.085113;-0.074676
1.64;5.0;4.5;6.25;5.0;1.75;1.5;0.0;0.5;1.0;2.75;3.25;2.75;1.25;1.0;0.25;1.25;-0.209961;0.023926;0.974121;-1.68;1.82;-0.14;395.0;-0.113025;-0.067315;4.75;4.5;5.5;4.75;2.5;1.75;0.0;0.75;0.0;1.5;2.75;3.0;1.5;4.5;0.0;1.75;-0.241211;0.018066;0.983398;-0.63;-1.61;0.28;399.0;-0.091661;-0.074277
1.65;5.0;4.5;6.25;5.75;1.5;1.5;0.0;0.5;1.0;2.75;3.25;2.75;1.5;1.0;0.5;1.5;-0.204102;0.024902;0.976074;-1.61;1.68;-0.14;406.0;-0.110015;-0.0744;4.25;4.5;5.25;4.75;2.5;2.0;0.0;0.75;0.0;1.5;2.75;3.0;1.5;4.5;0.25;1.75;-0.246582;0.018555;0.984863;-0.42;-1.61;0.35;396.0;-0.08347;-0.079236
1.66;5.25;4.75;6.25;5.75;1.75;1.5;0.0;0.5;1.25;2.75;3.0;2.75;1.5;1.0;0.5;1.5;-0.208984;0.028809;0.973145;-1.47;1.68;-0.14;414.0;-0.112879;-0.069852;4.25;4.5;5.5;4.25;2.5;1.75;0.0;0.75;0.25;1.5;2.75;2.75;1.5;4.75;0.75;1.5;-0.241211;0.019043;0.983887;-0.49;-1.75;0.35;398.0;-0.072965;-0.068237
1.67;5.0;4.75;6.25;5.75;1.75;1.5;0.0;0.5;1.0;2.5;3.0;2.75;1.5;1.0;0.5;1.25;-0.203613;0.03125;0.978516;-1.26;1.4;-0.14;405.0;-0.117868;-0.073818;4.75;4.75;6.0;4.25;2.5;1.75;0.0;0.75;0.25;1.5;2.75;2.75;1.75;4.5;0.5;1.75;-0.240723;0.019531;0.98877;-0.56;-1.61;0.35;409.0;-0.08459;-0.068487
1.68;5.25;4.75;6.25;5.75;1.75;1.5;0.0;0.5;1.0;2.25;3.0;3.0;1.75;1.25;0.5;1.5;-0.207031;0.032227;0.973633;-1.19;1.19;-0.14;413.0;-0.114012;-0.076484;4.75;4.75;6.0;4.75;2.5;1.75;0.0;1.0;0.25;1.5;2.5;2.75;1.75;4.5;0.5;1.5;-0.240723;0.023438;0.98584;-0.56;-1.68;0.35;415.0;-0.090028;-0.072419
1.69;5.25;4.5;6.0;5.25;1.75;1.5;0.0;0.5;0.75;2.0;3.0;3.0;1.75;1.0;0.5;1.5;-0.204102;0.029297;0.973633;-0.91;0.91;-0.07;394.0;-0.117012;-0.080277;4.5;4.5;5.5;4.75;2.5;1.75;0.0;1.0;0.25;1.5;2.75;2.75;1.75;4.0;0.5;1.5;-0.244629;0.023926;0.986816;-0.56;-1.61;0.35;403.0;-0.086976;-0.078217
1.7;5.25;4.75;6.25;5.25;1.75;1.5;0.0;0.5;0.5;1.75;3.0;3.0;1.75;1.0;0.5;1.25;-0.210449;0.026367;0.974121;-0.91;0.91;-0.07;392.0;-0.126967;-0.082681;4.5;4.75;6.0;5.0;2.5;2.0;0.0;1.0;0.25;1.5;2.75;2.25;1.5;4.0;0.75;1.5;-0.236328;0.023926;0.985352;-0.56;-1.68;0.21;411.0;-0.094993;-0.073919
1.71;5.0;4.75;6.25;5.25;1.75;1.75;0.0;0.5;0.5;2.0;2.5;2.5;1.75;1.75;0.5;1.25;-0.212891;0.029297;0.973145;-0.77;0.98;-0.14;391.0;-0.123304;-0.076726;5.0;4.75;6.0;4.75;2.5;1.75;0.0;1.0;0.25;1.5;2.75;2.75;1.5;4.25;0.75;1.5;-0.241211;0.01709;0.986328;-0.56;-1.68;0.42;418.0;-0.090762;-0.070888
1.72;5.0;4.5;6.0;5.75;1.75;1.75;0.0;0.5;0.5;2.0;2.75;2.5;2.0;1.75;0.5;1.25;-0.210938;0.028809;0.976562;-0.84;1.19;-0.14;396.0;-0.118961;-0.081793;4.5;4.5;5.5;4.75;2.75;1.75;0.0;0.75;0.25;1.5;2.25;2.75;1.5;4.25;0.5;1.25;-0.245117;0.018555;0.982422;-0.56;-1.82;0.21;395.0;-0.092362;-0.069433
1.73;5.0;4.75;6.0;5.75;1.5;1.75;0.0;0.5;0.75;2.0;2.75;2.5;1.5;2.0;0.5;1.25;-0.209473;0.030273;0.975586;-0.84;1.26;-0.14;397.0;-0.117848;-0.074793;4.75;4.75;5.5;4.75;2.5;1.75;0.0;0.75;0.5;1.5;2.5;2.75;1.5;4.0;0.5;1.5;-0.241699;0.023926;0.992188;-0.63;-1.75;0.35;402.0;-0.09223;-0.069371
1.74;5.0;4.75;6.0;5.75;1.25;1.5;0.0;0.5;0.75;1.75;2.75;2.5;1.5;2.25;0.5;1.5;-0.209961;0.031738;0.976074;-1.12;1.26;-0.07;392.0;-0.115395;-0.074748;4.75;4.75;5.5;4.75;2.5;1.75;0.0;0.75;0.25;1.5;2.25;2.75;1.5;4.25;0.5;1.5;-0.244629;0.02002;0.986816;-0.63;-1.82;0.35;398.0;-0.094484;-0.070568
1.75;5.0;4.75;6.0;5.25;1.25;1.75;0.0;0.5;0.75;1.75;2.5;2.75;1.5;1.75;0.75;1.25;-0.208496;0.029297;0.976074;-1.26;1.4;-0.07;386.0;-0.117244;-0.077233;4.75;4.75;5.5;4.75;2.5;1.75;0.0;0.75;0.0;1.5;2.25;2.25;1.5;4.5;0.5;1.75;-0.244141;0.021484;0.983398;-0.49;-1.75;0.21;393.0;-0.097148;-0.069916
1.76;5.0;4.75;6.25;5.75;1.5;1.75;0.0;0.5;0.5;1.75;2.5;2.5;1.5;1.75;0.75;1.0;-0.210938;0.03125;0.972656;-1.26;1.54;-0.14;390.0;-0.127757;-0.077792;4.75;4.75;5.5;4.75;2.5;1.75;0.0;0.75;0.0;1.5;2.25;2.75;1.75;4.25;0.75;1.75;-0.242188;0.020508;0.986816;-0.63;-1.75;0.28;401.0;-0.091088;-0.076391
1.77;5.0;4.5;6.25;6.0;1.5;1.75;0.0;0.5;0.5;1.75;2.75;2.5;1.75;2.0;0.75;1.25;-0.209473;0.030762;0.976562;-1.33;1.54;-0.21;399.0;-0.118702;-0.080069;4.75;4.75;6.0;4.75;2.5;1.5;0.0;0.5;0.0;1.5;2.25;2.25;1.75;4.25;0.25;1.75;-0.241699;0.016602;0.98291;-0.49;-1.75;0.21;390.0;-0.10471;-0.066524
1.78;5.25;4.5;6.25;5.75;1.5;1.75;0.0;0.5;0.5;1.75;2.5;2.75;1.75;1.75;0.75;1.0;-0.208984;0.031738;0.972656;-1.4;1.68;-0.14;395.0;-0.124003;-0.079612;4.5;4.75;5.5;4.75;2.25;1.75;0.0;1.0;0.0;1.5;2.25;2.25;1.5;4.0;0.0;1.5;-0.242188;0.022949;0.974609;-0.42;-1.75;0.28;381.0;-0.108319;-0.07702
1.79;5.25;4.75;6.25;5.0;1.5;0.75;0.0;0.75;0.5;1.75;2.5;2.75;1.75;1.75;1.0;1.0;-0.206055;0.028809;0.975098;-1.54;1.75;-0.21;385.0;-0.116722;-0.074663;4.75;4.75;6.0;4.75;2.25;1.75;0.0;0.75;0.0;1.5;2.25;2.75;1.5;4.5;0.25;1.5;-0.245605;0.021484;0.986328;-0.56;-1.68;0.21;397.0;-0.100168;-0.070668
1.8;5.25;4.75;6.0;5.25;1.5;1.25;0.0;0.5;0.5;1.5;2.5;2.5;1.75;2.25;0.75;1.25;-0.20166;0.030762;0.973145;-1.68;1.75;-0.28;384.0;-0.119082;-0.074011;4.75;4.75;6.0;4.75;2.5;1.75;0.0;0.75;0.0;1.5;2.5;2.25;1.25;4.25;0.25;1.5;-0.24707;0.017578;0.98584;-0.7;-1.75;0.42;393.0;-0.106573;-0.066221
1.81;5.25;4.5;6.25;5.75;1.25;1.5;0.0;0.5;0.75;1.5;2.5;2.5;1.75;2.0;0.75;1.25;-0.210938;0.026855;0.977051;-1.68;1.75;-0.21;391.0;-0.120678;-0.075208;4.75;4.75;5.5;5.0;2.5;1.75;0.0;0.75;0.0;1.5;2.75;2.25;1.5;4.5;0.25;1.5;-0.246094;0.024902;0.986816;-0.49;-1.75;0.35;397.0;-0.099112;-0.070677
1.82;5.0;4.5;6.0;5.75;1.75;1.75;0.0;0.5;0.5;1.5;2.5;2.5;1.75;1.75;1.0;1.25;-0.209961;0.030762;0.969238;-1.75;1.82;-0.28;391.0;-0.120563;-0.081403;4.75;4.5;5.5;4.75;2.5;1.75;0.0;0.75;0.0;1.5;2.75;2.25;1.5;4.25;0.25;1.5;-0.240723;0.019531;0.983398;-0.56;-1.68;0.21;390.0;-0.098706;-0.070384
1.83;5.0;4.75;6.0;5.75;1.5;1.75;0.0;0.5;0.5;1.75;2.5;2.5;1.5;1.75;1.0;1.25;-0.205078;0.029785;0.974609;-1.68;1.68;-0.28;391.0;-0.12148;-0.079832;5.0;4.75;6.0;5.0;2.5;1.5;0.0;1.0;0.25;1.5;2.75;3.0;1.5;4.25;0.0;1.5;-0.246094;0.021484;0.987793;-0.56;-1.75;0.28;413.0;-0.099275;-0.071799
1.84;5.25;4.75;6.25;5.75;1.25;1.75;0.0;0.5;0.5;1.75;2.5;2.5;1.75;1.75;1.0;1.25;-0.208984;0.027344;0.973145;-1.75;1.75;-0.14;396.0;-0.122718;-0.080475;4.75;4.75;5.5;5.0;2.25;1.5;0.0;1.0;0.0;1.5;2.75;2.25;1.5;4.25;0.0;1.5;-0.242676;0.020508;0.97998;-0.7;-1.75;0.35;391.0;-0.103911;-0.074597
1.85;5.25;5.25;6.25;5.75;1.25;1.5;0.0;0.5;0.75;1.75;2.5;2.5;1.75;2.0;1.0;1.5;-0.205566;0.029297;0.970703;-1.82;1.75;-0.21;405.0;-0.118361;-0.076713;4.75;4.5;5.5;5.0;2.25;1.75;0.0;1.0;0.25;1.5;2.75;2.25;1.5;4.0;0.5;1.25;-0.241699;0.022461;0.984863;-0.42;-1.75;0.35;396.0;-0.097029;-0.073182
1.86;5.25;4.75;6.25;5.25;1.25;1.5;0.0;0.5;0.75;1.5;2.5;2.5;1.75;1.75;0.75;1.5;-0.20459;0.027344;0.975586;-1.89;1.68;-0.14;387.0;-0.121318;-0.075855;4.75;4.75;5.5;5.0;2.5;1.75;0.0;1.0;0.0;1.25;2.5;2.25;1.5;4.25;0.25;1.5;-0.240234;0.020508;0.98291;-0.49;-1.89;0.35;394.0;-0.105443;-0.07571
1.87;5.0;4.5;6.0;5.25;1.25;1.5;0.0;0.5;0.5;1.5;2.75;2.5;1.5;1.75;0.75;1.5;-0.206055;0.031738;0.974609;-1.68;1.61;-0.28;377.0;-0.119048;-0.078896;5.0;4.75;5.5;5.0;2.5;1.75;0.0;1.0;0.0;1.25;2.5;2.25;1.5;4.25;0.25;1.5;-0.241699;0.019531;0.978516;-0.42;-1.89;0.28;396.0;-0.107387;-0.074505
1.88;5.0;4.75;6.25;5.75;1.5;1.75;0.0;0.75;0.25;1.75;2.5;2.5;1.75;2.0;0.75;1.25;-0.208008;0.027344;0.979004;-1.82;1.82;-0.28;396.0;-0.123617;-0.08525;4.75;4.75;5.5;4.75;2.5;1.75;0.0;1.0;0.25;1.5;2.5;2.75;1.5;4.25;0.0;1.75;-0.241211;0.025391;0.985352;-0.35;-1.96;0.21;401.0;-0.096659;-0.074584
1.89;5.25;4.75;6.25;5.75;1.5;1.75;0.0;0.75;0.25;1.5;2.5;2.5;1.75;2.25;0.75;1.25;-0.207031;0.026367;0.974609;-1.82;1.68;-0.35;398.0;-0.124944;-0.083558;4.5;4.75;6.0;4.75;2.5;1.75;0.0;1.0;0.0;1.5;2.75;2.75;1.0;4.25;0.0;1.5;-0.240723;0.020508;0.987305;-0.49;-1.82;0.28;398.0;-0.102278;-0.071586
1.9;5.25;4.5;6.25;5.75;1.5;1.75;0.0;0.5;0.5;1.5;2.5;2.5;2.0;2.25;0.75;1.25;-0.208008;0.029297;0.976562;-1.75;1.75;-0.21;398.0;-0.119591;-0.079245;4.75;4.75;6.0;4.75;2.5;1.75;0.0;0.75;0.0;1.5;2.75;2.75;1.5;4.25;0.0;1.5;-0.239258;0.01709;0.987793;-0.56;-1.96;0.28;401.0;-0.102138;-0.071598
1.91;5.0;4.5;6.25;5.25;1.75;1.75;0.0;0.5;0.5;1.75;2.75;2.5;1.75;2.25;0.5;1.0;-0.208984;0.027344;0.972656;-1.96;1.75;-0.35;391.0;-0.11751;-0.073806;5.0;4.75;5.5;4.75;2.5;1.75;0.0;1.0;0.0;1.75;2.5;3.0;1.5;4.25;0.25;1.75;-0.239746;0.018555;0.984863;-0.42;-1.82;0.14;408.0;-0.094064;-0.076813
1.92;4.75;4.5;6.0;5.25;1.5;1.75;0.0;0.5;0.5;1.75;2.75;2.5;1.75;2.5;0.5;1.0;-0.210449;0.027344;0.976074;-1.82;1.82;-0.21;385.0;-0.111536;-0.075787;4.75;4.75;5.5;4.75;2.5;2.0;0.0;0.75;0.0;1.5;2.75;2.75;1.5;4.0;0.5;1.5;-0.244141;0.021973;0.985352;-0.42;-1.75;0.21;401.0;-0.096249;-0.076665
1.93;5.25;4.75;6.25;5.25;1.25;1.5;0.0;0.5;0.5;1.75;2.75;2.5;2.0;2.5;0.5;1.0;-0.207031;0.028809;0.975586;-1.82;1.96;-0.21;392.0;-0.11634;-0.074431;4.75;4.75;5.5;4.75;2.25;1.75;0.0;1.0;0.25;1.5;2.5;2.25;1.5;4.25;0.25;1.5;-0.240234;0.02002;0.980957;-0.42;-1.68;0.28;394.0;-0.098753;-0.0718
1.94;5.25;4.75;6.0;5.75;1.25;1.5;0.0;0.5;0.5;1.75;2.75;2.25;1.5;1.75;0.75;1.0;-0.206055;0.032227;0.977051;-1.82;1.82;-0.21;384.0;-0.128356;-0.076126;4.75;4.5;6.0;5.0;2.25;1.75;0.0;1.0;0.0;1.5;2.5;2.75;1.5;4.25;0.25;1.75;-0.245605;0.018066;0.982422;-0.63;-1.82;0.42;404.0;-0.097846;-0.07662
1.95;5.25;4.75;6.0;5.75;1.25;1.75;0.0;0.5;0.5;1.75;2.5;2.5;1.75;2.0;0.75;1.25;-0.208008;0.028809;0.979004;-1.96;2.1;-0.35;393.0;-0.122353;-0.08027;4.5;4.75;5.5;5.0;2.5;1.75;0.0;0.75;0.0;1.5;2.75;3.0;1.5;4.25;0.25;1.75;-0.244629;0.02002;0.981934;-0.49;-1.68;0.28;402.0;-0.092257;-0.078397
1.96;5.25;5.0;6.0;5.75;1.25;1.75;0.0;0.5;0.5;1.75;2.5;2.5;1.75;2.25;0.5;1.25;-0.211914;0.03125;0.972168;-1.82;1.82;-0.21;395.0;-0.124717;-0.079367;4.75;4.75;5.5;4.75;2.5;1.75;0.0;0.75;0.25;1.5;2.75;2.25;1.5;4.25;0.25;1.75;-0.242188;0.019043;0.981934;-0.49;-1.75;0.14;397.0;-0.096053;-0.068932
1.97;5.25;4.75;6.25;5.75;1.5;1.5;0.0;0.5;0.5;1.25;2.75;2.5;1.75;2.25;0.25;1.25;-0.210938;0.031738;0.978027;-1.89;2.03;-0.21;390.0;-0.129921;-0.077443;4.75;4.75;5.5;4.75;2.5;1.75;0.0;0.75;0.0;1.5;2.75;2.25;1.5;4.25;0.5;1.5;-0.242188;0.021973;0.984375;-0.56;-1.82;0.21;395.0;-0.097189;-0.071021
1.98;5.0;4.75;6.25;5.25;1.25;1.75;0.0;0.5;0.5;1.25;2.5;2.75;1.5;2.0;0.25;1.25;-0.210449;0.02832;0.975098;-1.75;1.89;-0.28;377.0;-0.130832;-0.079487;4.75;4.5;5.25;4.75;2.5;1.75;0.0;0.75;0.0;1.5;2.5;2.25;1.5;4.5;0.25;1.5;-0.244629;0.019043;0.989746;-0.56;-1.75;0.28;387.0;-0.096885;-0.069863
1.99;5.25;4.75;6.25;5.75;1.5;1.5;0.0;0.5;0.5;1.5;2.5;2.75;1.5;1.75;0.5;1.5;-0.20459;0.029297;0.977051;-2.03;1.96;-0.14;390.0;-0.129802;-0.079223;4.5;4.5;5.25;4.75;2.5;2.0;0.0;0.75;0.0;1.5;2.5;2.25;1.75;4.25;0.25;1.5;-0.244629;0.020996;0.98584;-0.49;-1.82;0.21;387.0;-0.096537;-0.076039
2.0;5.0;4.75;6.25;5.25;1.75;1.5;0.0;0.5;0.5;1.75;2.5;2.5;1.75;2.0;0.5;1.5;-0.208984;0.029297;0.977051;-2.03;2.1;-0.21;389.0;-0.12091;-0.075729;4.5;4.75;5.5;5.0;2.5;1.75;0.0;0.75;0.0;1.5;2.5;2.75;1.5;4.25;0.5;1.75;-0.245605;0.022949;0.990723;-0.42;-1.68;0.14;399.0;-0.093036;-0.076742
2.01;5.25;4.75;6.25;5.75;1.25;1.5;0.0;0.75;0.5;1.25;2.5;2.75;1.5;1.75;0.5;1.25;-0.206543;0.033691;0.974609;-1.96;1.96;-0.21;387.0;-0.132888;-0.08343;4.75;4.75;6.0;4.75;2.5;1.75;0.0;0.75;0.0;1.5;2.5;2.75;1.5;4.5;0.5;1.25;-0.241699;0.019043;0.984863;-0.49;-1.75;0.28;404.0;-0.09647;-0.069322
2.02;5.0;4.75;6.0;5.25;1.25;1.5;0.0;0.75;0.5;1.5;2.5;2.5;1.75;1.75;0.5;1.25;-0.20752;0.032715;0.979004;-2.1;1.96;-0.28;378.0;-0.125903;-0.083643;4.75;4.75;6.0;4.75;2.5;1.5;0.0;1.0;0.25;1.75;2.75;2.75;1.5;4.5;0.5;1.25;-0.237793;0.019531;0.986816;-0.42;-1.75;0.28;414.0;-0.088382;-0.067689
2.03;5.0;4.75;6.25;5.25;1.5;1.25;0.0;0.5;0.5;1.75;2.5;2.5;1.75;2.0;0.5;1.25;-0.209961;0.029785;0.974609;-1.89;1.96;-0.35;382.0;-0.122368;-0.074464;4.75;4.75;5.5;4.75;2.5;1.5;0.0;1.0;0.25;1.5;2.5;2.25;1.5;4.75;0.25;1.5;-0.251465;0.017578;0.981445;-0.63;-1.82;0.28;398.0;-0.093105;-0.066844
2.04;5.0;4.5;6.25;5.25;1.5;1.25;0.0;0.5;0.5;1.75;2.5;2.5;1.75;1.75;0.5;1.25;-0.205566;0.029785;0.97998;-1.96;1.96;-0.28;378.0;-0.123589;-0.075326;4.5;4.75;5.5;4.75;2.5;1.5;0.0;0.75;0.0;1.5;2.5;2.25;1.5;4.25;0.25;1.5;-0.249023;0.024902;0.983887;-0.49;-1.75;0.28;385.0;-0.100391;-0.070422
2.05;5.25;4.5;6.0;5.25;1.25;1.5;0.0;0.5;0.5;1.75;2.5;2.5;2.0;2.0;0.5;1.5;-0.204102;0.027344;0.974121;-1.82;1.89;-0.28;383.0;-0.118282;-0.079287;4.5;4.75;5.5;4.75;2.5;1.75;0.0;1.0;0.0;1.5;2.75;2.75;1.5;4.5;0.25;1.5;-0.241211;0.021484;0.989746;-0.56;-1.68;0.28;401.0;-0.090994;-0.076785
2.06;5.25;4.75;6.25;5.25;1.25;1.75;0.0;0.5;0.5;1.75;2.5;2.5;1.5;2.0;0.75;1.0;-0.206543;0.03125;0.976074;-1.96;1.89;-0.21;387.0;-0.124376;-0.074036;4.5;4.75;5.5;4.75;2.5;1.75;0.0;0.75;0.25;1.5;2.75;2.75;1.75;4.5;0.5;1.75;-0.237305;0.016113;0.980469;-0.56;-1.75;0.28;407.0;-0.082816;-0.073889
2.07;5.25;4.5;6.25;5.0;1.25;1.5;0.0;0.5;0.5;1.5;2.75;2.5;1.5;1.75;0.5;1.25;-0.208496;0.030273;0.975098;-1.96;1.82;-0.21;375.0;-0.126291;-0.074413;4.75;4.5;5.5;5.0;2.5;1.75;0.0;1.0;0.0;1.5;2.75;2.75;1.5;4.5;0.5;1.75;-0.244629;0.023438;0.979492;-0.49;-1.75;0.35;408.0;-0.08774;-0.076922
2.08;5.25;4.5;6.0;5.75;1.5;1.5;0.0;0.5;0.5;1.75;2.75;3.0;1.75;2.0;0.5;1.25;-0.209961;0.032227;0.975586;-1.96;1.82;-0.28;396.0;-0.117264;-0.080556;4.5;4.75;6.0;5.0;2.5;1.75;0.0;1.0;0.0;1.5;2.75;2.75;1.5;4.5;0.5;1.5;-0.245117;0.021484;0.98584;-0.49;-1.82;0.21;412.0;-0.091484;-0.075556
2.09;5.25;4.25;6.0;5.75;1.5;1.5;0.0;0.5;0.5;1.75;3.0;2.5;1.5;2.25;0.5;1.5;-0.208984;0.030273;0.97168;-1.96;1.82;-0.14;392.0;-0.114648;-0.074698;4.75;4.5;5.5;5.0;2.5;1.75;0.0;0.75;0.25;1.5;2.5;2.75;1.5;4.5;0.25;1.5;-0.243164;0.024902;0.986816;-0.42;-1.75;0.21;401.0;-0.092464;-0.069977
2.1;5.0;4.5;6.0;5.75;1.25;1.5;0.0;0.5;0.5;1.75;2.5;2.25;1.75;2.25;0.75;1.25;-0.206055;0.025391;0.978516;-1.96;1.82;-0.28;385.0;-0.117797;-0.076762;4.5;4.75;5.5;5.0;2.5;1.75;0.0;1.0;0.25;1.5;2.5;2.75;1.5;4.5;0.25;1.5;-0.240234;0.022949;0.981934;-0.42;-1.68;0.28;404.0;-0.091568;-0.074696
2.11;5.25;4.5;6.0;5.25;1.25;1.5;0.0;0.5;0.75;1.75;2.5;2.5;2.0;2.0;0.75;1.25;-0.20459;0.03125;0.971191;-2.03;1.89;-0.28;388.0;-0.113231;-0.075501;4.75;4.5;6.0;5.0;2.5;1.75;0.0;1.0;0.25;1.5;2.75;3.0;1.75;4.75;0.5;1.5;-0.243652;0.022949;0.982422;-0.56;-1.68;0.21;423.0;-0.083177;-0.0733
2.12;5.25;4.75;6.25;5.75;1.25;1.5;0.0;0.5;0.75;1.75;2.5;3.0;2.0;2.0;0.75;1.0;-0.209961;0.032227;0.972656;-1.89;1.75;-0.14;402.0;-0.115784;-0.078995;5.0;4.5;5.5;5.0;2.5;1.75;0.0;1.0;0.25;1.5;2.75;2.75;1.5;4.5;0.5;1.5;-0.241699;0.023438;0.985352;-0.49;-1.75;0.21;413.0;-0.088467;-0.072192
2.13;5.25;4.75;6.0;5.25;1.25;1.5;0.0;0.5;0.5;1.75;2.5;2.5;1.5;2.0;0.5;1.25;-0.204102;0.030273;0.976562;-2.03;1.82;-0.28;380.0;-0.125088;-0.074613;4.75;4.75;5.5;4.75;2.5;1.75;0.0;0.75;0.25;1.25;2.5;3.0;1.5;4.5;0.5;1.75;-0.240234;0.021973;0.983887;-0.42;-1.61;0.21;405.0;-0.088394;-0.072703
2.14;5.25;4.5;6.0;5.75;1.25;1.25;0.0;0.5;0.5;1.75;2.5;2.5;1.5;2.25;0.5;1.5;-0.208984;0.031738;0.977539;-1.89;1.61;-0.21;384.0;-0.120765;-0.074253;4.75;4.75;5.5;4.75;2.5;2.0;0.0;1.0;0.0;1.5;2.75;3.0;1.5;4.75;0.25;1.75;-0.241699;0.020508;0.98877;-0.49;-1.75;0.28;413.0;-0.087357;-0.077779
2.15;5.25;4.75;6.25;5.75;1.5;1.5;0.0;0.5;0.5;1.5;2.5;2.5;1.5;2.25;0.75;1.5;-0.210449;0.029297;0.970703;-1.89;1.68;-0.28;394.0;-0.122623;-0.075022;4.75;4.75;5.5;4.75;2.5;1.75;0.0;1.0;0.0;1.5;2.75;2.25;1.5;4.75;0.25;1.5;-0.245117;0.018555;0.980957;-0.42;-1.75;0.21;400.0;-0.094277;-0.071352
2.16;5.5;4.75;6.25;5.75;1.5;1.75;0.0;0.5;0.5;1.75;2.75;2.5;1.75;2.25;0.5;1.5;-0.209473;0.03125;0.980469;-2.03;1.61;-0.21;404.0;-0.121912;-0.076573;4.75;4.75;5.5;4.75;2.5;1.75;0.0;1.0;0.0;1.5;2.75;2.75;1.5;4.75;0.25;1.5;-0.241211;0.021484;0.986328;-0.49;-1.96;0.28;406.0;-0.090343;-0.074266
2.17;5.5;4.75;6.5;5.75;1.5;1.75;0.0;0.5;0.5;1.75;3.0;2.5;2.0;2.0;0.5;1.25;-0.210938;0.02832;0.976074;-1.96;1.68;-0.14;408.0;-0.12351;-0.078271;4.75;4.75;6.0;4.75;2.5;1.75;0.0;1.0;0.25;1.5;2.75;2.75;1.5;4.75;0.0;1.5;-0.239258;0.018555;0.98877;-0.35;-1.89;0.28;412.0;-0.093142;-0.069232
2.18;5.0;4.75;6.25;5.25;1.25;1.75;0.0;0.5;0.75;1.75;2.5;2.5;1.5;2.0;0.5;1.25;-0.20752;0.029297;0.974609;-1.96;1.68;-0.21;386.0;-0.121196;-0.073097;4.5;4.75;6.0;4.75;2.5;1.75;0.0;1.0;0.0;1.5;2.75;2.75;1.75;4.75;0.0;1.75;-0.242188;0.024902;0.986816;-0.42;-1.96;0.28;410.0;-0.091081;-0.075986
2.19;5.25;4.75;6.25;5.25;1.25;1.75;0.0;0.5;0.5;1.75;2.75;2.75;1.75;1.75;0.5;1.5;-0.20459;0.029297;0.971191;-1.96;1.68;-0.28;392.0;-0.121297;-0.080923;4.75;4.75;5.5;4.75;2.75;1.75;0.0;1.0;0.25;1.5;2.75;3.0;1.75;4.75;0.25;1.75;-0.243164;0.019043;0.986816;-0.35;-1.82;0.21;418.0;-0.083162;-0.074829
2.2;5.25;4.5;6.25;5.25;1.25;1.75;0.0;0.5;0.5;1.75;2.5;2.75;1.75;2.0;0.5;1.25;-0.205566;0.031738;0.978516;-1.89;1.75;-0.21;388.0;-0.120643;-0.077946;4.75;4.75;5.5;5.0;3.0;1.75;0.0;0.75;0.25;1.5;2.75;3.0;1.75;5.0;0.5;1.75;-0.23877;0.022461;0.979004;-0.35;-1.89;0.21;424.0;-0.079861;-0.070856
2.21;5.25;4.75;6.25;5.75;1.25;1.5;0.0;0.5;0.5;1.75;2.5;2.75;1.75;2.5;0.5;1.5;-0.208984;0.030762;0.976562;-2.1;1.61;-0.28;398.0;-0.117096;-0.07722;4.75;4.5;5.5;4.75;2.5;1.75;0.0;1.0;0.25;1.5;2.75;3.0;1.75;5.0;0.5;1.75;-0.242676;0.021484;0.98584;-0.28;-1.61;0.35;418.0;-0.075429;-0.07398
2.22;5.0;5.0;6.0;5.75;1.5;1.75;0.0;0.5;0.5;1.75;2.5;2.75;2.0;2.0;0.5;1.25;-0.205566;0.026855;0.974121;-1.96;1.68;-0.21;397.0;-0.12197;-0.084516;4.5;4.5;6.5;4.75;2.5;1.75;0.0;1.0;0.0;1.5;2.75;3.0;1.75;4.75;0.75;1.75;-0.240234;0.016113;0.983887;-0.42;-1.68;0.35;424.0;-0.080453;-0.074801
2.23;5.0;4.5;6.0;5.25;1.5;1.75;0.0;0.75;0.5;1.75;3.0;2.75;2.0;1.5;0.5;1.25;-0.209961;0.026855;0.973633;-1.96;1.54;-0.21;392.0;-0.116289;-0.087842;4.75;4.5;5.5;4.75;2.5;1.75;0.0;1.0;0.0;1.25;2.75;3.0;1.75;4.75;0.25;1.75;-0.239746;0.01709;0.988281;-0.42;-1.68;0.28;407.0;-0.085787;-0.078923
2.24;5.25;4.5;6.0;5.75;1.75;1.75;0.0;0.5;0.5;1.75;2.75;2.75;1.75;2.25;0.75;1.5;-0.20459;0.029297;0.976074;-1.96;1.61;-0.28;405.0;-0.111873;-0.078921;4.5;4.5;5.5;4.25;2.5;1.75;0.0;1.0;0.25;1.25;2.75;3.0;1.75;5.0;0.0;1.75;-0.242188;0.025879;0.989746;-0.28;-1.54;0.21;402.0;-0.078791;-0.073882
2.25;5.25;4.75;6.0;5.75;1.5;1.75;0.0;0.5;0.25;1.75;3.0;3.0;2.0;2.5;0.5;1.5;-0.20752;0.027832;0.975586;-2.1;1.47;-0.35;408.0;-0.111337;-0.085501;4.75;4.5;5.5;4.75;2.75;1.75;0.0;0.75;0.25;1.5;2.75;3.25;1.75;5.0;0.25;1.75;-0.236328;0.019531;0.981445;-0.35;-1.61;0.14;417.0;-0.077587;-0.071537
2.26;5.0;4.75;6.0;5.75;1.5;1.75;0.0;0.5;0.25;1.75;2.5;2.5;2.0;2.25;0.5;1.5;-0.210449;0.032715;0.970215;-1.96;1.54;-0.21;393.0;-0.121045;-0.084982;4.75;4.75;5.5;4.75;2.5;1.75;0.0;1.0;0.25;1.5;2.75;3.25;1.75;5.0;0.0;1.75;-0.237305;0.018066;0.985352;-0.35;-1.54;0.28;417.0;-0.081607;-0.075785
2.27;5.25;4.5;6.0;5.25;1.25;1.5;0.0;0.5;0.5;1.75;2.5;2.5;2.0;2.25;0.5;1.25;-0.206543;0.027344;0.977051;-2.1;1.54;-0.28;384.0;-0.117033;-0.077033;4.75;4.5;5.25;4.75;2.5;1.75;0.0;1.0;0.0;1.5;2.75;3.25;1.5;5.0;0.0;1.75;-0.237305;0.021973;0.986816;-0.35;-1.68;0.28;407.0;-0.082503;-0.077167
2.28;5.25;4.75;6.25;6.0;1.25;1.75;0.0;0.75;0.5;1.75;2.5;3.0;2.0;2.25;0.5;1.25;-0.211914;0.030273;0.97998;-2.03;1.61;-0.28;409.0;-0.118224;-0.086422;4.5;4.5;5.5;4.75;2.5;1.75;0.0;0.75;0.0;1.5;2.75;3.0;1.5;5.0;0.25;1.75;-0.241211;0.022461;0.983398;-0.56;-1.82;0.21;403.0;-0.08108;-0.072844
2.29;5.25;4.75;6.5;6.0;1.25;1.75;0.0;0.75;0.5;1.75;2.75;2.5;1.5;2.25;0.75;1.0;-0.208496;0.030762;0.978027;-1.96;1.61;-0.35;406.0;-0.122529;-0.077898;4.25;4.5;5.5;4.75;2.5;2.0;0.0;1.0;0.0;1.5;2.75;3.0;1.75;5.0;0.5;1.5;-0.245605;0.026855;0.98291;-0.28;-1.82;0.21;411.0;-0.075892;-0.079585
2.3;5.25;4.75;6.25;5.25;1.5;1.75;0.0;0.75;0.5;1.75;2.5;2.75;1.75;2.0;0.75;1.25;-0.207031;0.030762;0.983398;-2.03;1.61;-0.35;399.0;-0.11787;-0.080516;4.5;4.5;5.5;4.75;2.75;1.75;0.0;0.5;0.0;1.5;2.75;3.0;1.75;5.0;0.5;1.75;-0.236816;0.020996;0.979492;-0.35;-1.82;0.21;407.0;-0.077528;-0.071087
2.31;5.25;4.75;6.25;5.75;1.25;1.75;0.0;0.75;0.5;1.75;2.5;3.25;1.5;2.0;1.0;1.5;-0.206543;0.032227;0.978516;-2.03;1.61;-0.21;409.0;-0.112442;-0.084942;4.75;4.5;6.0;4.75;2.75;1.75;0.0;0.75;0.25;1.75;3.0;3.25;1.75;5.0;0.5;1.75;-0.246094;0.019531;0.989746;-0.42;-1.89;0.35;430.0;-0.073289;-0.068966
2.32;5.25;4.75;6.25;6.0;1.5;1.75;0.0;0.5;0.5;1.75;2.5;3.0;1.75;2.25;0.75;1.5;-0.20752;0.028809;0.967285;-1.96;1.68;-0.28;410.0;-0.115813;-0.08134;4.75;4.75;5.5;4.75;2.75;1.75;0.0;1.0;0.25;1.5;2.75;3.0;1.75;5.0;0.5;1.75;-0.245117;0.021973;0.980957;-0.49;-1.89;0.28;423.0;-0.077611;-0.073603
2.33;5.5;5.0;6.25;6.0;1.25;1.75;0.0;0.5;0.5;2.0;2.5;2.75;1.75;2.0;0.75;1.5;-0.209961;0.027832;0.976562;-1.89;1.82;-0.21;410.0;-0.121828;-0.080617;4.75;4.5;5.5;4.25;2.5;1.75;0.0;1.0;0.25;1.5;2.5;3.0;1.75;5.0;0.5;1.75;-0.243652;0.017578;0.983887;-0.42;-1.75;0.21;410.0;-0.074514;-0.071691
2.34;5.25;5.0;6.25;5.75;1.25;1.75;0.0;0.5;0.5;1.75;2.75;2.75;1.75;2.0;0.75;1.5;-0.210449;0.02832;0.975586;-1.82;1.75;-0.21;404.0;-0.118983;-0.082008;4.75;4.5;5.5;4.25;2.5;1.75;0.0;0.75;0.25;1.5;2.75;3.0;1.75;5.0;0.5;1.5;-0.248047;0.018066;0.981934;-0.42;-1.82;0.35;407.0;-0.074616;-0.068176
2.35;5.25;5.0;6.5;6.0;1.5;1.75;0.0;0.5;0.5;1.75;2.5;3.0;2.0;2.25;0.75;1.5;-0.209961;0.029297;0.976074;-1.75;1.75;-0.28;417.0;-0.116994;-0.082642;4.75;4.5;5.5;4.25;2.5;1.75;0.0;1.0;0.25;1.5;2.75;3.25;1.5;5.0;0.5;1.5;-0.240723;0.020508;0.985352;-0.63;-1.75;0.14;411.0;-0.073512;-0.070555
2.36;5.25;5.25;6.5;5.75;1.5;1.75;0.0;0.5;0.25;1.75;2.5;2.75;2.0;2.0;0.5;1.25;-0.20752;0.033203;0.96875;-1.96;1.96;-0.21;405.0;-0.130486;-0.084249;4.75;4.5;5.5;4.25;2.5;1.75;0.0;1.0;0.25;1.5;2.75;3.25;1.75;5.0;0.75;1.75;-0.23877;0.019531;0.990234;-0.49;-1.75;0.21;417.0;-0.067807;-0.073449
2.37;5.25;5.0;6.25;5.75;1.5;1.75;0.0;0.5;0.25;1.75;2.75;2.75;2.0;2.0;0.5;1.25;-0.20752;0.026855;0.977051;-1.96;1.89;-0.21;402.0;-0.12559;-0.08519;4.75;4.5;6.0;4.25;2.5;1.75;0.0;1.0;0.5;1.5;2.75;3.25;1.75;5.0;0.5;1.5;-0.238281;0.023438;0.991211;-0.42;-1.68;0.35;422.0;-0.072247;-0.067777
2.38;5.25;4.75;6.25;6.0;1.5;1.75;0.0;0.5;0.5;1.5;2.75;2.75;1.75;2.0;0.75;1.5;-0.210938;0.030762;0.970703;-1.89;1.89;-0.21;405.0;-0.120782;-0.082462;4.75;4.5;5.5;4.25;2.5;1.75;0.0;1.0;0.25;1.5;2.75;3.0;1.5;5.0;0.5;1.5;-0.240723;0.021484;0.980957;-0.42;-1.61;0.35;409.0;-0.07533;-0.069103
2.39;5.5;4.75;6.5;5.75;1.5;1.75;0.0;0.5;0.5;1.75;2.5;2.75;1.75;2.0;0.5;1.5;-0.214355;0.030273;0.980957;-1.96;1.89;-0.28;405.0;-0.125807;-0.077938;4.75;4.5;5.5;4.75;2.5;1.75;0.0;1.0;0.0;1.5;2.75;3.0;1.5;5.0;0.5;1.75;-0.241211;0.022461;0.986816;-0.42;-1.54;0.21;412.0;-0.079349;-0.074707
2.4;5.25;4.75;6.5;5.25;1.5;1.75;0.0;0.5;0.5;1.75;2.5;2.5;2.0;2.25;0.75;1.0;-0.202637;0.032227;0.976074;-1.89;1.89;-0.28;398.0;-0.119306;-0.07483;4.5;4.5;5.5;4.75;2.5;1.75;0.0;0.75;0.25;1.5;2.75;3.0;1.5;5.0;0.5;1.75;-0.240234;0.022949;0.984375;-0.42;-1.54;0.35;409.0;-0.07524;-0.070128
2.41;5.25;4.75;6.25;5.0;1.25;1.75;0.0;0.5;0.5;1.5;3.0;2.5;2.0;2.25;1.0;1.25;-0.209961;0.028809;0.980957;-1.75;1.75;-0.21;397.0;-0.109744;-0.078205;4.5;4.25;5.5;4.75;2.5;1.75;0.0;1.0;0.25;1.5;2.75;3.25;1.75;5.0;0.25;1.75;-0.245605;0.015625;0.987305;-0.42;-1.54;0.21;413.0;-0.072736;-0.075975
2.42;5.25;5.0;6.25;5.25;1.25;1.75;0.0;0.5;0.5;1.5;3.0;2.75;2.0;2.25;0.5;1.5;-0.203613;0.029785;0.974121;-1.82;1.61;-0.14;401.0;-0.115828;-0.081892;4.5;4.5;5.5;4.0;2.5;1.75;0.0;1.0;0.25;1.5;2.75;3.25;1.5;5.0;0.25;1.75;-0.238281;0.013672;0.98584;-0.35;-1.75;0.28;405.0;-0.071623;-0.071397
2.43;5.25;4.75;6.5;5.75;1.75;1.75;0.0;0.5;0.5;1.5;2.75;3.0;1.75;1.75;0.5;1.5;-0.208984;0.032227;0.971191;-1.89;1.82;-0.21;406.0;-0.124764;-0.082096;4.5;4.25;5.5;4.25;2.25;1.75;0.0;1.0;0.25;1.5;2.75;3.25;1.5;5.0;0.5;1.75;-0.238281;0.021973;0.981445;-0.42;-1.68;0.14;405.0;-0.067649;-0.072867
2.44;5.25;4.75;6.25;6.0;1.75;1.75;0.0;0.75;0.5;1.75;2.75;2.75;1.5;2.25;0.75;1.25;-0.208008;0.032227;0.978516;-1.89;1.89;-0.21;413.0;-0.117893;-0.079343;4.5;4.25;5.5;4.25;2.5;1.75;0.0;0.75;0.25;1.5;2.75;3.25;1.75;5.25;0.25;1.75;-0.24707;0.020508;0.982422;-0.49;-1.61;0.21;406.0;-0.067851;-0.069669
2.45;5.25;4.75;6.0;6.0;1.5;1.75;0.0;0.5;0.25;1.75;2.75;2.75;1.75;2.0;0.5;1.25;-0.20459;0.025879;0.975586;-1.89;1.89;-0.28;398.0;-0.125647;-0.084858;4.5;4.5;5.5;4.75;2.5;1.75;0.0;0.75;0.25;1.5;3.0;3.0;1.5;5.25;0.25;1.75;-0.240723;0.022461;0.983398;-0.56;-1.75;0.35;411.0;-0.073886;-0.06906
2.46;5.25;4.75;6.25;5.75;1.5;1.75;0.0;0.5;0.25;1.75;3.0;3.0;2.0;2.0;0.5;1.5;-0.206543;0.03125;0.981445;-1.96;1.89;-0.28;406.0;-0.117884;-0.087057;4.5;4.5;5.5;4.75;2.5;2.25;0.0;0.75;0.25;1.5;2.75;3.25;1.5;5.0;0.25;1.75;-0.244629;0.02002;0.985352;-0.56;-1.75;0.28;415.0;-0.07751;-0.074147
2.47;5.25;4.75;6.0;5.75;1.5;1.5;0.0;0.75;0.5;1.75;3.0;2.5;1.75;2.0;0.75;1.5;-0.208008;0.027832;0.981934;-1.96;2.03;-0.28;403.0;-0.114983;-0.082196;4.5;4.5;5.5;4.75;2.5;2.0;0.0;1.0;0.25;1.5;2.75;3.0;1.75;5.0;0.0;1.75;-0.243164;0.022949;0.980469;-0.56;-1.75;0.35;413.0;-0.080038;-0.076334
2.48;5.25;5.0;6.0;5.25;1.5;1.75;0.0;0.75;0.5;1.5;3.0;2.5;1.75;2.0;0.5;1.25;-0.210938;0.032227;0.974121;-1.75;1.89;-0.21;396.0;-0.122038;-0.082183;4.75;4.5;5.5;4.75;2.25;1.75;0.0;1.0;0.25;1.5;2.75;2.75;1.75;5.0;0.25;1.75;-0.242676;0.023438;0.980957;-0.49;-1.61;0.35;410.0;-0.080023;-0.073407
2.49;5.25;5.0;6.25;5.25;1.5;1.75;0.0;0.5;0.5;1.75;3.0;2.5;2.0;2.5;0.5;1.5;-0.206543;0.02832;0.97998;-1.89;1.89;-0.21;405.0;-0.112942;-0.077235;4.75;4.5;5.5;4.75;2.5;1.5;0.0;1.0;0.25;1.75;2.75;3.0;1.5;5.0;0.5;1.5;-0.244141;0.019043;0.988281;-0.49;-1.61;0.28;414.0;-0.075653;-0.068993
2.5;5.25;4.75;6.25;5.75;1.5;1.75;0.0;0.5;0.5;1.75;2.5;2.5;1.75;2.25;0.5;1.5;-0.206055;0.029297;0.97168;-1.89;1.89;-0.21;399.0;-0.122368;-0.077517;4.5;4.5;5.5;4.25;2.5;1.75;0.0;0.75;0.25;1.5;3.0;3.0;1.75;5.25;0.25;1.5;-0.240234;0.019531;0.98584;-0.42;-1.68;0.35;407.0;-0.071158;-0.068232
2.51;4.75;4.75;6.0;5.0;1.5;1.5;0.0;0.5;0.5;1.75;2.75;2.5;1.75;1.75;0.5;1.25;-0.208008;0.029297;0.979004;-1.75;1.89;-0.35;377.0;-0.119;-0.078981;4.5;4.5;5.25;4.25;2.5;1.75;0.0;0.75;0.25;1.5;2.75;3.0;1.5;5.25;0.25;1.5;-0.241699;0.023926;0.988281;-0.49;-1.68;0.28;399.0;-0.073054;-0.066885
2.52;5.25;5.0;5.75;5.25;1.5;1.5;0.0;0.75;0.5;1.75;2.5;3.0;1.75;2.25;0.75;1.5;-0.208984;0.029297;0.977539;-1.82;1.82;-0.28;399.0;-0.110685;-0.082909;4.25;4.5;5.25;4.25;2.5;1.75;0.0;0.75;0.25;1.5;3.0;3.0;1.5;5.25;0.0;1.75;-0.244141;0.023438;0.98291;-0.49;-1.61;0.28;398.0;-0.070637;-0.069093
2.53;5.25;4.75;5.75;5.25;1.5;1.75;0.0;0.75;0.5;1.5;2.5;3.0;1.75;2.5;0.5;1.5;-0.209961;0.028809;0.974609;-1.89;1.82;-0.28;397.0;-0.112123;-0.083297;4.5;4.25;5.5;4.75;2.5;1.75;0.0;0.75;0.25;1.5;3.0;3.0;1.5;5.5;0.0;1.75;-0.236816;0.023438;0.989258;-0.49;-1.61;0.28;408.0;-0.072518;-0.067142
2.54;5.0;4.75;6.0;5.75;1.75;1.0;0.0;0.5;0.5;1.25;3.0;2.75;1.75;2.0;0.5;1.25;-0.207031;0.026855;0.97998;-1.89;1.82;-0.28;388.0;-0.121399;-0.079338;4.5;4.5;5.25;4.25;2.5;1.75;0.0;0.75;0.25;1.75;2.75;3.0;1.5;5.5;0.25;1.75;-0.246582;0.01416;0.98877;-0.49;-1.54;0.28;405.0;-0.067035;-0.065588
2.55;4.75;4.75;6.0;4.75;1.5;1.25;0.0;0.5;0.5;1.25;2.75;3.0;2.0;1.75;0.5;1.5;-0.20459;0.027832;0.976562;-1.82;1.96;-0.35;375.0;-0.114505;-0.084589;4.5;4.5;4.75;4.0;2.5;1.75;0.0;0.75;0.5;1.5;2.75;3.0;1.75;5.25;0.0;1.5;-0.242676;0.020996;0.984375;-0.56;-1.54;0.28;393.0;-0.067968;-0.067232
2.56;4.75;4.75;6.0;5.0;1.25;1.75;0.0;0.5;0.5;1.25;2.5;2.75;2.0;2.0;0.5;1.25;-0.205078;0.030273;0.974609;-1.96;1.96;-0.28;376.0;-0.119597;-0.085392;4.5;4.25;5.25;4.0;2.5;1.75;0.0;0.75;0.0;1.5;3.25;3.0;1.5;5.25;0.25;1.5;-0.246582;0.020508;0.98291;-0.49;-1.54;0.28;396.0;-0.06834;-0.068681
2.57;5.25;4.75;6.0;5.0;1.25;1.5;0.0;0.75;0.25;1.75;2.5;2.5;1.75;2.0;0.5;1.25;-0.20459;0.029297;0.970703;-1.82;1.96;-0.21;380.0;-0.124391;-0.081921;4.25;4.25;5.25;4.25;2.5;1.75;0.0;0.75;0.0;1.5;2.75;3.0;1.75;5.25;0.25;1.75;-0.245117;0.02002;0.983887;-0.56;-1.47;0.21;394.0;-0.068788;-0.073308
2.58;4.75;4.5;6.0;5.25;1.25;1.5;0.0;0.5;0.5;2.0;2.75;2.5;1.75;2.25;0.5;1.0;-0.209961;0.035156;0.982422;-1.89;2.03;-0.28;380.0;-0.111674;-0.075831;4.25;4.25;5.5;4.25;2.5;1.75;0.0;0.75;0.0;1.75;3.0;3.25;1.5;5.5;0.5;1.75;-0.248047;0.019043;0.986328;-0.42;-1.4;0.28;408.0;-0.060156;-0.069714
2.59;5.0;4.5;6.0;5.25;1.25;1.5;0.0;0.75;0.5;1.75;2.5;2.75;2.0;1.75;0.75;1.0;-0.207031;0.030273;0.972168;-1.82;1.96;-0.21;385.0;-0.115802;-0.084911;4.25;4.0;5.5;4.0;2.5;1.75;0.0;1.0;0.25;1.75;2.75;3.25;1.5;5.5;0.25;1.75;-0.240234;0.019043;0.989746;-0.42;-1.33;0.28;404.0;-0.058466;-0.06798
2.6;5.0;4.5;6.25;4.5;1.25;1.75;0.0;0.5;0.5;1.75;2.75;3.0;1.75;2.25;0.5;1.5;-0.205566;0.029785;0.976562;-1.89;1.96;-0.28;386.0;-0.105947;-0.07723;4.25;4.0;5.25;4.25;2.5;1.75;0.0;0.75;0.25;1.5;2.75;3.25;1.75;5.75;0.25;1.75;-0.241699;0.019043;0.98584;-0.42;-1.47;0.35;402.0;-0.057239;-0.068749
2.61;5.0;4.5;6.0;5.0;1.5;1.75;0.0;0.5;0.5;1.75;3.0;3.0;1.75;2.0;0.75;1.5;-0.210449;0.029785;0.977051;-1.96;1.82;-0.21;394.0;-0.104649;-0.081163;4.25;4.25;5.25;4.0;2.25;1.75;0.0;0.75;0.25;1.25;2.75;3.0;1.75;5.75;0.25;1.75;-0.241211;0.019531;0.980957;-0.28;-1.54;0.28;394.0;-0.061007;-0.068495
2.62;5.0;4.75;6.0;5.25;1.25;1.75;0.0;0.5;0.5;1.75;2.75;2.75;2.0;2.0;0.5;1.5;-0.207031;0.031738;0.970703;-1.89;1.61;-0.28;391.0;-0.11388;-0.084096;4.25;4.25;5.25;4.0;2.5;1.75;0.0;0.75;0.25;1.5;2.75;3.0;1.5;5.5;0.0;1.25;-0.245117;0.024414;0.989746;-0.35;-1.54;0.28;390.0;-0.069422;-0.064052
2.63;5.25;4.5;6.0;5.25;1.25;1.5;0.0;0.5;0.5;1.75;2.5;2.75;2.0;1.75;0.5;1.5;-0.204102;0.028809;0.971191;-2.03;1.68;-0.35;384.0;-0.118982;-0.082199;4.5;4.25;4.75;4.0;2.5;1.5;0.0;0.75;0.25;1.5;2.75;2.75;1.5;5.0;0.0;1.75;-0.246094;0.021973;0.988281;-0.35;-1.75;0.42;380.0;-0.072481;-0.066521
2.64;5.25;4.5;6.0;5.25;1.25;1.5;0.0;0.5;0.5;1.5;2.5;2.5;2.0;2.0;0.5;1.5;-0.206055;0.032715;0.968262;-1.89;1.61;-0.35;381.0;-0.120733;-0.080265;4.5;4.25;4.75;3.5;2.5;1.25;0.0;0.75;0.0;1.5;2.75;3.0;1.75;5.25;0.25;1.5;-0.241699;0.020996;0.982422;-0.42;-1.61;0.35;376.0;-0.063731;-0.067399
2.65;5.25;4.5;6.0;5.25;1.25;1.5;0.0;0.5;0.5;1.75;2.75;2.5;2.0;2.25;0.75;1.25;-0.208008;0.029297;0.970703;-2.1;1.82;-0.28;389.0;-0.11118;-0.077329;4.5;4.25;5.25;4.0;2.5;1.75;0.0;1.0;0.0;2.0;2.75;3.0;1.5;5.0;0.25;1.75;-0.242188;0.024902;0.981445;-0.42;-1.75;0.28;399.0;-0.068747;-0.071564
2.66;5.0;4.5;6.0;5.25;1.25;1.75;0.0;0.75;0.5;1.75;2.75;2.5;2.0;2.25;0.25;1.25;-0.19873;0.030273;0.980957;-1.96;1.54;-0.21;388.0;-0.115586;-0.082962;4.25;4.25;5.25;4.0;2.5;1.75;0.0;0.75;0.25;1.75;2.75;3.0;1.5;5.75;0.25;1.5;-0.242188;0.021484;0.988281;-0.42;-1.68;0.28;398.0;-0.060204;-0.062896
2.67;5.0;4.5;5.75;5.0;1.25;1.75;0.0;0.75;0.5;1.75;2.75;2.5;1.75;2.0;0.25;1.25;-0.202148;0.027344;0.974121;-1.96;1.68;-0.35;378.0;-0.11784;-0.082502;4.25;4.25;5.25;4.0;2.5;1.75;0.0;0.75;0.25;1.25;3.25;2.75;1.75;5.5;0.5;1.5;-0.239746;0.016113;0.982422;-0.42;-1.68;0.28;398.0;-0.060336;-0.067289
2.68;5.25;4.5;5.75;5.0;1.25;1.5;0.0;0.75;0.5;1.5;2.75;3.0;2.0;2.0;0.5;1.5;-0.209961;0.029785;0.976074;-2.03;1.68;-0.28;387.0;-0.110602;-0.086705;4.25;4.25;5.25;4.0;2.5;1.75;0.0;0.75;0.5;1.5;3.0;3.0;1.75;5.25;0.5;1.5;-0.244141;0.019043;0.983887;-0.49;-1.75;0.35;402.0;-0.05842;-0.066139
2.69;5.25;4.5;6.25;5.25;1.25;1.75;0.0;0.5;0.5;1.75;2.5;3.0;2.0;2.0;0.5;1.25;-0.20459;0.030273;0.973633;-2.03;1.68;-0.35;393.0;-0.116831;-0.081525;4.25;4.0;4.5;4.0;2.5;1.5;0.0;0.75;0.5;1.75;3.0;3.25;1.5;5.25;0.5;1.5;-0.243652;0.021973;0.983398;-0.35;-1.75;0.21;392.0;-0.048718;-0.065931
2.7;5.0;4.75;6.25;5.25;1.5;1.75;0.0;0.5;0.5;1.5;2.75;3.0;2.0;2.0;0.75;1.0;-0.20459;0.029297;0.97998;-1.96;1.75;-0.21;396.0;-0.114998;-0.08266;4.0;4.25;4.75;4.25;2.5;1.75;0.0;0.75;0.25;1.5;2.75;3.25;1.5;5.25;0.25;1.25;-0.23877;0.023438;0.986816;-0.56;-1.82;0.28;387.0;-0.063429;-0.071586
2.71;5.0;4.75;6.25;5.25;1.5;1.75;0.0;0.75;0.5;1.5;3.0;3.0;2.0;2.0;0.5;1.25;-0.206055;0.030762;0.977051;-1.96;1.68;-0.28;401.0;-0.113617;-0.086591;4.25;4.0;5.25;4.25;2.25;1.75;0.0;0.75;0.25;1.5;2.75;3.0;1.5;5.25;0.25;1.75;-0.246094;0.020508;0.98291;-0.42;-1.68;0.28;390.0;-0.064937;-0.068639
2.72;5.25;4.75;6.5;5.75;1.5;1.75;0.0;0.5;0.5;1.25;2.75;2.75;1.75;2.0;0.5;1.5;-0.209961;0.030273;0.977539;-2.1;1.75;-0.35;400.0;-0.126473;-0.08124;4.25;4.25;5.25;4.0;2.5;1.75;0.0;0.75;0.5;1.5;2.75;3.0;1.5;5.25;0.5;1.75;-0.240723;0.020996;0.98291;-0.49;-1.75;0.21;399.0;-0.060098;-0.064507
2.73;5.5;4.75;6.0;5.0;1.5;1.75;0.0;0.5;0.5;1.75;2.75;2.5;1.75;2.0;0.75;1.5;-0.205078;0.028809;0.976562;-1.96;1.75;-0.21;394.0;-0.116787;-0.076061;4.25;4.25;4.75;4.25;2.75;1.75;0.0;0.75;0.25;1.5;2.75;3.0;1.5;5.25;0.5;1.75;-0.245605;0.018555;0.989746;-0.49;-1.68;0.21;395.0;-0.061847;-0.069722
2.74;5.0;4.75;6.0;5.25;1.5;1.75;0.0;0.5;0.5;2.0;2.75;2.75;2.0;2.0;0.5;1.5;-0.20459;0.025879;0.975586;-1.96;1.82;-0.35;396.0;-0.111633;-0.082118;4.0;4.0;5.25;4.0;2.5;1.75;0.0;0.75;0.25;1.5;2.75;3.25;1.5;5.25;0.5;1.75;-0.244629;0.020996;0.977051;-0.56;-1.75;0.28;393.0;-0.056585;-0.069423
2.75;4.75;4.75;5.75;5.25;1.25;1.75;0.0;0.5;0.5;1.5;2.75;2.75;2.0;2.25;0.5;1.5;-0.203613;0.02832;0.972656;-1.96;1.75;-0.28;385.0;-0.110317;-0.086202;4.25;4.25;5.25;3.75;2.25;1.75;0.0;0.75;0.25;1.5;2.75;2.75;1.5;5.25;0.5;1.75;-0.244141;0.022949;0.984863;-0.56;-1.68;0.28;387.0;-0.062527;-0.065552
2.76;4.75;4.75;6.0;5.0;1.25;1.5;0.0;0.5;0.5;1.5;2.75;2.75;1.75;2.25;0.5;1.25;-0.212402;0.024902;0.975586;-1.96;1.82;-0.21;379.0;-0.113166;-0.079602;4.25;4.25;5.25;4.0;2.75;1.75;0.0;1.0;0.25;1.5;2.75;2.25;1.5;5.25;0.5;1.75;-0.237793;0.024902;0.980957;-0.49;-1.68;0.21;394.0;-0.068107;-0.064964
2.77;4.75;4.75;6.25;5.0;1.25;1.5;0.0;0.75;0.5;1.75;2.5;3.0;2.0;2.5;0.5;1.5;-0.211914;0.028809;0.977539;-1.96;1.89;-0.28;394.0;-0.105001;-0.083199;4.25;4.25;4.75;4.0;2.5;1.75;0.0;0.75;0.5;1.5;2.75;2.75;1.5;5.5;0.5;1.75;-0.245605;0.023438;0.98584;-0.56;-1.68;0.35;393.0;-0.056416;-0.063827
2.78;5.0;4.75;6.25;5.0;1.5;1.25;0.0;0.75;0.5;1.75;2.75;3.0;2.0;2.25;0.5;1.5;-0.209961;0.03125;0.970703;-2.03;1.89;-0.28;397.0;-0.107357;-0.081261;4.25;4.25;4.75;4.0;2.5;1.75;0.0;1.0;0.5;1.5;2.75;3.0;1.5;5.25;0.5;1.75;-0.240234;0.019531;0.982422;-0.42;-1.61;0.21;397.0;-0.056751;-0.069807
2.79;4.75;4.5;6.25;5.25;1.5;1.25;0.0;0.5;0.5;1.75;2.75;2.75;2.0;2.0;0.75;1.5;-0.201172;0.030273;0.976562;-2.17;1.75;-0.21;389.0;-0.107263;-0.079967;4.5;4.25;5.25;4.0;2.5;1.75;0.0;0.75;0.25;1.5;2.75;3.0;1.5;5.5;0.5;1.75;-0.23877;0.018066;0.983887;-0.49;-1.61;0.28;400.0;-0.06239;-0.064868
2.8;5.25;4.75;6.0;5.75;1.25;1.5;0.0;0.75;0.5;1.75;2.75;2.75;2.0;1.75;0.75;1.5;-0.206055;0.032227;0.97168;-2.03;1.82;-0.28;400.0;-0.116276;-0.087798;4.25;4.25;5.25;4.0;2.5;1.75;0.0;0.5;0.25;1.75;2.75;3.0;1.5;5.5;0.5;1.75;-0.248047;0.019043;0.982422;-0.63;-1.68;0.35;396.0;-0.058658;-0.062019
2.81;5.25;4.5;6.0;5.75;1.25;1.75;0.0;0.5;0.25;1.5;2.5;2.5;2.0;2.25;0.5;1.25;-0.203125;0.029785;0.971191;-2.1;1.82;-0.21;386.0;-0.125272;-0.084437;4.25;4.25;5.5;4.0;2.25;1.75;0.0;0.75;0.25;1.25;2.75;3.0;1.5;5.0;0.5;1.5;-0.239258;0.020996;0.988281;-0.56;-1.68;0.28;389.0;-0.069831;-0.068451
2.82;5.0;4.75;6.0;5.75;1.25;1.75;0.0;0.5;0.25;1.5;3.0;2.5;2.0;2.5;0.5;1.25;-0.210938;0.031738;0.974609;-1.96;1.89;-0.21;393.0;-0.117564;-0.085187;4.25;4.0;4.75;4.0;2.25;1.75;0.0;0.75;0.25;1.5;3.0;2.75;1.75;5.25;0.5;1.5;-0.235352;0.023438;0.982422;-0.49;-1.75;0.28;385.0;-0.057302;-0.070019
2.83;5.25;4.75;6.0;5.25;1.25;1.5;0.0;0.75;0.5;1.75;3.0;2.75;1.75;2.5;0.5;1.25;-0.20752;0.030273;0.978516;-2.17;1.96;-0.21;398.0;-0.109822;-0.079062;4.5;4.25;4.75;4.25;2.5;1.75;0.0;0.75;0.0;1.5;3.0;3.0;1.5;5.25;0.5;1.5;-0.242188;0.018555;0.983887;-0.49;-1.82;0.28;393.0;-0.065843;-0.071789
2.84;5.0;4.75;6.25;5.25;1.25;1.25;0.0;0.5;0.5;1.5;2.75;3.0;2.0;2.25;0.5;1.5;-0.205078;0.030273;0.979004;-2.03;1.68;-0.28;390.0;-0.11174;-0.081212;4.25;4.0;4.75;4.25;2.5;1.5;0.0;0.75;0.0;1.5;2.75;2.75;1.5;5.25;0.5;1.5;-0.244629;0.019531;0.980957;-0.56;-1.75;0.28;380.0;-0.064714;-0.069152
2.85;5.0;4.75;6.25;5.0;1.25;1.5;0.0;0.5;0.25;1.5;3.0;2.75;2.0;2.25;0.25;1.5;-0.203613;0.03125;0.979004;-2.1;1.75;-0.21;384.0;-0.117357;-0.083329;4.25;4.25;5.5;4.75;2.5;1.5;0.0;0.5;0.25;1.5;2.75;2.25;1.5;5.25;0.75;1.5;-0.239746;0.019531;0.986328;-0.49;-1.68;0.35;393.0;-0.072497;-0.059588
2.86;5.25;4.5;6.25;5.25;1.25;1.5;0.0;0.5;0.5;1.75;2.5;2.75;2.0;2.25;0.25;1.5;-0.208496;0.033691;0.976074;-1.96;1.75;-0.21;388.0;-0.117772;-0.078115;4.25;4.5;5.5;4.25;2.5;1.75;0.0;0.75;0.25;1.5;2.75;3.0;1.75;5.5;0.5;1.75;-0.244141;0.021973;0.984863;-0.56;-1.75;0.28;407.0;-0.063901;-0.068674
2.87;5.0;4.5;5.5;5.25;1.25;1.75;0.0;0.5;0.5;1.75;2.25;2.75;2.0;1.75;0.5;1.25;-0.208496;0.028809;0.969238;-2.1;1.82;-0.21;374.0;-0.119225;-0.086388;4.5;4.5;5.25;4.0;2.5;1.75;0.0;1.0;0.25;1.5;2.75;3.0;1.75;5.5;0.5;1.75;-0.23877;0.02002;0.98584;-0.49;-1.75;0.35;408.0;-0.06269;-0.07059
2.88;5.25;4.5;6.25;5.75;1.25;1.75;0.0;0.5;0.5;1.75;2.5;2.75;2.0;1.75;0.75;1.5;-0.210449;0.029297;0.97168;-2.17;1.96;-0.28;397.0;-0.11908;-0.08427;4.25;4.5;5.5;4.25;2.25;1.5;0.0;0.75;0.25;1.75;2.75;2.25;1.5;5.25;0.5;1.75;-0.240723;0.023438;0.984375;-0.49;-1.75;0.21;392.0;-0.070204;-0.061881
2.89;5.25;4.5;6.25;5.75;1.25;1.75;0.0;0.75;0.5;2.0;2.5;2.75;1.75;2.5;0.75;1.5;-0.206543;0.029785;0.975098;-2.03;1.75;-0.21;408.0;-0.108999;-0.08009;4.25;4.5;5.5;4.25;2.75;1.75;0.0;0.75;0.25;1.75;2.75;2.25;1.5;5.25;0.25;1.75;-0.237305;0.015625;0.986816;-0.56;-1.89;0.21;398.0;-0.074682;-0.06149
2.9;5.0;4.75;6.75;5.75;1.25;1.5;0.0;0.5;0.5;1.75;2.75;2.75;1.5;2.5;0.75;1.5;-0.203613;0.028809;0.976074;-1.96;1.96;-0.21;405.0;-0.113218;-0.074337;4.25;4.25;5.25;4.25;2.5;1.5;0.0;0.5;0.25;1.75;2.75;2.75;1.5;5.0;0.25;1.25;-0.237793;0.018066;0.987793;-0.56;-1.89;0.28;384.0;-0.072846;-0.060822
2.91;5.0;4.75;6.25;5.75;1.25;1.5;0.0;0.5;0.5;1.75;2.75;2.5;1.5;2.25;0.75;1.5;-0.20459;0.032715;0.977051;-2.03;1.82;-0.28;394.0;-0.116054;-0.076534;4.25;4.25;5.5;4.25;2.5;1.75;0.0;0.5;0.25;1.5;2.75;2.75;1.25;5.0;0.5;1.75;-0.24707;0.019043;0.97998;-0.63;-1.82;0.28;390.0;-0.071955;-0.061738
2.92;5.0;4.75;6.0;5.75;1.25;1.75;0.0;0.5;0.5;1.75;2.75;2.5;1.75;2.0;0.5;1.5;-0.206543;0.032227;0.973145;-2.1;1.82;-0.21;391.0;-0.120052;-0.082556;4.25;4.25;5.5;4.25;2.5;1.75;0.0;0.75;0.25;1.5;2.5;3.0;1.5;5.0;0.5;1.5;-0.245605;0.016602;0.987305;-0.56;-1.68;0.35;395.0;-0.071645;-0.06745
2.93;5.25;4.75;6.0;5.75;1.25;1.75;0.0;0.5;0.5;1.75;3.0;2.75;1.75;2.0;0.5;1.5;-0.210938;0.027344;0.977051;-1.89;1.75;-0.14;399.0;-0.117451;-0.08294;4.25;4.25;5.5;4.75;2.5;1.75;0.0;0.75;0.5;1.5;2.75;2.75;1.5;5.25;0.25;1.5;-0.242676;0.020508;0.981934;-0.56;-1.75;0.35;403.0;-0.07239;-0.064248
2.94;5.25;4.75;6.0;5.75;1.5;1.75;0.0;0.5;0.5;1.75;3.0;3.0;1.75;2.0;0.25;0.75;-0.203613;0.031738;0.976074;-1.89;1.68;-0.28;398.0;-0.123709;-0.080996;4.5;4.25;5.25;4.25;2.5;1.75;0.0;0.75;0.25;1.5;2.75;2.75;1.5;5.25;0.5;1.75;-0.245605;0.022949;0.97998;-0.56;-1.61;0.28;398.0;-0.068275;-0.065739
2.95;5.25;4.75;6.25;5.75;1.5;1.75;0.0;0.5;0.5;1.75;3.0;2.75;2.0;1.75;0.25;1.25;-0.205078;0.029297;0.974609;-1.96;1.75;-0.14;401.0;-0.124863;-0.083407;4.5;4.5;5.25;4.25;2.75;1.75;0.0;0.75;0.25;1.5;2.75;2.25;1.5;5.0;0.25;1.5;-0.244629;0.022461;0.980469;-0.56;-1.75;0.35;392.0;-0.081743;-0.062695
2.96;5.0;4.75;5.75;6.0;1.25;1.75;0.0;0.5;0.5;1.75;2.75;2.75;2.0;2.0;0.5;1.5;-0.212891;0.032227;0.979004;-2.03;1.75;-0.21;396.0;-0.116417;-0.08824;4.5;4.5;5.5;4.25;2.5;1.75;0.0;0.75;0.0;1.5;2.75;2.25;1.5;5.0;0.25;1.5;-0.242188;0.016113;0.984863;-0.63;-1.82;0.35;388.0;-0.085604;-0.065319
2.97;5.25;4.75;6.5;6.0;1.25;1.75;0.0;0.75;0.5;1.5;2.5;2.5;2.0;2.25;0.5;1.5;-0.208008;0.029785;0.970215;-2.1;1.75;-0.28;405.0;-0.124186;-0.084217;5.0;4.75;5.5;4.75;2.5;1.75;0.0;0.75;0.0;1.5;2.5;2.25;1.5;5.0;0.25;1.25;-0.243164;0.020996;0.985352;-0.7;-1.68;0.21;397.0;-0.098021;-0.064655
2.98;5.25;5.0;6.5;6.0;1.5;1.75;0.0;0.5;0.5;1.75;2.5;3.0;2.0;2.0;0.5;1.5;-0.20459;0.030762;0.979004;-2.03;1.68;-0.28;412.0;-0.123075;-0.083989;4.75;4.75;5.5;4.75;2.75;1.75;0.0;0.75;0.25;1.5;2.5;2.75;1.5;4.75;0.5;1.75;-0.240723;0.024414;0.97998;-0.63;-1.89;0.42;409.0;-0.085858;-0.068199
2.99;5.25;5.0;6.75;6.0;1.5;1.5;0.0;0.5;0.5;1.75;2.5;2.5;1.75;2.25;0.5;1.5;-0.208984;0.033203;0.972168;-2.1;1.96;-0.21;407.0;-0.126909;-0.075419;4.75;4.75;6.0;4.75;2.5;1.75;0.0;0.75;0.25;1.25;2.5;2.25;1.25;4.75;0.75;1.75;-0.243652;0.022949;0.98877;-0.77;-1.82;0.28;405.0;-0.092158;-0.062777
3.0;5.25;5.0;6.5;6.0;1.25;1.75;0.0;0.5;0.5;1.75;2.75;2.5;1.75;2.5;0.5;1.5;-0.206543;0.029297;0.969238;-2.03;1.75;-0.14;409.0;-0.121077;-0.077716;4.75;4.5;6.0;4.75;2.5;1.75;0.0;0.75;0.25;1.5;2.75;2.25;1.25;5.0;0.5;1.5;-0.244141;0.024414;0.982422;-0.7;-1.89;0.49;406.0;-0.088241;-0.059494
3.01;5.75;5.25;6.5;5.75;1.5;1.75;0.0;0.5;0.5;1.75;2.75;2.5;1.75;2.0;0.5;1.5;-0.212402;0.029785;0.975586;-1.96;1.82;-0.28;412.0;-0.130705;-0.0766;4.75;4.75;5.5;4.75;2.5;1.75;0.0;0.5;0.25;1.5;2.25;2.75;1.5;5.0;0.5;1.5;-0.245605;0.024414;0.984375;-0.7;-1.75;0.35;401.0;-0.087187;-0.063567
3.02;5.5;4.75;6.5;5.75;1.5;1.75;0.0;0.5;0.5;1.25;2.5;2.5;1.75;2.0;0.25;1.5;-0.208984;0.026855;0.976562;-1.96;1.89;-0.21;395.0;-0.136424;-0.078324;4.75;4.5;5.5;5.0;3.0;1.75;0.0;0.75;0.25;1.25;2.5;2.25;1.5;4.75;0.25;1.5;-0.242188;0.017578;0.980469;-0.77;-1.82;0.28;401.0;-0.09635;-0.06476
3.03;5.25;4.5;6.0;6.0;1.5;1.75;0.0;0.5;0.5;1.5;2.75;2.75;2.0;1.75;0.5;1.5;-0.209473;0.029785;0.976074;-2.03;1.89;-0.21;397.0;-0.122823;-0.086645;4.75;4.75;6.5;4.75;2.5;1.75;0.0;0.75;0.25;1.5;2.5;2.25;1.5;4.75;0.25;1.5;-0.242676;0.02002;0.986816;-0.7;-1.75;0.28;409.0;-0.098963;-0.060924
3.04;5.25;5.0;6.25;6.0;1.5;1.75;0.0;0.5;0.5;1.75;2.5;2.5;1.75;2.25;0.5;1.25;-0.209961;0.030273;0.970703;-1.96;2.03;-0.28;403.0;-0.126804;-0.078231;4.75;4.75;5.5;4.75;2.5;1.75;0.0;0.5;0.25;1.5;2.5;2.25;1.25;4.0;0.25;1.5;-0.239258;0.019043;0.986816;-0.7;-1.75;0.35;385.0;-0.104988;-0.063712
3.05;5.5;5.25;6.5;6.0;1.5;1.75;0.0;0.5;0.5;1.75;2.5;2.5;1.5;1.75;0.5;1.25;-0.210449;0.03125;0.972168;-1.89;1.89;-0.21;404.0;-0.138457;-0.077018;5.0;4.75;6.0;5.25;2.5;1.75;0.0;0.5;0.25;1.25;2.25;2.25;1.25;4.0;0.5;1.5;-0.243164;0.018066;0.981445;-0.63;-1.75;0.42;396.0;-0.112777;-0.063276
3.06;5.25;5.0;6.5;6.0;1.25;1.75;0.0;0.5;0.5;1.5;2.5;2.5;1.5;2.0;0.25;1.0;-0.208984;0.03125;0.974609;-2.03;1.89;-0.21;392.0;-0.140081;-0.077387;5.25;5.0;6.75;4.75;2.5;1.75;0.0;0.5;0.25;1.25;2.25;2.25;1.0;4.0;0.5;1.5;-0.247559;0.022461;0.98291;-0.63;-1.68;0.35;402.0;-0.11871;-0.055223
3.07;5.25;5.25;6.5;6.0;1.5;1.75;0.0;0.5;0.5;1.75;2.5;2.75;1.75;2.0;0.25;1.25;-0.207031;0.031738;0.976562;-1.96;1.89;-0.21;406.0;-0.133517;-0.080307;5.25;4.75;6.5;5.0;2.5;1.75;0.0;0.5;0.25;1.5;2.5;3.0;1.25;3.75;0.25;1.5;-0.250488;0.02002;0.986816;-0.7;-1.75;0.42;410.0;-0.110985;-0.064175
3.08;5.25;5.5;6.5;6.0;1.5;1.75;0.0;0.5;0.5;1.75;2.5;2.5;2.0;1.75;0.25;1.5;-0.208496;0.029785;0.973145;-1.89;1.96;-0.21;407.0;-0.136931;-0.083557;5.25;5.0;6.5;5.0;2.5;1.75;0.0;0.75;0.0;1.5;2.5;2.25;1.5;4.0;0.25;1.25;-0.248047;0.019043;0.986328;-0.84;-1.68;0.35;408.0;-0.118285;-0.066051
3.09;5.5;4.75;6.25;6.0;1.5;1.75;0.0;0.75;0.5;1.5;2.5;2.5;2.0;1.75;0.25;1.5;-0.205078;0.033203;0.975586;-2.03;1.89;-0.21;401.0;-0.1342;-0.085976;5.0;5.25;6.0;5.0;2.5;1.75;0.0;0.5;0.0;1.5;2.5;2.25;1.25;4.0;0.25;1.25;-0.242188;0.016113;0.984375;-0.63;-1.75;0.28;396.0;-0.118675;-0.064671
3.1;5.25;4.75;6.25;6.0;1.5;1.75;0.0;0.75;0.5;1.5;2.5;2.5;1.75;2.0;0.5;1.5;-0.208496;0.03125;0.975098;-1.89;1.96;-0.14;401.0;-0.127647;-0.083779;5.0;5.0;6.0;5.25;2.5;1.5;0.0;0.5;0.25;1.25;2.25;2.25;1.25;3.75;0.25;1.5;-0.241699;0.015137;0.980957;-0.63;-1.68;0.28;391.0;-0.120655;-0.063608
3.11;5.25;4.5;6.25;6.0;1.5;1.75;0.0;0.5;0.5;1.25;2.5;2.75;1.75;1.75;0.5;1.25;-0.208008;0.030273;0.977051;-1.89;1.89;-0.14;391.0;-0.131881;-0.083332;5.5;5.0;6.5;5.0;2.5;1.75;0.0;0.75;0.0;1.25;2.25;2.25;1.25;3.75;0.25;1.5;-0.241211;0.018066;0.984375;-0.56;-1.61;0.35;402.0;-0.12742;-0.065437
3.12;5.5;4.75;6.25;6.0;1.5;1.5;0.0;0.5;0.5;1.25;2.5;2.75;1.75;2.0;0.5;1.0;-0.206543;0.033203;0.975586;-1.89;1.96;-0.28;394.0;-0.133942;-0.079044;5.5;5.0;6.75;5.0;2.25;1.75;0.0;0.75;0.0;1.25;2.5;2.25;1.25;3.75;0.0;1.5;-0.243164;0.019531;0.988281;-0.77;-1.61;0.35;402.0;-0.129593;-0.065448
3.13;5.25;4.75;6.25;6.0;1.5;1.5;0.0;0.5;0.5;1.25;2.5;2.75;1.75;2.25;0.5;1.0;-0.208008;0.033203;0.979492;-1.96;1.89;-0.28;394.0;-0.129219;-0.078892;5.25;5.0;6.5;5.0;2.5;1.75;0.0;0.5;0.0;1.25;2.25;2.0;1.25;3.75;0.0;1.5;-0.245605;0.020996;0.983398;-0.7;-1.75;0.42;390.0;-0.132586;-0.061745
3.14;5.5;5.0;6.25;6.0;1.5;1.5;0.0;0.5;0.5;1.75;2.25;2.5;1.75;1.75;0.5;1.25;-0.20459;0.029785;0.979492;-1.96;1.96;-0.14;396.0;-0.136572;-0.078173;5.25;5.25;6.75;5.25;2.5;1.75;0.0;0.5;0.0;1.5;2.0;2.0;1.5;3.75;0.25;1.25;-0.240723;0.015625;0.983887;-0.63;-1.75;0.35;402.0;-0.13262;-0.06268
3.15;5.5;5.0;6.25;6.0;1.5;1.5;0.0;0.5;0.5;1.75;2.5;2.5;2.0;1.75;0.5;1.25;-0.210938;0.032227;0.979492;-2.03;1.96;-0.21;401.0;-0.132549;-0.080493;5.25;5.25;6.75;5.0;2.75;1.75;0.0;0.5;0.0;1.5;2.25;2.0;1.25;3.75;0.0;1.25;-0.23877;0.017578;0.984863;-0.63;-1.75;0.28;400.0;-0.134351;-0.058772
3.16;5.5;5.0;6.25;6.0;1.25;1.75;0.0;0.5;0.5;1.5;2.5;2.5;2.0;1.75;0.25;1.5;-0.211426;0.032227;0.974121;-2.03;2.03;-0.14;397.0;-0.137071;-0.084528;5.25;5.25;7.0;5.0;2.5;1.75;0.0;0.5;0.0;1.25;2.25;2.25;1.0;3.75;0.0;1.0;-0.241211;0.015625;0.989746;-0.63;-1.75;0.28;396.0;-0.138875;-0.057866
3.17;5.25;5.0;6.5;5.75;1.25;1.75;0.0;0.5;0.25;1.25;2.5;2.5;1.75;1.75;0.5;1.25;-0.207031;0.03125;0.978027;-2.17;2.1;-0.21;387.0;-0.140771;-0.084672;5.25;5.5;6.5;5.25;2.5;1.75;0.0;0.75;0.0;1.25;2.25;2.25;1.25;3.75;0.0;1.25;-0.243164;0.020508;0.984863;-0.63;-1.68;0.28;403.0;-0.135183;-0.067847
3.18;5.25;5.0;6.0;5.75;1.5;1.75;0.0;0.5;0.25;1.75;2.5;2.5;1.75;2.0;0.5;1.5;-0.20166;0.032715;0.976562;-1.89;1.96;-0.21;393.0;-0.129123;-0.083529;5.25;5.5;7.0;5.25;2.5;1.75;0.0;0.75;0.0;1.5;2.25;2.0;1.25;3.75;0.25;1.25;-0.241211;0.014648;0.989258;-0.63;-1.82;0.35;411.0;-0.133309;-0.063511
3.19;5.25;5.0;6.0;6.0;1.5;1.75;0.0;0.5;0.25;1.75;2.5;2.75;1.5;1.75;0.5;1.5;-0.211426;0.030273;0.976074;-1.96;1.89;-0.14;394.0;-0.132531;-0.085262;5.5;5.25;7.0;5.25;2.5;1.5;0.0;0.75;0.0;1.5;2.25;2.0;1.25;4.0;0.25;1.0;-0.241699;0.019531;0.986816;-0.49;-1.75;0.35;409.0;-0.132096;-0.058369
3.2;5.25;4.75;6.0;6.0;1.5;1.5;0.0;0.5;0.5;1.75;2.5;2.5;1.5;1.75;0.5;1.25;-0.208008;0.034668;0.976562;-2.03;1.75;-0.28;389.0;-0.131475;-0.078216;5.25;5.25;6.75;5.5;2.5;1.75;0.0;0.75;0.0;1.5;2.25;2.0;1.25;3.75;0.25;1.0;-0.246582;0.019531;0.982422;-0.49;-1.68;0.28;407.0;-0.133487;-0.064229
3.21;5.5;5.0;6.5;6.0;1.5;1.5;0.0;0.5;0.5;1.75;2.5;2.75;1.75;2.0;1.0;1.25;-0.208984;0.031738;0.97168;-1.96;1.75;-0.21;411.0;-0.123124;-0.077398;5.5;5.25;6.75;5.5;2.5;2.0;0.0;0.75;0.0;1.25;2.25;2.0;1.0;3.25;0.25;1.0;-0.242676;0.015625;0.990234;-0.49;-1.82;0.35;404.0;-0.145138;-0.06577
3.22;5.5;5.0;6.5;5.75;1.5;1.75;0.0;0.5;0.5;1.75;2.5;2.5;1.75;2.0;0.5;1.25;-0.208984;0.03125;0.981445;-2.1;1.96;-0.28;403.0;-0.131292;-0.076225;5.5;5.5;6.75;5.25;2.5;1.75;0.0;0.75;0.0;1.25;2.0;2.25;1.0;3.5;0.25;1.25;-0.241699;0.012207;0.986328;-0.49;-1.68;0.35;404.0;-0.141125;-0.064594
3.23;5.25;5.0;6.5;6.0;1.5;1.5;0.0;0.5;0.25;1.25;2.75;2.5;1.75;2.0;0.5;1.25;-0.212402;0.029297;0.978027;-1.96;1.68;-0.21;395.0;-0.136191;-0.082128;5.5;5.5;6.75;5.5;2.5;1.75;0.0;0.5;0.0;1.5;2.25;2.25;1.25;3.5;0.25;1.25;-0.237793;0.018555;0.984863;-0.49;-1.61;0.35;410.0;-0.1369;-0.06424
3.24;5.25;5.0;6.25;5.75;1.25;1.5;0.0;0.5;0.25;1.75;2.5;2.5;1.75;2.25;0.5;1.25;-0.209473;0.024902;0.973145;-2.1;1.68;-0.28;391.0;-0.128716;-0.079777;5.25;5.5;6.75;5.5;2.5;1.75;0.0;0.5;0.0;1.5;2.25;2.0;1.25;3.75;0.0;1.25;-0.243652;0.022461;0.984863;-0.49;-1.68;0.28;405.0;-0.138096;-0.06245
3.25;5.5;5.0;6.25;6.0;1.5;1.75;0.0;0.5;0.25;1.25;2.5;2.5;1.75;1.75;0.5;1.25;-0.208496;0.028809;0.979492;-2.1;1.82;-0.28;393.0;-0.142531;-0.084592;5.5;5.75;6.75;5.75;2.5;1.75;0.0;0.5;0.25;1.5;1.75;2.25;1.25;3.5;0.0;1.0;-0.231934;0.020508;0.984863;-0.63;-1.68;0.21;409.0;-0.146127;-0.061581
3.26;5.5;5.5;6.75;6.25;1.5;1.75;0.0;0.5;0.25;1.0;2.5;2.5;1.75;2.0;0.5;1.5;-0.208008;0.028809;0.970703;-2.03;1.89;-0.35;406.0;-0.146165;-0.084417;5.5;5.75;6.75;5.5;2.5;1.75;0.0;0.75;0.0;1.5;2.25;2.25;1.0;3.5;0.25;1.25;-0.240234;0.021973;0.984863;-0.49;-1.82;0.35;414.0;-0.138913;-0.065738
3.27;5.5;5.5;6.25;6.25;1.5;1.75;0.0;0.5;0.5;1.5;2.5;2.5;1.75;2.0;0.5;1.5;-0.206055;0.028809;0.974121;-1.96;1.75;-0.28;409.0;-0.13641;-0.082035;5.5;5.75;7.0;5.5;2.5;1.75;0.0;0.5;0.0;1.5;2.0;2.25;1.25;3.5;0.25;1.5;-0.240723;0.021484;0.980957;-0.49;-1.61;0.28;414.0;-0.139982;-0.064265
3.28;5.25;5.25;6.5;6.0;1.25;1.5;0.0;0.5;0.25;1.25;2.5;2.25;1.5;2.0;0.5;1.25;-0.209961;0.029785;0.977051;-1.96;1.82;-0.35;387.0;-0.144446;-0.079838;5.5;5.5;6.75;5.5;2.5;1.75;0.0;0.5;0.25;1.25;2.0;2.0;1.25;3.5;0.25;1.5;-0.241211;0.019531;0.984375;-0.49;-1.75;0.21;407.0;-0.139059;-0.06134
3.29;5.25;5.0;6.5;6.0;1.5;1.5;0.0;0.5;0.25;1.5;2.5;2.25;1.5;1.75;0.5;1.0;-0.206055;0.030273;0.973633;-1.96;1.75;-0.28;387.0;-0.144942;-0.077951;5.5;5.5;6.75;5.5;2.5;1.75;0.0;0.5;0.25;1.0;2.0;2.25;1.0;3.5;0.25;1.5;-0.241211;0.019043;0.987305;-0.49;-1.68;0.28;405.0;-0.140882;-0.061528
3.3;5.25;5.0;6.25;6.0;1.25;1.75;0.0;0.5;0.5;1.25;2.25;2.75;1.75;1.75;0.5;1.25;-0.204102;0.030273;0.977539;-1.96;1.68;-0.28;391.0;-0.137682;-0.085107;5.5;5.5;7.0;5.25;2.5;1.75;0.0;0.75;0.0;1.5;2.0;2.25;1.0;3.5;0.25;1.25;-0.240234;0.02002;0.981445;-0.42;-1.75;0.35;409.0;-0.13955;-0.06273
3.31;5.25;5.25;6.75;6.0;1.25;1.75;0.0;0.5;0.5;1.25;2.25;2.5;1.5;2.0;0.25;1.25;-0.212402;0.027344;0.978516;-1.96;1.75;-0.28;393.0;-0.145813;-0.078218;5.5;5.5;6.75;5.25;2.5;1.75;0.0;0.5;0.0;1.5;2.25;2.0;1.0;3.5;0.25;1.0;-0.247559;0.015137;0.986816;-0.49;-1.75;0.35;401.0;-0.141478;-0.058634
3.32;5.25;5.0;6.75;6.0;1.5;1.75;0.0;0.5;0.5;1.5;2.5;2.5;1.5;1.5;0.25;1.25;-0.211426;0.03418;0.972656;-1.96;1.75;-0.21;395.0;-0.145104;-0.078808;5.5;5.5;6.75;5.5;2.5;1.75;0.0;0.5;0.25;1.25;2.0;2.0;1.25;3.5;0.25;1.25;-0.245117;0.01709;0.985352;-0.49;-1.68;0.42;406.0;-0.140733;-0.060494
3.33;5.5;5.0;6.5;6.0;1.5;1.75;0.0;0.5;0.25;1.25;2.5;2.5;1.5;1.75;0.25;1.25;-0.206055;0.029297;0.976074;-2.03;1.82;-0.21;391.0;-0.148843;-0.081275;5.75;5.5;7.0;5.5;2.75;1.75;0.0;0.75;0.25;1.5;2.25;2.25;1.25;3.25;0.25;1.5;-0.244141;0.023438;0.983887;-0.49;-1.75;0.28;425.0;-0.13631;-0.063702
3.34;5.5;5.0;6.0;6.0;1.25;1.5;0.0;0.5;0.5;1.75;2.5;2.5;1.75;2.0;0.25;1.25;-0.203125;0.029297;0.972168;-1.89;1.54;-0.35;392.0;-0.133984;-0.079177;5.75;5.75;7.0;5.5;2.5;1.75;0.0;0.5;0.25;1.5;2.25;2.25;1.25;3.25;0.25;0.75;-0.245605;0.019531;0.982422;-0.42;-1.75;0.21;416.0;-0.14393;-0.059649
3.35;5.25;5.25;6.25;6.0;1.25;1.75;0.0;0.5;0.5;1.75;2.5;2.5;1.75;1.25;0.25;1.5;-0.211914;0.031738;0.976074;-2.03;1.82;-0.21;393.0;-0.142109;-0.08606;5.5;5.75;6.75;5.5;2.5;1.75;0.0;0.5;0.0;1.25;2.25;2.0;1.25;3.5;0.5;0.75;-0.243164;0.019531;0.986816;-0.42;-1.75;0.35;407.0;-0.142931;-0.062588
3.36;5.5;5.0;6.5;6.0;1.5;1.75;0.0;0.5;0.25;1.5;2.5;2.75;1.5;1.5;0.5;1.0;-0.209961;0.022461;0.979492;-1.96;1.75;-0.28;395.0;-0.144968;-0.082352;5.75;5.75;7.25;5.5;2.5;1.75;0.0;0.5;0.0;1.5;2.25;2.25;1.25;3.25;0.25;1.0;-0.248047;0.021484;0.985352;-0.42;-1.54;0.21;417.0;-0.146239;-0.062098
3.37;5.5;4.75;6.5;5.25;1.5;1.75;0.0;0.5;0.25;1.5;2.75;2.75;1.5;1.75;0.5;1.25;-0.208008;0.029297;0.979492;-1.96;1.75;-0.28;391.0;-0.133082;-0.078469;5.75;5.75;7.0;5.5;2.5;1.75;0.0;0.5;0.0;1.5;2.25;2.0;1.0;3.25;0.0;1.0;-0.240234;0.02002;0.983398;-0.49;-1.68;0.42;407.0;-0.152978;-0.059367
3.38;5.25;5.25;6.25;5.75;1.25;1.75;0.0;0.5;0.25;1.75;2.25;2.5;1.75;1.75;0.5;1.25;-0.212891;0.027344;0.978516;-1.96;1.61;-0.21;389.0;-0.138883;-0.084207;5.5;5.5;7.0;5.5;2.5;1.75;0.0;0.5;0.25;1.25;2.5;2.0;1.0;3.25;0.0;1.5;-0.246094;0.022949;0.98877;-0.49;-1.82;0.35;408.0;-0.143281;-0.059997
3.39;5.0;5.25;6.25;6.0;1.25;1.75;0.0;0.5;0.25;1.5;2.5;2.5;1.75;1.25;0.5;1.25;-0.208008;0.028809;0.975586;-1.96;1.68;-0.35;385.0;-0.14434;-0.090611;5.5;5.75;6.75;5.75;2.5;1.75;0.0;0.5;0.25;1.25;2.25;2.25;1.0;3.25;0.25;1.25;-0.246582;0.019043;0.983887;-0.42;-1.68;0.35;412.0;-0.143179;-0.063159
3.4;5.25;5.25;6.5;6.25;1.25;1.75;0.0;0.5;0.25;1.75;2.5;2.25;1.5;1.75;0.5;1.25;-0.206055;0.035645;0.978516;-2.03;1.61;-0.28;396.0;-0.143429;-0.081668;5.5;5.75;7.0;5.5;2.5;1.75;0.0;0.5;0.25;1.25;2.0;2.25;1.0;3.25;0.25;1.5;-0.245605;0.015137;0.984375;-0.42;-1.82;0.28;411.0;-0.143731;-0.061536
3.41;5.75;5.25;6.5;5.75;1.25;1.75;0.0;0.5;0.5;1.75;2.5;2.5;1.5;2.0;0.5;1.5;-0.207031;0.031738;0.973145;-1.89;1.54;-0.35;405.0;-0.134655;-0.07522;5.25;5.5;7.0;5.25;2.5;1.75;0.0;0.5;0.0;1.25;2.0;2.0;1.25;3.25;0.25;1.5;-0.238281;0.020996;0.979492;-0.42;-1.75;0.21;399.0;-0.143393;-0.064292
3.42;5.5;5.25;6.5;6.0;1.5;1.75;0.0;0.5;0.5;1.75;2.5;2.5;1.5;1.5;0.25;1.25;-0.208496;0.030762;0.968262;-1.96;1.54;-0.35;399.0;-0.144991;-0.078341;5.25;5.5;6.75;5.25;2.5;1.75;0.0;0.75;0.0;1.25;2.0;2.0;1.0;3.5;0.0;1.25;-0.241699;0.016113;0.986816;-0.42;-1.82;0.28;396.0;-0.145384;-0.064073
3.43;5.75;5.25;6.5;6.25;1.5;1.75;0.0;0.5;0.5;1.5;2.5;2.5;1.75;1.75;0.25;1.25;-0.208496;0.030273;0.980469;-2.03;1.4;-0.21;406.0;-0.145467;-0.079751;5.5;5.5;6.75;5.5;2.5;1.75;0.0;0.5;0.0;1.25;2.0;2.0;1.0;3.5;0.0;0.75;-0.245605;0.021484;0.983887;-0.49;-1.75;0.28;395.0;-0.152824;-0.059181
3.44;5.5;5.25;6.25;6.25;1.5;1.5;0.0;0.5;0.5;1.0;2.5;2.5;1.75;2.0;0.5;1.25;-0.209961;0.035645;0.971191;-1.96;1.47;-0.28;398.0;-0.141303;-0.081359;5.5;5.5;6.75;5.5;2.5;1.75;0.0;0.75;0.0;1.0;2.25;2.25;1.0;3.75;0.0;0.75;-0.242676;0.019043;0.987305;-0.42;-1.61;0.21;404.0;-0.146233;-0.063774
3.45;5.5;5.25;6.5;6.25;1.5;1.75;0.0;0.5;0.5;1.5;2.5;2.5;2.0;2.0;0.75;1.25;-0.207031;0.024414;0.975586;-1.89;1.4;-0.21;413.0;-0.132289;-0.081638;5.5;5.75;7.0;5.25;2.5;1.75;0.0;0.75;0.0;1.0;2.25;2.0;1.0;3.25;0.0;1.5;-0.243164;0.018066;0.990234;-0.49;-1.82;0.35;403.0;-0.15074;-0.065764
3.46;5.5;5.0;6.75;6.25;1.5;1.75;0.0;0.5;0.5;1.75;2.5;2.75;1.75;2.0;0.5;1.25;-0.203613;0.032715;0.97168;-1.96;1.47;-0.21;414.0;-0.132101;-0.078475;5.5;5.5;6.75;5.5;2.5;1.75;0.0;0.5;0.0;1.5;2.25;2.25;1.0;3.5;0.0;1.5;-0.243652;0.015137;0.986328;-0.35;-1.82;0.21;407.0;-0.140389;-0.062842
3.47;5.5;5.0;6.5;5.75;1.5;1.75;0.0;0.5;0.25;1.25;2.5;2.75;1.5;1.75;0.5;1.25;-0.207031;0.029297;0.972656;-1.89;1.54;-0.28;393.0;-0.141757;-0.081717;5.5;5.5;6.75;5.5;2.5;1.75;0.0;0.5;0.25;1.5;2.25;2.25;1.0;3.5;0.0;1.25;-0.246582;0.022461;0.989746;-0.42;-1.75;0.21;409.0;-0.138879;-0.05931
3.48;5.5;5.0;6.25;6.0;1.5;1.75;0.0;0.5;0.25;1.25;2.5;2.75;1.75;2.0;0.25;1.5;-0.207031;0.035645;0.975098;-1.96;1.61;-0.21;396.0;-0.139137;-0.085388;5.5;5.25;6.75;5.25;2.5;1.75;0.0;0.5;0.25;1.5;2.25;2.25;1.0;3.5;0.25;1.25;-0.237793;0.018066;0.98291;-0.28;-1.82;0.35;406.0;-0.132766;-0.057735
3.49;5.25;5.0;6.25;6.25;1.5;1.75;0.0;0.5;0.5;1.75;2.5;2.75;1.75;2.0;0.5;1.5;-0.205566;0.024414;0.975098;-1.89;1.47;-0.28;407.0;-0.126909;-0.082747;5.5;5.5;6.5;5.25;2.5;1.75;0.0;0.75;0.25;1.5;2.25;2.25;1.0;3.75;0.5;1.25;-0.243652;0.020996;0.984863;-0.35;-1.82;0.28;414.0;-0.126113;-0.06134
3.5;5.25;4.75;6.75;6.0;1.5;1.75;0.0;0.5;0.5;1.75;2.5;2.5;1.5;2.0;0.5;1.25;-0.212402;0.030273;0.971191;-2.03;1.61;-0.28;402.0;-0.131525;-0.074689;5.5;5.5;6.75;5.25;2.5;1.75;0.0;0.5;0.0;1.5;2.25;2.25;1.25;3.75;0.25;1.25;-0.242188;0.02002;0.98291;-0.42;-1.82;0.21;410.0;-0.133037;-0.061908
3.51;5.5;5.0;6.5;6.0;1.5;1.75;0.0;0.75;0.5;1.5;2.75;2.5;1.25;1.5;0.5;1.25;-0.209473;0.025879;0.970703;-2.03;1.54;-0.28;401.0;-0.140329;-0.079932;5.5;5.5;6.75;5.25;2.0;1.75;0.0;0.5;0.0;1.5;2.25;2.25;1.25;3.75;0.0;1.25;-0.240234;0.017578;0.984375;-0.28;-1.75;0.14;402.0;-0.136684;-0.06346
3.52;5.5;5.25;6.25;6.25;1.25;1.75;0.0;0.5;0.5;1.5;2.5;2.5;1.5;1.75;0.5;1.5;-0.211426;0.035156;0.974121;-1.96;1.47;-0.21;400.0;-0.139451;-0.08186;5.25;5.5;6.5;5.25;2.5;1.75;0.0;0.5;0.0;1.5;2.25;2.25;1.25;3.5;0.0;1.25;-0.242676;0.019043;0.980469;-0.42;-1.82;0.28;400.0;-0.136827;-0.065213
3.53;5.5;5.5;6.5;6.0;1.75;1.75;0.0;0.5;0.5;1.5;2.5;2.75;1.75;1.75;0.5;1.5;-0.202148;0.030762;0.977051;-2.03;1.68;-0.21;413.0;-0.136832;-0.081677;5.25;5.25;6.5;5.25;2.5;1.5;0.0;0.75;0.25;1.5;2.25;2.25;1.25;3.5;0.25;1.5;-0.240234;0.01709;0.987305;-0.35;-1.82;0.21;406.0;-0.1256;-0.064514
3.54;5.25;5.0;6.5;6.0;1.5;1.5;0.0;0.5;0.5;1.75;2.5;2.75;2.0;2.5;0.5;1.25;-0.208984;0.033203;0.976074;-1.89;1.54;-0.35;410.0;-0.121054;-0.077894;5.25;5.5;7.0;5.25;2.5;1.75;0.0;0.75;0.0;1.25;2.25;2.25;1.25;3.5;0.25;1.25;-0.242676;0.019043;0.980957;-0.28;-1.68;0.28;409.0;-0.136322;-0.067073
3.55;5.25;5.0;6.5;6.0;1.5;1.75;0.0;0.5;0.5;1.75;2.75;2.5;1.75;2.25;0.5;1.25;-0.208496;0.029297;0.975586;-1.89;1.61;-0.21;408.0;-0.125491;-0.077327;5.5;5.25;6.75;5.5;2.75;1.75;0.0;0.75;0.0;1.25;2.25;2.75;1.25;3.75;0.25;1.25;-0.243164;0.021484;0.984375;-0.35;-1.75;0.14;419.0;-0.129363;-0.068307
3.56;5.5;5.25;6.5;6.0;1.5;1.75;0.0;0.5;0.5;1.75;2.75;2.5;1.75;1.75;0.5;1.5;-0.203613;0.029785;0.97168;-2.03;1.54;-0.28;410.0;-0.132853;-0.080081;5.25;5.25;6.5;5.5;2.75;1.75;0.0;0.75;0.0;1.5;2.25;2.75;1.25;3.75;0.25;1.25;-0.243164;0.013184;0.979492;-0.35;-1.68;0.14;417.0;-0.124442;-0.069638
3.57;5.25;5.0;6.5;6.0;1.25;1.75;0.0;0.5;0.75;2.0;2.5;2.5;1.5;1.75;0.5;1.25;-0.208496;0.031738;0.973633;-1.96;1.68;-0.28;402.0;-0.129592;-0.074879;5.25;5.0;6.75;5.25;2.5;1.75;0.0;0.5;0.0;1.5;2.25;2.25;1.25;3.75;0.25;1.25;-0.240723;0.019043;0.98291;-0.35;-1.68;0.21;403.0;-0.128054;-0.061813
3.58;5.25;5.0;6.5;6.0;1.75;1.75;0.0;0.5;0.5;2.0;2.5;2.5;1.75;1.75;0.5;1.5;-0.209473;0.026367;0.979004;-1.89;1.68;-0.28;408.0;-0.129408;-0.078695;5.25;5.0;6.5;5.0;2.5;1.75;0.0;0.5;0.25;1.5;2.25;2.25;1.5;4.0;0.5;1.25;-0.241699;0.015625;0.982422;-0.28;-1.75;0.14;407.0;-0.11508;-0.060056
3.59;5.75;4.75;6.5;5.75;1.75;1.75;0.0;0.5;0.5;1.75;2.5;2.5;1.75;2.25;0.5;1.5;-0.209473;0.028809;0.978027;-1.96;1.61;-0.21;410.0;-0.126909;-0.073098;5.25;4.75;6.5;5.25;2.5;1.5;0.0;0.5;0.0;1.0;2.5;2.25;1.5;3.75;0.25;1.25;-0.240234;0.020996;0.990723;-0.42;-1.75;0.28;394.0;-0.126105;-0.06503
3.6;5.5;5.0;6.25;6.0;1.5;1.75;0.0;0.75;0.25;1.5;2.5;2.5;1.75;0.75;0.75;1.25;-0.208008;0.030273;0.980957;-1.96;1.68;-0.35;393.0;-0.147081;-0.092246;5.25;4.75;6.0;5.0;2.5;1.75;0.0;0.75;0.0;1.25;2.25;2.25;1.25;4.0;0.0;1.5;-0.246094;0.018555;0.984863;-0.42;-1.61;0.21;391.0;-0.122581;-0.066769
3.61;5.25;5.25;6.5;6.0;1.25;1.75;0.0;0.5;0.25;1.75;2.5;2.75;1.75;1.75;0.5;1.25;-0.204102;0.031738;0.969727;-1.82;1.68;-0.28;400.0;-0.13611;-0.085561;5.25;5.0;6.0;4.75;2.25;1.75;0.0;0.75;0.0;1.25;2.25;2.25;1.25;4.0;0.0;1.0;-0.242676;0.018555;0.987305;-0.35;-1.68;0.21;385.0;-0.126553;-0.065409
3.62;6.0;4.75;6.5;6.0;1.25;1.5;0.0;0.5;0.5;1.75;2.5;2.5;1.75;2.0;0.5;1.5;-0.208496;0.03125;0.972656;-1.96;1.82;-0.35;405.0;-0.132453;-0.074762;5.25;5.0;6.5;5.0;2.5;1.5;0.0;0.5;0.0;1.25;2.25;2.25;1.0;4.0;0.25;1.5;-0.239258;0.023438;0.989258;-0.35;-1.68;0.14;393.0;-0.125258;-0.058489
3.63;5.75;5.0;6.25;6.0;1.5;1.75;0.0;0.5;0.5;1.75;2.5;2.5;1.75;2.25;0.5;1.25;-0.212402;0.030273;0.977051;-1.96;1.68;-0.28;408.0;-0.130311;-0.075858;5.25;5.25;6.5;5.0;2.5;1.75;0.0;0.5;0.25;1.5;2.5;2.75;1.25;4.25;0.25;1.5;-0.241699;0.019043;0.986816;-0.35;-1.82;0.28;416.0;-0.111036;-0.061362
3.64;5.5;5.0;6.25;6.0;1.5;1.75;0.0;0.5;0.25;1.75;2.75;2.75;1.75;2.25;0.5;1.25;-0.206055;0.023926;0.975098;-2.03;1.68;-0.21;407.0;-0.127201;-0.081523;5.0;5.0;6.0;5.0;2.5;1.75;0.0;0.75;0.0;1.75;2.25;2.25;1.25;3.75;0.25;1.25;-0.242676;0.019531;0.981934;-0.28;-1.75;0.21;395.0;-0.118696;-0.067349
3.65;5.5;5.0;6.5;6.0;1.5;1.75;0.0;0.5;0.25;1.25;2.5;2.5;1.75;2.25;0.5;1.25;-0.206543;0.027832;0.972656;-1.75;1.82;-0.28;400.0;-0.137477;-0.080585;5.0;4.75;6.0;4.75;2.25;1.75;0.0;0.5;0.0;1.25;2.25;2.25;1.25;4.0;0.0;1.5;-0.239746;0.016602;0.989258;-0.35;-1.61;0.14;379.0;-0.12056;-0.064491
3.66;5.25;5.0;6.5;6.0;1.5;1.75;0.0;0.75;0.25;1.5;2.75;2.5;1.75;2.25;0.5;1.25;-0.208008;0.02832;0.978027;-1.82;1.75;-0.28;406.0;-0.12985;-0.08401;5.0;4.75;6.0;5.0;2.5;1.75;0.0;0.5;0.25;1.25;2.25;2.25;1.25;4.0;0.25;1.5;-0.242676;0.021973;0.986816;-0.35;-1.68;0.28;391.0;-0.115053;-0.062014
3.67;5.25;5.0;6.5;6.0;1.5;1.75;0.0;0.75;0.25;2.0;2.75;2.5;2.0;2.0;0.5;1.25;-0.205566;0.030762;0.978027;-1.96;1.82;-0.21;411.0;-0.1264;-0.085483;5.25;4.75;6.0;5.0;2.5;1.75;0.0;0.75;0.25;1.5;2.5;2.25;1.25;4.25;0.25;1.5;-0.239746;0.022949;0.984375;-0.35;-1.54;0.14;404.0;-0.108661;-0.062301
3.68;5.25;5.0;6.25;6.0;1.5;1.75;0.0;0.5;0.5;1.75;2.5;2.75;2.0;2.0;0.5;1.25;-0.210449;0.02832;0.977539;-1.96;1.75;-0.28;405.0;-0.125872;-0.083036;5.0;4.75;6.0;4.75;2.5;1.75;0.0;0.5;0.25;1.5;2.25;2.25;1.5;4.25;0.25;1.25;-0.241211;0.019043;0.980957;-0.42;-1.68;0.21;393.0;-0.108723;-0.060081
3.69;5.25;4.5;6.5;6.0;1.5;1.75;0.0;0.5;0.5;1.75;2.5;2.5;2.0;1.75;0.5;1.25;-0.208008;0.027832;0.978027;-1.82;1.61;-0.28;399.0;-0.128576;-0.080857;4.75;4.75;6.0;4.75;2.5;1.75;0.0;0.5;0.25;1.5;2.5;2.25;1.25;4.0;0.25;1.5;-0.245117;0.019043;0.987305;-0.35;-1.68;0.28;391.0;-0.107282;-0.061526
3.7;5.25;5.0;6.25;6.25;1.5;1.75;0.0;0.5;0.5;1.75;2.5;2.5;2.0;2.5;0.5;1.25;-0.20459;0.029297;0.979004;-1.96;1.61;-0.35;410.0;-0.123512;-0.07991;5.0;5.0;6.0;4.75;2.5;1.75;0.0;0.5;0.25;1.5;2.75;2.25;1.25;4.0;0.25;1.5;-0.241211;0.018066;0.98877;-0.49;-1.61;0.28;398.0;-0.108805;-0.061381
3.71;5.5;5.0;6.5;6.0;1.25;1.75;0.0;0.5;0.5;1.5;2.5;2.5;1.75;2.5;0.25;1.5;-0.208984;0.035156;0.975098;-1.96;1.68;-0.35;404.0;-0.130908;-0.077155;5.0;5.0;6.0;4.75;2.5;1.75;0.0;0.5;0.0;1.5;2.75;2.25;1.25;4.0;0.5;1.5;-0.240234;0.019043;0.981445;-0.56;-1.68;0.28;397.0;-0.108394;-0.064282
3.72;5.25;5.0;6.25;5.75;1.5;1.75;0.0;0.5;0.5;1.5;2.5;2.5;1.5;2.0;0.25;1.25;-0.210938;0.030762;0.979492;-1.96;1.89;-0.35;391.0;-0.136303;-0.077389;5.0;5.0;6.0;5.25;2.5;1.75;0.0;0.5;0.0;1.5;2.5;2.25;1.25;3.75;0.5;1.5;-0.241211;0.01709;0.986816;-0.56;-1.75;0.28;398.0;-0.115844;-0.067448
3.73;5.25;5.25;6.5;5.75;1.5;1.75;0.0;0.5;0.5;1.75;2.5;2.5;1.5;2.0;0.5;1.25;-0.209473;0.034668;0.980957;-1.89;1.82;-0.21;401.0;-0.132801;-0.075854;5.0;5.0;6.0;5.0;2.5;1.75;0.0;0.5;0.25;1.5;2.25;2.25;1.0;4.0;0.0;1.25;-0.245117;0.020508;0.990723;-0.56;-1.82;0.28;389.0;-0.121235;-0.058553
3.74;5.25;5.0;6.75;6.0;1.5;1.75;0.0;0.5;0.5;1.75;3.0;2.5;1.75;2.25;0.5;1.25;-0.209473;0.026367;0.975098;-1.89;1.96;-0.21;414.0;-0.124213;-0.076447;5.0;5.0;6.0;5.0;2.5;1.75;0.0;0.75;0.25;1.5;2.5;2.25;1.25;4.0;0.0;1.5;-0.240234;0.017578;0.978516;-0.49;-1.82;0.28;399.0;-0.114707;-0.065157
3.75;5.5;5.0;6.25;6.25;1.5;1.75;0.0;0.5;0.5;1.75;2.5;3.0;1.5;2.25;0.5;1.25;-0.20752;0.030762;0.976074;-1.82;2.03;-0.28;411.0;-0.126875;-0.078799;5.25;5.0;6.0;5.0;2.5;1.75;0.0;0.5;0.0;1.25;2.5;2.25;1.25;4.25;0.0;1.5;-0.238281;0.018555;0.986816;-0.42;-1.82;0.35;394.0;-0.120161;-0.063221
3.76;5.25;5.0;6.25;6.0;1.5;1.75;0.0;0.5;0.5;1.75;2.5;2.75;1.5;2.25;0.5;1.5;-0.208008;0.032227;0.972656;-2.03;1.96;-0.14;405.0;-0.124568;-0.078385;5.0;5.0;6.5;5.0;2.5;1.75;0.0;0.75;0.0;1.5;2.5;2.25;1.25;4.25;0.0;1.75;-0.249023;0.020996;0.984375;-0.63;-1.82;0.35;405.0;-0.115416;-0.065329
3.77;5.25;5.25;6.25;5.75;1.5;1.75;0.0;0.5;0.25;1.75;2.5;2.5;1.75;1.75;0.5;1.5;-0.20166;0.029297;0.979492;-1.82;1.96;-0.21;396.0;-0.134666;-0.084195;4.75;5.25;6.75;5.0;2.5;1.75;0.0;0.75;0.0;1.5;2.75;2.25;1.25;4.25;0.25;1.5;-0.241211;0.018066;0.984863;-0.42;-1.75;0.21;412.0;-0.112368;-0.06555
3.78;5.25;5.0;6.25;6.0;1.5;1.75;0.0;0.5;0.25;1.75;2.5;2.5;1.5;1.75;0.5;1.5;-0.207031;0.026855;0.975586;-1.96;1.96;-0.21;394.0;-0.135752;-0.082622;5.0;5.25;6.0;5.0;2.5;1.5;0.0;0.75;0.25;1.25;2.25;2.25;1.0;4.0;0.25;1.25;-0.243164;0.021973;0.986816;-0.63;-1.68;0.35;393.0;-0.120551;-0.061895
3.79;5.25;5.0;6.0;6.0;1.5;1.75;0.0;0.5;0.5;1.5;2.75;2.5;1.75;1.75;0.5;1.5;-0.208984;0.025879;0.976562;-1.96;1.96;-0.21;397.0;-0.130026;-0.084135;5.25;5.25;6.0;5.0;2.5;1.75;0.0;0.75;0.25;1.25;2.25;2.25;1.0;4.25;0.25;1.25;-0.243652;0.019531;0.989746;-0.7;-1.61;0.28;400.0;-0.119758;-0.060951
3.8;5.75;5.0;6.5;6.0;1.75;1.75;0.0;0.5;0.0;1.5;2.5;2.5;2.0;1.75;0.5;1.5;-0.213379;0.027344;0.974609;-2.03;1.89;-0.28;404.0;-0.142333;-0.085905;5.0;5.25;6.5;5.0;2.5;1.75;0.0;0.5;0.25;1.5;2.25;2.25;1.25;3.75;0.25;1.25;-0.240723;0.012207;0.983887;-0.63;-1.75;0.35;400.0;-0.122739;-0.060705
3.81;5.75;5.0;6.0;6.0;1.75;1.75;0.0;0.5;0.0;1.5;3.0;2.75;2.0;1.25;0.75;1.25;-0.204102;0.03125;0.977051;-1.96;1.82;-0.28;403.0;-0.137518;-0.092085;5.25;5.0;6.5;5.0;2.5;1.5;0.0;0.5;0.25;1.5;2.25;2.25;1.0;3.75;0.25;1.25;-0.244629;0.022461;0.983887;-0.49;-1.82;0.28;395.0;-0.124261;-0.055324
3.82;5.25;5.0;6.0;6.0;1.75;1.75;0.0;0.5;0.25;1.75;2.5;3.0;1.5;2.0;0.75;1.25;-0.207031;0.03125;0.977539;-1.89;1.68;-0.21;403.0;-0.12551;-0.083462;5.25;5.0;6.5;5.0;2.5;1.75;0.0;0.75;0.25;1.0;2.25;2.25;1.25;3.75;0.25;1.25;-0.247559;0.016602;0.984375;-0.49;-1.82;0.42;399.0;-0.126543;-0.063779
3.83;5.75;5.0;6.25;6.25;1.25;1.75;0.0;0.75;0.25;1.75;2.5;2.5;1.75;2.0;1.0;1.25;-0.206055;0.031738;0.98291;-1.96;1.75;-0.21;412.0;-0.129309;-0.084861;5.5;5.0;6.5;5.25;2.5;1.75;0.0;0.75;0.25;1.0;2.25;2.25;1.25;4.0;0.25;1.5;-0.245117;0.019531;0.98291;-0.63;-1.68;0.28;408.0;-0.124944;-0.063339
3.84;5.5;5.25;6.25;5.75;1.25;1.75;0.0;0.5;0.5;1.75;2.5;2.75;2.0;1.75;0.75;1.25;-0.208496;0.03125;0.974121;-1.96;1.68;-0.28;405.0;-0.127572;-0.083664;5.0;5.0;6.5;5.25;2.5;1.75;0.0;0.75;0.25;1.5;2.25;2.25;1.25;4.0;0.0;1.0;-0.239258;0.019531;0.987305;-0.56;-1.75;0.35;402.0;-0.123402;-0.062095
3.85;5.5;5.25;6.25;6.0;1.5;1.75;0.0;0.5;0.5;1.75;2.5;2.75;1.5;1.75;0.75;1.25;-0.206543;0.03125;0.977539;-2.03;1.96;-0.28;407.0;-0.131801;-0.07961;5.0;5.25;6.75;5.25;2.75;1.75;0.0;0.75;0.25;1.5;2.25;2.25;1.25;4.0;0.0;1.25;-0.243164;0.010742;0.984375;-0.49;-1.82;0.35;412.0;-0.124421;-0.061659
3.86;5.75;5.25;6.5;6.0;1.5;1.75;0.0;0.5;0.25;1.75;2.5;2.75;1.5;1.75;0.5;1.25;-0.209473;0.032227;0.978516;-2.03;1.82;-0.28;406.0;-0.141072;-0.080084;5.25;5.25;6.5;5.0;2.5;1.75;0.0;0.5;0.25;1.5;2.5;2.25;1.0;3.75;0.0;1.0;-0.241699;0.019531;0.987793;-0.56;-1.82;0.42;399.0;-0.128999;-0.056788
3.87;5.25;4.75;6.25;6.0;1.5;1.75;0.0;0.5;0.25;1.75;2.5;2.5;1.5;2.25;0.5;1.5;-0.208984;0.032227;0.974609;-2.03;1.96;-0.28;396.0;-0.128231;-0.079342;5.5;4.75;6.0;5.0;2.5;1.75;0.0;0.5;0.25;1.5;2.5;2.25;1.0;4.0;0.25;1.0;-0.242188;0.019531;0.984863;-0.63;-1.68;0.21;396.0;-0.119051;-0.055401
3.88;5.5;5.0;6.25;6.0;1.25;1.75;0.0;0.5;0.25;2.0;2.5;2.5;1.75;2.0;0.5;1.5;-0.208984;0.025879;0.969238;-1.89;1.75;-0.21;401.0;-0.130554;-0.082088;5.5;5.0;6.75;5.25;2.5;1.75;0.0;0.75;0.25;1.0;2.25;2.25;1.25;3.75;0.5;1.0;-0.23584;0.019043;0.982422;-0.56;-1.68;0.28;408.0;-0.128509;-0.062007
3.89;5.75;5.0;6.25;6.0;1.5;1.75;0.0;0.5;0.25;1.75;2.75;2.5;1.75;2.0;0.5;1.5;-0.208496;0.029297;0.968262;-2.03;1.96;-0.28;407.0;-0.132332;-0.081056;5.25;5.25;6.75;5.5;2.5;1.75;0.0;0.75;0.25;1.25;2.25;2.25;1.25;3.75;0.25;1.25;-0.241211;0.013184;0.979004;-0.49;-1.89;0.35;412.0;-0.128933;-0.064653
3.9;5.25;5.0;6.25;5.75;1.25;1.75;0.0;0.5;0.5;1.75;2.5;2.5;2.0;1.75;0.5;1.25;-0.208496;0.029297;0.976562;-1.96;1.96;-0.28;395.0;-0.129887;-0.08304;5.5;5.75;6.75;5.25;2.5;1.5;0.0;0.75;0.25;1.5;2.25;2.25;1.25;3.75;0.25;1.25;-0.242188;0.021973;0.984375;-0.49;-1.75;0.28;416.0;-0.130317;-0.061479
3.91;5.25;5.0;6.25;6.0;1.25;1.75;0.0;0.5;0.5;1.5;2.5;2.75;1.75;1.75;0.75;1.25;-0.208496;0.026855;0.977539;-1.89;1.82;-0.28;398.0;-0.129229;-0.084318;5.5;5.5;6.75;5.25;2.5;1.75;0.0;0.75;0.25;1.5;2.25;2.25;1.0;3.75;0.0;1.5;-0.241699;0.02002;0.983887;-0.42;-1.75;0.28;413.0;-0.132246;-0.060888
3.92;5.25;4.75;6.5;6.0;1.25;1.75;0.0;0.5;0.5;1.75;2.5;2.75;1.75;2.5;0.75;1.25;-0.208984;0.027344;0.982422;-1.96;1.75;-0.21;408.0;-0.1177;-0.077623;5.5;5.5;6.75;5.25;2.5;1.75;0.0;0.75;0.25;1.0;2.25;2.0;1.25;4.25;0.25;1.5;-0.244629;0.02002;0.985352;-0.56;-1.68;0.42;415.0;-0.128492;-0.060739
3.93;5.5;4.75;6.5;5.75;1.25;1.5;0.0;0.5;0.5;1.25;2.5;2.5;1.5;2.25;0.75;1.5;-0.208496;0.03418;0.980957;-1.96;1.82;-0.21;394.0;-0.127852;-0.074518;5.5;5.25;6.5;5.25;2.5;1.5;0.0;0.5;0.25;1.0;2.25;2.25;1.5;3.75;0.5;1.25;-0.23584;0.020508;0.991699;-0.49;-1.75;0.21;405.0;-0.1269;-0.062109
3.94;5.25;5.0;6.25;6.0;1.25;1.5;0.0;0.5;0.25;1.25;2.5;2.5;1.75;2.25;0.5;1.25;-0.208984;0.026367;0.976074;-2.03;1.96;-0.28;389.0;-0.134772;-0.082721;5.5;5.25;6.75;5.25;2.5;1.5;0.0;0.75;0.25;1.25;2.5;2.25;1.0;3.5;0.25;1.5;-0.239258;0.018066;0.983887;-0.49;-1.68;0.28;409.0;-0.129953;-0.061409
3.95;5.25;5.0;6.5;5.75;1.25;1.75;0.0;0.5;0.5;1.25;2.5;2.5;2.0;2.25;0.5;1.25;-0.209473;0.029297;0.975098;-1.89;1.75;-0.21;397.0;-0.129873;-0.080958;5.5;5.25;6.75;5.25;2.5;1.5;0.0;0.5;0.25;1.0;2.75;2.25;1.0;3.75;0.0;1.25;-0.240234;0.02002;0.990723;-0.42;-1.75;0.21;403.0;-0.133437;-0.057205
3.96;5.25;5.0;6.25;6.0;1.25;1.75;0.0;0.5;0.5;1.5;2.5;2.5;1.5;2.5;0.75;1.25;-0.202637;0.030273;0.974121;-2.03;1.82;-0.21;400.0;-0.124423;-0.076701;5.5;5.25;6.75;5.25;2.5;1.75;0.0;0.5;0.25;1.5;2.5;2.25;1.25;3.75;0.25;1.25;-0.244629;0.023926;0.979004;-0.56;-1.68;0.28;413.0;-0.126101;-0.059008
3.97;5.5;5.0;6.25;5.75;1.25;1.75;0.0;0.5;0.5;1.5;2.5;2.25;1.75;2.0;0.75;1.25;-0.209961;0.02832;0.970215;-1.89;1.75;-0.21;395.0;-0.131514;-0.077847;5.25;5.25;6.75;5.25;2.75;1.75;0.0;0.75;0.25;1.5;2.25;2.25;1.5;4.0;0.5;1.25;-0.238281;0.012695;0.983398;-0.56;-1.75;0.28;422.0;-0.117984;-0.062923
3.98;5.25;5.0;6.0;5.75;1.5;1.5;0.0;0.5;0.5;1.75;2.5;2.5;1.75;2.0;0.75;1.25;-0.212402;0.030762;0.980469;-1.89;1.75;-0.21;395.0;-0.123883;-0.078461;5.5;5.25;7.0;5.25;2.5;1.75;0.0;0.75;0.25;1.5;2.25;2.0;1.0;3.75;0.5;1.25;-0.240234;0.018555;0.990723;-0.63;-1.82;0.28;415.0;-0.128502;-0.057245
3.99;5.25;5.0;6.25;6.0;1.5;1.5;0.0;0.5;0.5;1.75;2.5;2.75;2.0;2.0;0.75;1.25;-0.209961;0.030273;0.979492;-1.96;1.82;-0.21;405.0;-0.122235;-0.081756;5.5;5.25;6.75;5.25;2.5;1.75;0.0;0.5;0.25;1.5;2.25;2.25;1.0;3.75;0.5;1.25;-0.247559;0.016113;0.985352;-0.56;-1.89;0.28;411.0;-0.126485;-0.056673
4.0;5.25;5.0;6.25;5.75;1.25;1.5;0.0;0.5;0.5;1.75;2.75;3.0;2.0;2.0;0.75;1.5;-0.204102;0.029297;0.980957;-2.03;1.82;-0.28;407.0;-0.115099;-0.084138;5.5;5.25;6.5;5.25;2.5;1.75;0.0;0.5;0.25;1.25;2.25;2.0;1.25;3.75;0.25;1.25;-0.240234;0.018555;0.986816;-0.56;-1.96;0.35;403.0;-0.131982;-0.058909
4.01;5.25;5.25;6.5;5.75;1.5;1.75;0.0;0.5;0.5;1.75;2.75;2.5;1.25;2.25;0.75;1.25;-0.208984;0.032715;0.976074;-1.82;1.68;-0.35;406.0;-0.125743;-0.072766;5.5;5.25;6.75;5.25;2.75;1.75;0.0;0.5;0.25;1.25;2.25;2.0;1.25;3.75;0.25;1.25;-0.241211;0.015137;0.980469;-0.56;-2.03;0.28;408.0;-0.132849;-0.057088
4.02;5.25;5.0;6.25;6.0;1.25;1.75;0.0;0.5;0.25;1.5;2.5;2.5;1.75;1.25;1.0;1.25;-0.206543;0.029297;0.967773;-2.03;1.68;-0.35;391.0;-0.137024;-0.088733;5.25;5.25;6.75;5.25;2.5;1.75;0.0;0.75;0.25;1.25;2.25;2.25;1.0;3.75;0.25;1.25;-0.245117;0.016602;0.98584;-0.42;-1.82;0.28;407.0;-0.129452;-0.061462
4.03;5.25;4.75;6.25;5.75;1.25;1.75;0.0;0.5;0.5;1.5;2.5;3.0;1.75;2.0;1.0;1.5;-0.206055;0.028809;0.972656;-2.03;1.61;-0.35;402.0;-0.116256;-0.08365;5.25;5.25;7.0;5.25;2.5;1.75;0.0;0.75;0.0;1.25;2.25;2.0;1.25;4.0;0.25;1.25;-0.242676;0.019043;0.980469;-0.49;-1.89;0.21;408.0;-0.131245;-0.062486
4.04;5.75;5.0;6.0;6.0;1.25;1.75;0.0;0.5;0.25;1.5;2.5;3.0;1.75;2.25;0.75;1.5;-0.210938;0.030273;0.980469;-1.96;1.47;-0.21;406.0;-0.125375;-0.085331;5.25;5.25;6.5;5.25;2.75;1.75;0.0;0.75;0.0;1.25;2.25;2.0;1.25;4.25;0.5;1.25;-0.244141;0.024902;0.987793;-0.49;-1.75;0.28;410.0;-0.123101;-0.062602
4.05;5.5;5.0;6.0;5.25;1.25;1.75;0.0;0.75;0.5;1.75;2.5;2.5;2.0;2.25;0.5;1.25;-0.208496;0.033691;0.977051;-2.1;1.47;-0.35;398.0;-0.121605;-0.081208;5.25;5.25;6.5;5.25;2.5;1.75;0.0;0.75;0.0;1.25;2.25;2.25;1.25;4.0;0.25;1.25;-0.243164;0.018066;0.987305;-0.49;-1.75;0.35;405.0;-0.127185;-0.066092
4.06;5.25;5.0;6.0;5.25;1.25;1.75;0.0;0.5;0.5;1.5;2.75;2.25;2.0;2.25;0.5;1.25;-0.208008;0.030273;0.974121;-2.1;1.54;-0.28;389.0;-0.123122;-0.079182;5.25;5.25;6.75;5.25;2.5;1.75;0.0;0.75;0.0;1.5;2.25;2.25;1.25;4.25;0.25;1.25;-0.238281;0.02002;0.991211;-0.42;-1.75;0.35;413.0;-0.123022;-0.062967
4.07;5.25;5.0;6.0;5.75;1.5;1.75;0.0;0.5;0.5;1.25;2.5;2.5;1.75;2.25;0.5;1.25;-0.205566;0.02832;0.972656;-2.03;1.68;-0.35;392.0;-0.129564;-0.080282;5.5;5.25;6.75;5.0;2.5;1.75;0.0;0.5;0.0;1.5;2.25;2.25;1.25;3.75;0.5;1.25;-0.246094;0.020508;0.989258;-0.42;-1.82;0.35;407.0;-0.126902;-0.060353
4.08;5.25;4.75;6.25;6.0;1.5;1.75;0.0;0.75;0.5;1.5;2.5;3.0;2.0;2.25;0.5;1.25;-0.212891;0.029297;0.972656;-2.03;1.54;-0.28;409.0;-0.120551;-0.086386;5.5;5.25;6.5;5.0;2.75;1.75;0.0;0.5;0.25;1.25;2.5;2.25;1.25;3.75;0.5;1.5;-0.243164;0.018555;0.984863;-0.42;-1.82;0.14;412.0;-0.121377;-0.05987
4.09;5.25;4.75;6.25;5.75;1.5;1.5;0.0;0.5;0.5;1.0;2.5;2.75;1.75;2.0;0.5;1.25;-0.204102;0.029297;0.973633;-2.03;1.68;-0.35;388.0;-0.131836;-0.081047;5.5;5.25;6.75;5.25;2.5;1.75;0.0;0.5;0.25;1.25;2.25;2.25;1.0;4.0;0.5;1.5;-0.244141;0.015625;0.985352;-0.35;-1.82;0.14;412.0;-0.124409;-0.05707
4.1;5.25;4.75;6.25;5.75;1.25;1.5;0.0;0.5;0.5;1.5;2.5;3.0;1.5;2.25;0.5;1.25;-0.206055;0.029785;0.976562;-2.1;1.82;-0.35;393.0;-0.12338;-0.078063;5.25;5.25;6.75;5.25;2.5;1.75;0.0;0.5;0.25;1.5;2.25;2.25;1.0;3.75;0.5;1.25;-0.243164;0.020508;0.98584;-0.35;-1.75;0.14;409.0;-0.124732;-0.057721
