Time;left pressure 1[N/cm²];left pressure 2[N/cm²];left pressure 3[N/cm²];left pressure 4[N/cm²];left pressure 5[N/cm²];left pressure 6[N/cm²];left pressure 7[N/cm²];left pressure 8[N/cm²];left pressure 9[N/cm²];left pressure 10[N/cm²];left pressure 11[N/cm²];left pressure 12[N/cm²];left pressure 13[N/cm²];left pressure 14[N/cm²];left pressure 15[N/cm²];left pressure 16[N/cm²];left acceleration X[g];left acceleration Y[g];left acceleration Z[g];left angular X[dps];left angular Y[dps];left angular Z[dps];left total force[N];left center of pressure X[-0.5...+0.5];left center of pressure Y[-0.5...+0.5];right pressure 1[N/cm²];right pressure 2[N/cm²];right pressure 3[N/cm²];right pressure 4[N/cm²];right pressure 5[N/cm²];right pressure 6[N/cm²];right pressure 7[N/cm²];right pressure 8[N/cm²];right pressure 9[N/cm²];right pressure 10[N/cm²];right pressure 11[N/cm²];right pressure 12[N/cm²];right pressure 13[N/cm²];right pressure 14[N/cm²];right pressure 15[N/cm²];right pressure 16[N/cm²];right acceleration X[g];right acceleration Y[g];right acceleration Z[g];right angular X[dps];right angular Y[dps];right angular Z[dps];right total force[N];right center of pressure X[-0.5...+0.5];right center of pressure Y[-0.5...+0.5]
0.0;9.5;13.75;3.25;9.0;0.25;0.0;0.0;0.0;0.75;0.0;0.0;0.0;0.0;0.5;0.0;4.5;-0.192383;-0.017578;0.979492;4.41;4.55;0.14;480.0;-0.293732;-0.083106;8.5;6.75;4.5;3.75;0.75;0.25;0.0;0.0;0.25;0.25;0.0;0.25;0.0;3.0;0.0;0.25;-0.208984;0.02002;0.980469;-1.68;-3.15;1.33;344.0;-0.260779;-0.004853
0.01;9.25;13.75;3.25;9.75;0.25;0.0;0.0;0.0;0.5;0.0;0.0;0.0;0.0;0.75;0.0;2.5;-0.208008;-0.011719;0.996582;4.83;4.83;0.14;473.0;-0.311546;-0.08258;9.0;6.75;5.0;4.25;1.0;0.25;0.0;0.0;0.25;0.25;0.0;0.0;0.0;2.75;0.0;0.25;-0.212891;0.026367;0.984863;-1.89;-3.36;1.26;361.0;-0.271384;-0.003304
0.02;9.5;13.0;3.0;10.25;0.25;0.0;0.0;0.0;0.25;0.0;0.0;0.0;0.0;1.0;0.0;1.0;-0.213379;0.003418;0.995117;4.48;4.97;0.14;460.0;-0.325284;-0.0798;10.0;7.0;5.0;4.25;0.75;0.25;0.0;0.0;0.25;0.5;0.0;0.0;0.0;2.75;0.0;0.25;-0.214844;0.021484;0.990723;-1.96;-3.08;1.4;376.0;-0.273841;-0.000814
0.03;9.5;13.0;3.0;9.5;0.5;0.25;0.0;0.0;0.0;0.25;0.0;0.0;0.0;0.5;0.0;0.25;-0.196777;-0.015625;0.998047;3.01;5.04;0.0;445.0;-0.340399;-0.079461;10.0;6.5;5.0;3.75;0.75;0.0;0.0;0.0;0.25;0.25;0.0;0.0;0.0;3.0;0.0;0.25;-0.215332;0.022461;0.987305;-1.96;-3.01;1.33;360.0;-0.272109;0.008954
0.04;9.5;12.75;3.0;9.25;0.25;0.0;0.0;0.0;0.25;0.0;0.0;0.0;0.0;0.25;0.0;0.25;-0.193359;-0.01123;0.999512;2.03;4.97;-0.21;431.0;-0.346566;-0.076744;10.0;6.5;5.0;4.5;1.0;0.25;0.0;0.0;0.25;0.25;0.0;0.0;0.0;3.0;0.0;0.25;-0.211914;0.016602;0.983887;-1.96;-3.01;1.4;377.0;-0.270198;0.000866
0.05;9.25;12.5;3.0;8.25;0.25;0.0;0.0;0.0;0.25;0.0;0.0;0.0;0.0;0.5;0.0;0.25;-0.192871;-0.005371;0.998047;-1.12;3.92;-0.56;415.0;-0.342903;-0.071291;8.5;6.5;5.0;4.75;1.0;0.0;0.0;0.0;0.0;0.25;0.0;0.0;0.0;3.25;0.0;0.25;-0.210938;0.020508;0.993164;-1.89;-2.59;1.54;357.0;-0.265426;-0.00608
0.06;8.5;13.0;2.75;7.75;0.25;0.0;0.0;0.0;0.25;0.25;0.0;0.0;0.0;0.5;0.0;0.0;-0.205566;-0.041504;0.997559;-2.73;3.22;-0.91;403.0;-0.342384;-0.073561;8.5;7.25;5.0;4.75;1.0;0.0;0.0;0.0;0.0;0.25;0.0;0.0;0.0;3.25;0.0;0.0;-0.209961;0.020996;0.98291;-1.96;-2.17;1.54;364.0;-0.271654;-0.00836
0.07;8.75;12.75;3.0;7.75;0.25;0.0;0.0;0.0;0.25;0.5;0.0;0.0;0.0;0.25;0.0;0.0;-0.22168;-0.042969;0.967773;-2.52;2.52;-0.77;407.0;-0.341964;-0.070723;9.0;7.25;5.5;4.5;1.0;0.25;0.0;0.0;0.25;0.25;0.0;0.25;0.0;3.5;0.0;0.0;-0.208008;0.025391;0.994629;-2.03;-1.96;1.61;386.0;-0.258747;-0.003439
0.08;9.0;13.0;2.75;6.5;0.25;0.0;0.0;0.0;0.25;0.25;0.0;0.0;0.0;0.0;0.0;0.0;-0.206543;-0.066406;0.978516;-2.17;2.45;-0.63;387.0;-0.355562;-0.067521;8.75;7.5;5.0;4.5;0.75;0.0;0.0;0.0;0.25;0.5;0.0;0.0;0.0;3.5;0.0;0.0;-0.20459;0.020996;0.987305;-2.1;-1.68;1.61;372.0;-0.260495;-0.002421
0.09;9.25;13.25;2.75;6.5;0.25;0.0;0.0;0.0;0.25;0.25;0.0;0.0;0.0;0.0;0.0;0.0;-0.199707;-0.022461;0.992676;-3.01;3.22;-0.7;393.0;-0.356369;-0.066824;8.5;7.5;5.25;4.25;1.0;0.25;0.0;0.0;0.0;0.25;0.0;0.0;0.0;3.5;0.0;0.0;-0.210449;0.026367;0.984863;-2.31;-1.61;1.61;369.0;-0.266644;-0.005861
0.1;8.75;13.0;2.75;6.5;0.25;0.0;0.0;0.0;0.75;0.5;0.0;0.0;0.0;0.25;0.0;0.25;-0.172363;-0.009277;1.0;-3.36;3.15;-0.77;399.0;-0.330783;-0.060603;9.0;7.5;5.0;4.5;1.0;0.25;0.0;0.0;0.0;0.25;0.0;0.0;0.0;3.5;0.0;0.25;-0.212891;0.016602;0.984375;-2.38;-1.47;1.61;377.0;-0.266395;-0.008045
0.11;8.5;13.0;2.75;6.5;0.25;0.0;0.0;0.0;0.75;0.0;0.0;0.0;0.0;0.0;0.0;0.0;-0.193848;-0.041016;0.989258;-3.85;3.85;-0.98;386.0;-0.347181;-0.064476;8.5;7.75;5.25;4.5;1.0;0.0;0.0;0.0;0.25;0.0;0.0;0.0;0.0;3.5;0.0;0.25;-0.213379;0.018555;0.979004;-2.31;-1.54;1.54;374.0;-0.264964;-0.005619
0.12;9.25;12.75;3.0;6.5;0.25;0.0;0.0;0.0;0.5;0.25;0.0;0.0;0.0;0.0;0.0;0.0;-0.194824;-0.021484;0.98291;-4.27;2.66;-0.84;395.0;-0.348684;-0.060735;8.5;7.0;5.5;4.5;1.25;0.25;0.0;0.0;0.25;0.0;0.0;0.0;0.0;3.25;0.0;0.25;-0.208496;0.020508;0.980957;-2.24;-1.54;1.61;373.0;-0.26399;-0.004195
0.13;9.5;12.75;3.0;6.5;0.25;0.0;0.0;0.0;0.25;0.5;0.0;0.0;0.0;0.0;0.0;0.0;-0.180664;-0.01123;0.986328;-2.8;1.12;-0.7;397.0;-0.350463;-0.061738;8.75;8.25;5.75;4.75;1.25;0.25;0.0;0.0;0.25;0.25;0.0;0.0;0.0;3.0;0.0;0.25;-0.209961;0.02002;0.982422;-2.17;-1.82;1.68;397.0;-0.270961;-0.010608
0.14;9.25;12.75;2.5;7.0;0.25;0.0;0.0;0.0;0.5;0.5;0.25;0.0;0.0;0.25;0.0;0.0;-0.187012;-0.032715;0.964844;-2.1;-0.0;-0.63;404.0;-0.335297;-0.063857;8.75;8.0;5.5;4.75;1.0;0.0;0.0;0.0;0.25;0.0;0.0;0.0;0.0;2.75;0.0;0.0;-0.206543;0.021484;0.980469;-2.1;-1.89;1.54;377.0;-0.283742;-0.009298
0.15;8.5;13.0;2.5;7.0;0.25;0.0;0.0;0.0;0.5;0.5;0.0;0.0;0.0;0.5;0.0;0.0;-0.184082;0.001953;0.996582;-1.33;-1.26;-0.49;396.0;-0.333913;-0.066662;9.0;8.25;5.25;4.75;1.5;0.0;0.0;0.0;0.5;0.0;0.0;0.0;0.0;3.0;0.0;0.0;-0.213379;0.024414;0.984375;-1.82;-1.82;1.68;393.0;-0.273254;-0.005093
0.16;8.25;13.25;3.0;7.0;0.25;0.0;0.0;0.0;0.5;0.75;0.0;0.0;0.0;0.5;0.0;0.0;-0.186523;-0.000977;1.001953;-0.91;-1.75;-0.42;406.0;-0.328422;-0.065113;9.0;8.75;5.5;4.75;1.0;0.25;0.0;0.0;0.25;0.25;0.0;0.0;0.0;3.0;0.0;0.0;-0.20166;0.022461;0.97168;-1.68;-2.03;1.54;398.0;-0.27783;-0.012039
0.17;9.0;13.0;2.75;6.5;0.25;0.0;0.0;0.0;0.25;0.75;0.0;0.0;0.0;0.5;0.0;0.25;-0.204102;-0.003906;0.99707;-2.24;-1.05;-0.49;400.0;-0.333686;-0.063366;9.0;9.25;5.5;5.25;1.0;0.25;0.0;0.0;0.0;0.25;0.0;0.0;0.0;3.25;0.0;0.0;-0.206055;0.020508;0.984375;-1.33;-2.1;1.61;408.0;-0.280699;-0.019111
0.18;9.25;12.75;2.5;6.5;0.25;0.0;0.0;0.0;0.25;0.5;0.0;0.0;0.0;1.0;0.0;0.0;-0.19043;-0.015625;0.984863;-1.33;0.14;-0.42;397.0;-0.33202;-0.059497;9.0;9.0;5.5;5.25;1.0;0.25;0.0;0.0;0.25;0.25;0.0;0.0;0.0;3.0;0.0;0.25;-0.209961;0.024902;0.983887;-1.26;-2.1;1.75;409.0;-0.276401;-0.017692
0.19;8.5;12.75;2.75;7.0;0.25;0.0;0.0;0.0;0.25;0.5;0.0;0.0;0.0;1.0;0.0;0.0;-0.199707;-0.034668;0.977051;-0.84;1.12;-0.07;398.0;-0.329063;-0.064905;9.0;9.0;5.75;5.25;1.25;0.25;0.0;0.0;0.0;0.25;0.0;0.0;0.0;3.0;0.0;0.0;-0.20752;0.022461;0.98291;-1.26;-1.96;1.82;410.0;-0.282702;-0.01781
0.2;8.5;12.5;2.75;7.25;0.25;0.0;0.0;0.0;0.5;0.75;0.0;0.0;0.0;1.25;0.0;0.25;-0.194824;-0.013184;0.984863;-1.12;1.19;-0.28;410.0;-0.310927;-0.060768;8.75;9.5;5.5;5.0;1.0;0.25;0.0;0.0;0.0;0.25;0.0;0.0;0.0;3.0;0.0;0.25;-0.210938;0.022949;0.981934;-1.4;-2.03;1.96;404.0;-0.282418;-0.021839
0.21;8.5;12.25;2.75;7.25;0.25;0.0;0.0;0.0;0.5;1.0;0.0;0.0;0.0;1.25;0.0;0.25;-0.197754;-0.016602;0.994141;-2.03;1.33;-0.42;410.0;-0.306038;-0.059114;9.0;9.0;5.5;5.25;1.0;0.25;0.0;0.0;0.25;0.25;0.0;0.0;0.0;3.25;0.0;0.25;-0.209961;0.024902;0.983887;-1.47;-1.89;1.68;411.0;-0.272153;-0.016487
0.22;8.5;12.25;2.75;6.5;0.25;0.0;0.0;0.0;0.5;0.75;0.0;0.0;0.0;1.5;0.0;0.25;-0.195312;-0.025391;0.975586;-2.45;1.33;-0.28;400.0;-0.306185;-0.054486;8.5;9.25;5.5;5.25;1.0;0.0;0.0;0.0;0.25;0.0;0.0;0.0;0.0;3.25;0.0;0.25;-0.209961;0.020996;0.985352;-1.47;-2.03;1.4;401.0;-0.276065;-0.017994
0.23;8.25;12.25;2.5;6.5;0.25;0.0;0.0;0.0;0.75;0.5;0.0;0.0;0.0;1.5;0.0;0.25;-0.20166;-0.022949;0.990723;-1.54;1.4;-0.14;394.0;-0.30449;-0.054656;8.75;9.25;5.75;5.0;1.0;0.0;0.0;0.0;0.0;0.0;0.0;0.0;0.0;3.25;0.0;0.25;-0.212402;0.019043;0.984375;-1.68;-1.96;1.47;401.0;-0.282069;-0.01728
0.24;7.75;12.25;2.5;6.5;0.5;0.0;0.0;0.0;0.5;0.75;0.0;0.0;0.0;1.75;0.0;0.25;-0.201172;-0.015137;0.98584;-1.61;1.4;-0.07;393.0;-0.298086;-0.057104;9.0;9.25;5.75;5.0;1.25;0.0;0.0;0.0;0.0;0.25;0.0;0.0;0.0;3.5;0.0;0.25;-0.206543;0.019043;0.980469;-1.61;-1.89;1.4;413.0;-0.273528;-0.013898
0.25;8.75;12.25;2.5;6.5;0.25;0.0;0.0;0.0;0.25;0.75;0.0;0.0;0.0;1.0;0.0;0.25;-0.200684;-0.015625;0.991699;-1.96;1.96;-0.28;391.0;-0.32227;-0.060728;9.0;10.0;5.75;5.0;1.0;0.0;0.0;0.0;0.25;0.25;0.0;0.0;0.0;3.25;0.0;0.25;-0.211426;0.018066;0.98877;-1.61;-1.61;1.4;419.0;-0.276721;-0.015965
0.26;7.75;12.25;2.5;6.5;0.25;0.0;0.0;0.0;0.25;0.75;0.0;0.0;0.0;1.0;0.0;0.0;-0.20166;-0.018066;0.988281;-2.24;1.82;-0.21;377.0;-0.322531;-0.065222;8.75;9.5;5.75;5.0;1.0;0.25;0.0;0.0;0.25;0.25;0.0;0.0;0.0;3.0;0.0;0.25;-0.205566;0.019043;0.98291;-1.61;-1.19;1.47;411.0;-0.277151;-0.018117
0.27;8.25;12.25;2.25;6.5;0.25;0.0;0.0;0.0;0.5;1.0;0.0;0.0;0.0;1.5;0.0;0.25;-0.193848;-0.013672;0.981445;-1.89;2.17;-0.07;393.0;-0.30179;-0.057278;8.75;9.25;5.5;5.0;1.0;0.0;0.0;0.0;0.25;0.25;0.0;0.0;0.0;3.25;0.0;0.25;-0.207031;0.024902;0.97998;-1.82;-1.26;1.26;404.0;-0.272976;-0.014713
0.28;8.5;12.0;2.25;6.5;0.25;0.0;0.0;0.0;0.25;0.75;0.0;0.0;0.0;1.0;0.0;0.25;-0.203125;-0.01416;0.987793;-1.33;2.03;-0.14;381.0;-0.321425;-0.062655;8.75;9.25;5.25;5.0;1.0;0.0;0.0;0.0;0.25;0.25;0.0;0.0;0.0;3.25;0.0;0.0;-0.206055;0.024414;0.983887;-1.96;-1.19;1.19;399.0;-0.275602;-0.014373
0.29;9.5;12.0;2.25;7.0;0.25;0.0;0.0;0.0;0.25;0.5;0.0;0.0;0.0;1.0;0.0;0.0;-0.193848;-0.012207;0.989258;-0.77;1.89;0.14;396.0;-0.33063;-0.059946;9.0;9.25;5.5;4.75;1.0;0.25;0.0;0.0;0.25;0.25;0.0;0.0;0.0;3.5;0.0;0.0;-0.212402;0.020508;0.985352;-2.17;-1.26;1.12;408.0;-0.271135;-0.011767
0.3;8.75;12.25;2.25;6.5;0.25;0.0;0.0;0.0;0.25;0.5;0.0;0.0;0.0;1.5;0.0;0.0;-0.189941;-0.011719;0.979004;-0.28;1.89;0.07;388.0;-0.320507;-0.058847;9.0;9.25;5.5;5.0;1.0;0.25;0.0;0.0;0.25;0.0;0.0;0.0;0.0;3.25;0.0;0.0;-0.213379;0.020996;0.980957;-2.17;-1.33;1.12;406.0;-0.279455;-0.015253
0.31;8.25;12.5;2.5;6.5;0.25;0.0;0.0;0.0;0.0;0.75;0.0;0.0;0.0;1.5;0.0;0.25;-0.194824;-0.015137;0.982422;0.28;2.17;0.07;388.0;-0.317886;-0.064447;9.0;9.25;5.75;5.25;1.25;0.25;0.0;0.0;0.0;0.0;0.0;0.0;0.0;3.5;0.0;0.25;-0.210449;0.016113;0.982422;-2.17;-1.33;1.19;416.0;-0.276529;-0.018171
0.32;8.25;12.25;2.5;6.25;0.25;0.0;0.0;0.0;0.25;1.0;0.0;0.0;0.0;1.25;0.0;0.25;-0.193359;-0.015625;0.986816;0.56;2.52;0.0;387.0;-0.311927;-0.059487;9.25;10.0;5.25;5.0;1.25;0.25;0.0;0.0;0.0;0.25;0.0;0.0;0.0;3.25;0.0;0.25;-0.20459;0.017578;0.976074;-2.03;-1.54;1.26;418.0;-0.280671;-0.020832
0.33;9.25;12.25;2.75;6.25;0.25;0.0;0.0;0.0;0.0;1.0;0.0;0.0;0.0;1.5;0.0;0.25;-0.191406;-0.010254;0.990234;0.7;2.52;0.14;401.0;-0.315332;-0.054807;9.5;9.25;5.5;4.75;1.0;0.0;0.0;0.0;0.0;0.25;0.0;0.0;0.0;3.0;0.0;0.25;-0.210449;0.02002;0.983887;-1.96;-1.12;1.19;404.0;-0.285291;-0.01417
0.34;9.0;12.25;2.5;6.5;0.25;0.0;0.0;0.0;0.0;1.0;0.0;0.0;0.0;2.25;0.0;0.0;-0.193848;-0.010742;0.980957;0.98;2.03;0.21;404.0;-0.303844;-0.053223;9.0;9.0;5.75;4.75;1.0;0.0;0.0;0.0;0.25;0.25;0.0;0.0;0.0;3.0;0.0;0.25;-0.20166;0.021973;0.974121;-1.89;-0.98;1.19;402.0;-0.277133;-0.011356
0.35;7.75;12.25;2.25;7.0;0.25;0.0;0.0;0.0;0.25;1.0;0.0;0.0;0.0;2.0;0.0;0.0;-0.222656;0.064941;1.022461;-0.14;1.05;0.07;393.0;-0.299018;-0.061914;9.0;8.75;5.75;5.0;1.0;0.0;0.0;0.0;0.25;0.25;0.0;0.0;0.0;2.75;0.0;0.25;-0.207031;0.020996;0.984375;-2.1;-1.12;1.12;400.0;-0.280625;-0.013237
0.36;7.75;12.25;2.25;6.5;0.25;0.0;0.0;0.0;0.0;1.0;0.0;0.0;0.0;1.75;0.0;0.25;-0.184082;-0.01709;0.968262;-0.42;1.61;0.0;382.0;-0.306844;-0.065215;9.0;8.75;5.75;4.25;1.0;0.0;0.0;0.0;0.25;0.25;0.0;0.0;0.0;3.25;0.0;0.25;-0.205078;0.021973;0.984375;-2.03;-1.19;1.19;395.0;-0.271563;-0.005516
0.37;9.0;12.0;2.5;6.5;0.25;0.0;0.0;0.0;0.25;1.0;0.0;0.0;0.0;2.25;0.25;0.25;-0.192383;-0.020996;0.97168;0.91;1.19;0.07;410.0;-0.289683;-0.050581;9.0;8.75;5.25;4.25;1.0;0.0;0.0;0.0;0.0;0.25;0.0;0.0;0.0;3.25;0.0;0.25;-0.211914;0.015625;0.979492;-2.17;-1.12;1.05;385.0;-0.277039;-0.010008
0.38;9.0;12.25;2.25;7.0;0.25;0.0;0.0;0.0;0.0;0.75;0.0;0.0;0.0;2.25;0.0;0.25;-0.193359;-0.022461;1.0;0.7;1.89;0.0;406.0;-0.30542;-0.059108;8.75;8.75;5.5;4.5;1.0;0.25;0.0;0.0;0.25;0.25;0.0;0.0;0.0;3.25;0.0;0.25;-0.210938;0.025879;0.98291;-2.24;-1.12;0.98;395.0;-0.269732;-0.011235
0.39;8.0;12.5;2.25;6.5;0.25;0.0;0.0;0.0;0.0;0.5;0.0;0.0;0.0;2.0;0.0;0.25;-0.193848;-0.018066;0.990234;0.21;2.52;0.14;384.0;-0.312525;-0.065024;8.75;8.25;5.25;4.75;1.0;0.25;0.0;0.0;0.25;0.25;0.0;0.0;0.0;3.0;0.0;0.0;-0.20752;0.020996;0.983887;-2.17;-1.26;1.05;386.0;-0.274941;-0.01168
0.4;7.75;12.0;2.25;6.5;0.25;0.0;0.0;0.0;0.25;0.75;0.0;0.0;0.0;2.25;0.0;0.25;-0.191895;-0.004883;0.980957;-0.21;2.45;0.07;385.0;-0.295269;-0.05888;8.75;8.0;5.25;4.5;1.0;0.25;0.0;0.0;0.25;0.25;0.0;0.0;0.0;3.25;0.0;0.0;-0.212402;0.02002;0.986328;-2.1;-1.05;0.98;382.0;-0.269249;-0.007477
0.41;8.0;11.75;2.25;7.0;0.5;0.0;0.0;0.0;0.25;0.5;0.0;0.0;0.0;2.25;0.0;0.5;-0.187012;-0.008789;0.972656;-0.42;2.1;0.07;393.0;-0.295259;-0.060588;9.0;8.25;5.25;4.5;0.75;0.25;0.0;0.0;0.25;0.25;0.0;0.0;0.0;3.25;0.0;0.0;-0.204102;0.020508;0.98291;-2.17;-0.98;1.12;385.0;-0.272615;-0.008266
0.42;8.25;12.25;2.25;7.0;0.25;0.0;0.0;0.0;0.0;0.5;0.0;0.0;0.0;2.25;0.0;0.25;-0.191406;-0.011719;0.977539;0.28;1.12;0.0;393.0;-0.30742;-0.064048;8.75;7.75;5.0;4.5;1.25;0.25;0.0;0.0;0.25;0.25;0.0;0.0;0.0;3.25;0.0;0.25;-0.212402;0.020508;0.98291;-2.24;-0.91;1.12;381.0;-0.264302;-0.007879
0.43;8.0;12.25;2.75;6.5;0.25;0.0;0.0;0.0;0.25;0.75;0.0;0.0;0.0;2.25;0.0;0.25;-0.19043;-0.01123;0.981934;0.98;0.7;0.0;397.0;-0.296454;-0.055828;10.0;7.5;5.0;4.25;1.0;0.25;0.0;0.0;0.0;0.25;0.0;0.0;0.0;3.25;0.0;0.25;-0.20752;0.020996;0.97998;-2.31;-0.7;1.05;383.0;-0.275132;-0.003637
0.44;7.5;12.25;2.5;7.0;0.25;0.0;0.0;0.0;0.25;1.0;0.0;0.0;0.0;2.25;0.0;0.5;-0.192383;-0.003906;0.984863;0.91;0.77;0.14;399.0;-0.288066;-0.06249;10.0;7.0;5.0;3.75;0.75;0.0;0.0;0.0;0.0;0.0;0.0;0.0;0.0;3.25;0.0;0.0;-0.209961;0.022461;0.979004;-2.52;-0.63;0.84;360.0;-0.282519;0.005544
0.45;7.5;12.25;2.25;7.25;0.0;0.0;0.0;0.0;0.25;1.0;0.25;0.0;0.0;2.75;0.25;0.75;-0.193359;-0.012695;0.98291;0.7;0.84;-0.07;409.0;-0.26904;-0.064601;8.5;6.5;4.75;3.25;0.75;0.0;0.0;0.0;0.25;0.0;0.0;0.0;0.0;3.0;0.0;0.0;-0.211914;0.016602;0.981934;-2.59;-0.49;0.91;327.0;-0.272405;0.00822
0.46;7.5;12.0;2.5;7.75;0.0;0.0;0.0;0.0;0.25;1.0;0.0;0.0;0.0;3.75;0.0;0.75;-0.195312;-0.012207;0.977539;0.84;0.77;0.14;420.0;-0.260594;-0.058849;10.5;6.5;4.75;3.5;0.75;0.0;0.0;0.0;0.25;0.25;0.0;0.0;0.0;3.0;0.0;0.0;-0.210938;0.019531;0.979004;-2.59;-0.7;0.91;358.0;-0.277149;0.013529
0.47;7.5;12.0;2.25;7.75;0.25;0.0;0.0;0.0;0.25;1.0;0.0;0.0;0.0;3.75;0.0;0.75;-0.189941;-0.010254;0.981934;1.54;0.42;0.14;420.0;-0.259497;-0.059087;10.5;6.5;5.0;3.25;1.0;0.25;0.0;0.0;0.0;0.25;0.0;0.0;0.0;3.25;0.0;0.0;-0.214355;0.019043;0.983887;-2.52;-0.49;0.84;364.0;-0.275392;0.012582
0.48;7.25;12.0;2.25;7.75;0.25;0.0;0.0;0.0;0.25;1.0;0.25;0.0;0.0;3.75;0.0;0.75;-0.191406;-0.003418;0.97998;1.75;-0.07;0.14;420.0;-0.254818;-0.06075;10.0;6.25;4.75;3.25;0.25;0.25;0.0;0.0;0.0;0.0;0.0;0.0;0.0;3.0;0.0;0.0;-0.210449;0.019043;0.980469;-2.8;-0.42;0.91;336.0;-0.286337;0.00836
0.49;8.25;12.0;2.5;8.0;0.25;0.0;0.0;0.0;0.5;1.25;0.25;0.0;0.0;3.75;0.0;0.75;-0.193359;-0.000977;0.989258;1.19;0.42;0.14;446.0;-0.251324;-0.052309;10.25;5.5;4.0;3.0;0.25;0.0;0.0;0.0;0.0;0.25;0.0;0.0;0.0;3.0;0.0;0.0;-0.208008;0.020508;0.985352;-3.01;-0.21;0.84;317.0;-0.280938;0.017189
0.5;8.25;11.5;2.25;7.75;0.25;0.0;0.0;0.0;0.75;1.25;0.25;0.0;0.0;3.75;0.0;0.75;-0.191895;-0.002441;0.986328;0.42;0.91;0.07;437.0;-0.244314;-0.047735;8.75;5.5;3.5;2.5;0.25;0.0;0.0;0.0;0.0;0.25;0.0;0.0;0.0;3.0;0.0;0.0;-0.21582;0.02002;0.994629;-3.57;0.07;0.77;285.0;-0.273176;0.015099
0.51;7.0;11.5;2.25;7.75;0.25;0.0;0.0;0.0;0.5;1.0;0.25;0.0;0.0;3.75;0.0;0.75;-0.19043;-0.012207;0.982422;-0.14;1.05;-0.07;415.0;-0.246733;-0.057453;8.75;5.25;3.25;2.75;0.5;0.0;0.0;0.0;0.0;0.25;0.0;0.0;0.0;3.0;0.0;0.0;-0.228027;0.017578;0.989746;-3.99;0.21;0.7;286.0;-0.270347;0.01376
0.52;7.75;11.5;2.5;8.0;0.5;0.0;0.0;0.0;0.25;1.0;0.25;0.0;0.0;4.0;0.0;0.75;-0.188477;-0.004395;0.985352;-0.14;0.91;0.07;433.0;-0.250316;-0.054742;8.75;5.25;3.25;2.25;0.25;0.0;0.0;0.0;0.0;0.25;0.0;0.0;0.0;3.0;0.0;0.0;-0.210938;0.01416;0.985352;-4.27;0.14;0.63;276.0;-0.271663;0.018868
0.53;7.0;12.0;2.5;8.25;0.5;0.0;0.0;0.0;0.25;1.0;0.25;0.0;0.0;4.0;0.25;1.0;-0.1875;0.000488;0.985352;0.14;0.7;0.07;437.0;-0.242478;-0.062059;8.75;5.25;3.25;2.5;0.25;0.0;0.0;0.0;0.0;0.0;0.0;0.0;0.0;3.0;0.0;0.0;-0.210938;0.015137;0.975098;-3.92;0.0;0.56;276.0;-0.277614;0.015465
0.54;7.5;12.25;2.75;7.75;0.5;0.25;0.0;0.0;0.5;1.0;0.0;0.0;0.0;4.5;0.25;1.0;-0.1875;-0.007812;0.976074;0.35;0.42;0.07;452.0;-0.236183;-0.052411;8.75;4.75;2.75;2.5;0.25;0.0;0.0;0.0;0.0;0.0;0.0;0.0;0.0;3.0;0.0;0.0;-0.212402;0.015137;0.97998;-3.29;-0.42;0.84;264.0;-0.275013;0.017398
0.55;7.5;12.25;2.5;8.0;0.5;0.0;0.0;0.0;0.75;1.25;0.0;0.0;0.0;4.5;0.25;0.75;-0.197266;-0.005859;0.97998;0.63;-0.07;0.07;454.0;-0.231555;-0.048577;8.75;4.75;3.25;2.5;0.25;0.0;0.0;0.0;0.0;0.0;0.0;0.0;0.0;2.75;0.0;0.0;-0.213379;0.019043;0.989746;-2.8;0.0;0.91;268.0;-0.281275;0.017671
0.56;7.0;11.75;2.25;8.5;0.5;0.0;0.0;0.0;0.75;1.5;0.0;0.0;0.0;4.25;0.25;0.75;-0.18457;-0.015137;0.975098;0.63;-0.49;0.07;446.0;-0.22782;-0.053436;8.75;4.75;2.75;2.25;0.25;0.0;0.0;0.0;0.0;0.0;0.0;0.0;0.0;2.25;0.0;0.0;-0.219727;0.019531;0.980469;-2.94;0.42;0.84;253.0;-0.295507;0.015722
0.57;7.75;11.75;2.5;8.75;0.5;0.0;0.0;0.25;0.5;1.75;0.25;0.0;0.0;4.5;0.5;1.0;-0.185547;-0.008789;0.983887;0.49;-1.19;0.21;476.0;-0.218219;-0.055868;9.0;4.75;2.25;1.5;0.25;0.0;0.0;0.0;0.0;0.0;0.0;0.0;0.0;2.0;0.0;0.0;-0.210938;0.01416;0.987305;-3.15;1.05;0.7;237.0;-0.30566;0.023127
0.58;7.75;12.0;2.5;9.0;0.75;0.0;0.0;0.25;0.75;1.75;0.25;0.0;0.0;4.75;0.25;1.0;-0.186523;-0.005371;0.98584;0.77;-1.47;0.14;489.0;-0.216115;-0.052815;8.0;4.75;2.25;2.0;0.25;0.0;0.0;0.0;0.0;0.0;0.0;0.0;0.0;2.25;0.0;0.0;-0.221191;0.017578;0.981445;-3.43;1.19;0.7;234.0;-0.292191;0.013297
0.59;7.75;12.25;2.75;9.25;0.75;0.25;0.0;0.25;0.75;1.75;0.25;0.25;0.0;4.75;0.25;1.25;-0.186523;0.000488;0.98291;0.84;-1.54;0.35;506.0;-0.213101;-0.057372;7.75;4.25;1.75;1.5;0.25;0.0;0.0;0.0;0.0;0.0;0.0;0.0;0.0;2.0;0.0;0.0;-0.219727;0.01416;0.981934;-3.08;1.75;0.56;209.0;-0.29679;0.019667
0.6;7.75;12.25;2.25;9.5;1.0;0.5;0.0;0.25;1.0;2.0;0.25;0.5;0.0;5.0;0.25;1.25;-0.189941;-0.006836;0.983887;0.84;-1.75;0.35;522.0;-0.200162;-0.057986;6.5;3.75;1.75;1.5;0.25;0.0;0.0;0.0;0.0;0.0;0.0;0.0;0.0;1.75;0.0;0.0;-0.216797;0.010742;0.977051;-2.94;1.89;0.7;186.0;-0.294023;0.015597
0.61;7.5;12.75;3.0;10.0;1.0;0.25;0.0;0.25;1.0;2.25;0.25;0.0;0.0;5.75;0.25;1.5;-0.187988;-0.002441;0.986816;0.42;-1.75;0.35;544.0;-0.195734;-0.052063;6.5;3.5;1.75;1.25;0.25;0.0;0.0;0.0;0.0;0.0;0.0;0.0;0.0;1.25;0.0;0.0;-0.214844;0.016113;0.97998;-1.89;2.73;0.7;175.0;-0.312694;0.01828
0.62;7.5;13.0;3.25;10.5;1.0;0.25;0.0;0.25;1.0;2.25;0.0;0.0;0.0;5.75;0.25;1.5;-0.19043;-0.000977;0.984863;0.28;-2.31;0.42;553.0;-0.200731;-0.05347;5.5;3.0;1.5;1.0;0.25;0.0;0.0;0.0;0.0;0.0;0.0;0.0;0.0;1.25;0.0;0.25;-0.215332;0.008789;0.98291;-1.05;3.36;0.91;152.0;-0.295941;0.017756
0.63;7.5;13.5;3.0;10.25;1.25;0.25;0.0;0.5;1.0;2.5;0.0;0.25;0.0;6.0;0.5;1.5;-0.18457;0.00293;0.98877;-0.35;-1.82;0.35;572.0;-0.189306;-0.056272;4.25;3.0;1.0;1.0;0.0;0.0;0.0;0.0;0.0;0.0;0.0;0.0;0.0;1.25;0.0;0.0;-0.220215;0.01123;0.983398;-0.49;4.06;0.98;125.0;-0.297229;0.005772
0.64;7.75;13.0;3.0;11.0;1.5;0.5;0.0;0.5;1.0;3.0;0.25;0.0;0.25;6.25;0.75;1.75;-0.18457;0.000977;0.98877;-0.84;-0.84;0.21;602.0;-0.176227;-0.057084;3.25;2.5;1.0;1.0;0.0;0.0;0.0;0.0;0.0;0.25;0.0;0.0;0.0;0.75;0.0;0.0;-0.194824;0.03418;0.974121;1.26;4.2;1.05;105.0;-0.296777;-0.003934
0.65;8.0;13.75;3.25;11.0;1.5;0.5;0.0;0.5;0.75;3.0;0.25;0.0;0.25;6.0;0.25;1.5;-0.186523;-0.000488;0.988281;-1.19;-0.42;0.14;602.0;-0.193989;-0.059113;3.0;2.25;0.75;0.75;0.0;0.0;0.0;0.0;0.0;0.25;0.0;0.0;0.0;0.5;0.0;0.0;-0.222168;0.003906;0.993652;1.82;4.06;1.12;90.0;-0.310903;-0.003356
0.66;7.75;13.75;3.5;11.25;1.5;0.5;0.0;0.5;1.0;3.25;0.25;0.0;0.25;6.5;0.25;1.75;-0.185547;0.000977;0.983398;-1.33;-0.28;0.14;619.0;-0.18239;-0.056034;2.5;1.75;0.5;1.25;0.0;0.0;0.0;0.0;0.0;0.0;0.0;0.0;0.0;0.25;0.0;0.0;-0.227539;0.005371;1.003418;3.71;3.71;1.19;76.0;-0.342381;-0.032711
0.67;7.75;13.75;3.75;11.75;1.25;0.5;0.0;0.5;1.25;3.0;0.25;0.0;0.25;7.0;0.25;1.75;-0.180176;-0.003906;0.990723;-1.4;-0.21;0.07;632.0;-0.178808;-0.054299;2.25;2.0;0.5;0.5;0.0;0.0;0.0;0.0;0.0;0.0;0.0;0.0;0.0;0.5;0.0;0.0;-0.245605;-0.013184;1.010742;4.62;2.94;1.19;68.0;-0.322485;-0.008993
0.68;7.75;13.75;3.75;11.75;1.5;0.5;0.0;0.5;1.25;3.5;0.25;0.5;0.0;7.0;0.5;2.0;-0.183594;0.001953;0.987305;-1.61;-0.21;0.07;650.0;-0.167982;-0.054097;1.5;1.25;0.25;0.5;0.0;0.0;0.0;0.0;0.0;0.0;0.0;0.0;0.0;0.25;0.0;0.0;-0.265137;-0.040039;1.016113;3.64;2.17;0.28;45.0;0.0;0.0
0.69;7.75;13.75;3.75;11.75;1.75;0.75;0.0;0.5;1.75;4.0;0.25;0.0;0.25;7.25;0.75;2.0;-0.180664;-0.001465;0.98584;-1.82;-0.0;0.14;672.0;-0.156361;-0.048226;1.0;0.75;0.25;0.25;0.0;0.0;0.0;0.0;0.0;0.0;0.0;0.0;0.0;0.25;0.0;0.0;-0.307617;-0.196777;1.037598;4.69;-0.14;-3.22;30.0;0.0;0.0
0.7;7.5;14.0;3.5;11.75;1.75;0.75;0.0;0.5;1.75;3.5;0.25;0.0;0.0;6.5;0.75;2.0;-0.190918;-0.000488;0.989258;-1.89;0.21;0.14;652.0;-0.167424;-0.052252;1.0;0.25;0.25;0.25;0.0;0.0;0.0;0.0;0.0;0.0;0.0;0.0;0.0;0.0;0.0;0.0;-0.573242;-0.471191;0.988281;-5.6;-13.72;-28.77;22.0;0.0;0.0
0.71;7.5;14.0;3.25;11.75;1.75;0.25;0.0;0.5;2.0;3.25;0.25;0.25;0.0;6.5;0.75;2.0;-0.178223;-0.000488;0.990723;-1.89;1.05;0.14;647.0;-0.164634;-0.050528;0.5;0.25;0.0;0.25;0.0;0.0;0.0;0.0;0.0;0.0;0.0;0.0;0.0;0.0;0.0;0.0;-0.623047;-0.342773;1.358887;0.77;-27.370001;-48.299999;12.0;0.0;0.0
0.72;7.25;14.0;3.5;11.75;1.75;0.5;0.0;0.25;2.25;4.0;0.25;0.25;0.0;6.25;0.25;2.0;-0.188477;-0.003906;0.986816;-1.89;1.82;0.35;650.0;-0.164434;-0.046279;0.25;0.25;0.0;0.0;0.0;0.0;0.0;0.0;0.0;0.0;0.0;0.0;0.0;0.0;0.0;0.0;-0.504395;-0.397949;1.279297;5.81;-44.099998;-62.439999;6.0;0.0;0.0
0.73;7.75;14.25;3.75;12.0;1.5;0.5;0.0;0.5;2.25;4.25;0.25;0.0;0.0;6.0;0.25;2.25;-0.191406;-0.005371;0.982422;-1.75;2.03;0.28;666.0;-0.168767;-0.048236;0.25;0.5;0.0;0.0;0.0;0.0;0.0;0.0;0.0;0.0;0.0;0.0;0.0;0.0;0.0;0.0;-0.459961;-0.394531;1.181641;0.98;-54.25;-73.360001;9.0;0.0;0.0
0.74;8.0;14.25;3.75;12.0;1.5;0.25;0.0;0.5;2.0;3.75;0.25;0.0;0.25;6.25;0.25;2.0;-0.186523;-0.001465;0.992676;-1.82;2.24;0.07;659.0;-0.174081;-0.049449;0.25;0.25;0.0;0.25;0.0;0.0;0.0;0.0;0.0;0.0;0.0;0.0;0.0;0.0;0.0;0.0;-0.44873;-0.242188;1.032227;-10.57;-54.110001;-78.050003;9.0;0.0;0.0
0.75;7.25;14.25;3.5;11.75;1.5;0.5;0.0;0.0;2.25;3.5;0.25;0.0;0.25;5.75;0.0;2.0;-0.183594;-0.001465;0.989258;-1.61;2.66;0.07;630.0;-0.178834;-0.048019;0.25;0.5;0.0;0.0;0.0;0.0;0.0;0.0;0.0;0.0;0.0;0.0;0.0;0.0;0.0;0.0;-0.57959;-0.304688;1.025879;-33.25;-29.469999;-77.559998;9.0;0.0;0.0
0.76;7.25;14.25;3.5;11.75;1.5;0.5;0.0;0.25;2.25;3.0;0.25;0.0;0.0;5.75;0.0;2.0;-0.183105;0.0;0.990234;-1.47;3.08;0.21;626.0;-0.183213;-0.049942;0.25;0.0;0.25;0.0;0.0;0.0;0.0;0.0;0.0;0.0;0.0;0.0;0.0;0.0;0.0;0.0;-0.34375;-0.247559;0.799805;-61.599998;-11.76;-74.620003;6.0;0.0;0.0
0.77;8.25;14.25;3.25;12.75;1.25;0.25;0.0;0.0;2.0;3.0;0.25;0.0;0.0;5.5;0.25;1.5;-0.175781;-0.003906;0.980957;-1.4;3.71;0.28;630.0;-0.195955;-0.049895;0.5;0.25;0.25;0.0;0.0;0.0;0.0;0.0;0.0;0.0;0.0;0.0;0.0;0.0;0.0;0.0;-0.259766;-0.060059;0.891113;-78.68;5.18;-71.330002;12.0;0.0;0.0
0.78;8.25;14.5;3.0;12.5;1.5;0.25;0.0;0.0;2.0;3.25;0.25;0.0;0.25;5.5;0.25;1.75;-0.186035;0.001953;0.989746;-1.12;3.85;0.28;637.0;-0.1907;-0.051423;0.5;0.25;0.25;0.25;0.0;0.0;0.0;0.0;0.0;0.0;0.0;0.0;0.0;0.0;0.0;0.0;-0.159668;0.005859;0.885254;-68.389999;9.17;-69.650002;16.0;0.0;0.0
0.79;7.5;14.5;3.25;12.0;1.0;0.5;0.0;0.25;2.0;3.0;0.25;0.0;0.0;5.5;0.25;1.5;-0.183105;-0.001465;0.980957;-1.19;4.13;0.21;618.0;-0.191158;-0.054298;0.25;0.25;0.0;0.25;0.0;0.0;0.0;0.0;0.0;0.0;0.0;0.0;0.0;0.0;0.0;0.0;-0.108887;0.034668;0.914062;-58.029999;9.24;-68.18;9.0;0.0;0.0
0.8;7.5;14.5;3.25;12.5;1.0;0.25;0.0;0.25;2.0;3.0;0.25;0.0;0.0;5.0;0.25;1.5;-0.187988;0.003418;0.981934;-1.19;4.27;0.28;617.0;-0.197354;-0.056867;0.25;0.25;0.25;0.25;0.0;0.0;0.0;0.0;0.0;0.0;0.0;0.0;0.0;0.0;0.0;0.0;-0.067383;0.05957;0.893555;-52.639999;9.03;-64.540001;12.0;0.0;0.0
0.81;8.0;14.5;3.0;12.5;1.0;0.25;0.0;0.25;1.5;2.5;0.25;0.0;0.0;4.75;0.5;1.5;-0.18457;-0.003418;0.983887;-0.98;3.85;0.35;606.0;-0.208863;-0.062607;0.5;0.5;0.0;0.0;0.0;0.0;0.0;0.0;0.0;0.0;0.0;0.0;0.0;0.0;0.0;0.0;-0.05127;0.086426;0.84082;-50.259998;11.69;-54.740002;12.0;0.0;0.0
0.82;7.5;15.0;3.0;12.25;1.0;0.25;0.0;0.25;1.0;2.25;0.25;0.0;0.0;4.25;0.25;1.25;-0.185059;-0.00293;0.977539;-0.98;3.71;0.28;581.0;-0.227307;-0.071007;0.75;0.25;0.25;0.0;0.0;0.0;0.0;0.0;0.0;0.0;0.0;0.0;0.0;0.0;0.0;0.0;-0.048828;0.093262;0.82666;-48.16;13.16;-50.959999;15.0;0.0;0.0
0.83;7.75;15.25;3.0;12.0;1.0;0.25;0.0;0.25;1.0;2.75;0.25;0.25;0.25;4.25;0.0;1.25;-0.18457;0.003906;0.980957;-0.84;3.08;0.35;593.0;-0.223187;-0.071067;0.25;0.0;0.0;0.0;0.0;0.0;0.0;0.0;0.0;0.0;0.0;0.0;0.0;0.0;0.0;0.0;-0.032715;0.095703;0.812988;-33.810001;16.799999;-39.48;3.0;0.0;0.0
0.84;7.5;15.25;3.25;12.5;0.75;0.25;0.0;0.0;1.0;2.75;0.25;0.0;0.25;4.0;0.25;1.75;-0.186523;0.0;0.981934;-0.91;2.73;0.49;592.0;-0.223866;-0.072326;0.25;0.0;0.0;0.0;0.0;0.0;0.0;0.0;0.0;0.0;0.0;0.0;0.0;0.0;0.0;0.0;-0.030762;0.054688;0.862305;-20.23;17.92;-32.970001;3.0;0.0;0.0
0.85;7.75;15.25;3.0;12.75;1.0;0.5;0.0;0.25;1.0;2.75;0.25;0.0;0.25;4.25;0.25;1.75;-0.175781;-0.001953;0.987305;-1.33;2.87;0.49;609.0;-0.219747;-0.074815;0.25;0.0;0.25;0.25;0.0;0.0;0.0;0.0;0.0;0.0;0.0;0.0;0.0;0.0;0.0;0.0;-0.005371;-0.039062;0.944824;-11.41;16.799999;-28.280001;10.0;0.0;0.0
0.86;7.75;15.25;3.0;12.5;1.0;0.75;0.0;0.25;1.0;2.25;0.25;0.0;0.0;4.25;0.0;1.75;-0.181641;-0.003906;0.98584;-1.12;2.24;0.49;597.0;-0.228754;-0.074815;0.25;0.0;0.25;0.0;0.0;0.0;0.0;0.0;0.0;0.0;0.0;0.0;0.0;0.0;0.0;0.0;0.054688;-0.148438;0.983398;-12.32;14.07;-24.85;6.0;0.0;0.0
0.87;7.75;15.25;3.0;12.5;1.0;0.25;0.0;0.25;1.0;2.0;0.25;0.25;0.0;4.25;0.25;1.75;-0.181152;-0.000977;0.976074;-1.33;2.1;0.42;594.0;-0.226374;-0.074579;0.25;0.0;0.0;0.0;0.0;0.0;0.0;0.0;0.0;0.0;0.0;0.0;0.0;0.0;0.0;0.0;0.12207;-0.168457;0.98584;-21.91;10.85;-23.17;3.0;0.0;0.0
0.88;7.5;15.75;3.0;13.0;1.0;0.25;0.0;0.5;1.5;2.25;0.25;0.25;0.25;3.75;0.25;1.75;-0.189453;-0.000488;0.983398;-1.33;1.54;0.21;616.0;-0.22138;-0.078827;0.25;0.0;0.0;0.0;0.0;0.0;0.0;0.0;0.0;0.0;0.0;0.0;0.0;0.0;0.0;0.0;0.151855;-0.129395;0.965332;-29.82;6.58;-23.59;3.0;0.0;0.0
0.89;8.5;16.25;3.25;13.25;1.0;0.5;0.0;0.5;1.5;2.75;0.25;0.25;0.25;4.0;0.5;1.5;-0.185547;-0.005371;0.984863;-1.33;1.19;0.35;654.0;-0.218269;-0.073934;0.5;0.0;0.25;0.0;0.0;0.0;0.0;0.0;0.0;0.0;0.0;0.0;0.0;0.0;0.0;0.0;0.134766;-0.054688;0.971191;-26.67;-2.45;-26.67;10.0;0.0;0.0
0.9;8.25;16.0;3.25;13.0;1.0;0.75;0.0;0.5;1.25;2.75;0.0;0.25;0.25;4.25;0.5;2.0;-0.185059;-0.001465;0.985352;-1.19;1.12;0.35;647.0;-0.215507;-0.076767;0.5;0.0;0.25;0.0;0.0;0.0;0.0;0.0;0.0;0.0;0.0;0.0;0.0;0.0;0.0;0.0;0.154297;-0.037109;0.954102;-21.559999;-9.03;-28.84;10.0;0.0;0.0
0.91;8.0;16.0;3.25;13.25;1.25;1.0;0.0;0.5;1.25;3.0;0.0;0.25;0.0;4.5;0.5;2.0;-0.179688;0.000977;0.98291;-1.33;0.77;0.21;656.0;-0.211134;-0.075515;0.5;0.0;0.0;0.0;0.0;0.0;0.0;0.0;0.0;0.0;0.0;0.0;0.0;0.0;0.0;0.0;0.158203;-0.019531;0.944824;-19.67;-13.93;-30.73;6.0;0.0;0.0
0.92;8.0;16.0;3.5;13.75;1.25;0.75;0.0;0.5;1.25;2.75;0.0;0.25;0.25;4.5;0.25;2.0;-0.186523;0.001953;0.979492;-1.54;0.35;0.14;659.0;-0.216046;-0.077319;0.25;0.0;0.0;0.0;0.0;0.0;0.0;0.0;0.0;0.0;0.0;0.0;0.0;0.0;0.0;0.0;0.138184;0.027832;0.962402;-18.059999;-18.620001;-32.200001;3.0;0.0;0.0
0.93;9.25;16.0;3.25;13.75;1.25;1.25;0.0;0.5;1.25;3.0;0.25;0.25;0.0;4.5;0.0;2.0;-0.181152;0.001953;0.983398;-1.82;0.42;0.0;678.0;-0.219667;-0.073824;0.0;0.0;0.0;0.0;0.0;0.0;0.0;0.0;0.0;0.0;0.0;0.0;0.0;0.0;0.0;0.0;0.10498;0.062012;0.954102;-13.51;-23.309999;-33.880001;0.0;0.0;0.0
0.94;7.5;16.0;3.75;14.0;1.25;1.5;0.0;0.5;1.75;3.0;0.0;0.5;0.25;4.75;0.25;2.0;-0.189941;0.005371;0.988281;-1.89;0.56;-0.14;686.0;-0.202301;-0.077087;0.25;0.0;0.0;0.0;0.0;0.0;0.0;0.0;0.0;0.0;0.0;0.0;0.0;0.0;0.0;0.0;0.052246;0.086426;0.942383;-9.1;-26.880001;-36.189999;3.0;0.0;0.0
0.95;7.25;16.0;3.75;14.0;1.75;2.0;0.0;0.5;2.0;3.0;0.25;0.0;0.0;4.75;0.25;1.75;-0.186035;-0.003906;0.98877;-2.1;1.05;-0.21;693.0;-0.202104;-0.072677;0.25;0.0;0.0;0.0;0.0;0.0;0.0;0.0;0.0;0.0;0.0;0.0;0.0;0.0;0.0;0.0;-0.007324;0.151367;0.930176;-4.97;-27.860001;-38.990002;3.0;0.0;0.0
0.96;7.25;16.0;3.75;14.0;1.75;2.0;0.0;0.5;2.0;3.25;0.25;0.0;0.0;5.0;0.25;2.0;-0.180176;-0.000977;0.987305;-2.24;1.33;-0.28;700.0;-0.196614;-0.071719;0.0;0.0;0.25;0.0;0.0;0.0;0.0;0.0;0.0;0.0;0.0;0.0;0.0;0.0;0.0;0.0;-0.018555;0.20459;0.931641;-0.63;-28.700001;-41.720001;3.0;0.0;0.0
0.97;8.25;16.0;3.75;13.75;1.5;1.25;0.0;0.5;2.0;3.25;0.0;0.0;0.0;5.25;0.25;2.0;-0.181152;-0.000488;0.983398;-2.1;1.4;-0.21;695.0;-0.200507;-0.064475;0.25;0.0;0.25;0.0;0.0;0.0;0.0;0.0;0.0;0.0;0.0;0.0;0.0;0.0;0.0;0.0;-0.494141;0.226562;1.070801;57.119999;-10.85;-24.360001;6.0;0.0;0.0
0.98;7.5;15.75;3.25;13.75;1.75;1.25;0.0;0.5;2.0;3.25;0.0;0.0;0.0;4.75;0.0;2.0;-0.177246;-0.003906;0.990234;-2.31;1.75;-0.21;672.0;-0.203259;-0.069112;0.75;0.0;0.25;0.0;0.0;0.0;0.0;0.0;0.0;0.0;0.0;0.0;0.0;0.0;0.0;0.0;-0.568359;0.269531;0.451172;51.099998;3.29;-7.07;13.0;0.0;0.0
0.99;8.0;15.5;3.75;13.25;1.5;1.5;0.0;0.5;1.75;3.0;0.25;0.0;0.25;4.75;0.25;1.75;-0.181152;-0.003418;0.986816;-2.38;2.03;-0.21;675.0;-0.203973;-0.069404;0.5;0.0;0.25;0.25;0.0;0.0;0.0;0.0;0.0;0.0;0.0;0.0;0.0;0.0;0.0;0.0;-0.785156;0.321777;0.723633;43.889999;24.780001;14.28;13.0;0.0;0.0
1.0;8.0;15.5;3.75;13.25;1.75;1.25;0.0;0.5;2.25;3.25;0.25;0.0;0.25;5.0;0.25;1.75;-0.178711;-0.001465;0.98584;-2.38;1.89;-0.35;689.0;-0.194339;-0.062404;0.5;0.25;0.5;0.25;0.0;0.0;0.0;0.0;0.0;0.0;0.0;0.0;0.0;0.0;0.0;0.0;-0.783691;0.183594;0.70166;47.599998;41.09;41.02;19.0;0.0;0.0
1.01;8.0;15.25;3.75;13.0;2.0;2.0;0.0;0.5;2.25;3.25;0.25;0.0;0.0;5.25;0.25;2.0;-0.181152;0.003906;0.981934;-2.45;1.82;-0.42;697.0;-0.189952;-0.061836;1.0;0.5;0.5;0.25;0.0;0.0;0.0;0.0;0.0;0.0;0.0;0.0;0.0;0.0;0.0;0.0;-0.397461;-0.959473;1.463867;57.75;58.310001;59.709999;28.0;0.0;0.0
1.02;7.5;15.25;3.75;12.75;1.75;1.5;0.0;0.5;2.25;3.0;0.25;0.0;0.0;5.75;0.25;2.0;-0.186523;0.00293;0.984863;-2.31;1.82;-0.42;680.0;-0.185688;-0.059968;1.5;0.5;0.5;0.25;0.0;0.0;0.0;0.0;0.0;0.0;0.0;0.0;0.0;0.0;0.0;0.0;-0.392578;-0.643555;1.430664;108.849998;-3.01;47.32;34.0;0.0;0.0
1.03;7.25;15.5;3.5;12.25;2.0;1.25;0.0;0.5;2.25;3.0;0.25;0.0;0.25;5.25;0.25;2.0;-0.180664;-0.002441;0.988281;-2.45;2.03;-0.49;667.0;-0.18728;-0.062026;1.5;0.5;0.75;0.5;0.0;0.0;0.0;0.0;0.0;0.0;0.0;0.0;0.0;0.0;0.0;0.0;-0.294434;-0.124512;0.962891;44.52;-19.809999;15.82;41.0;0.0;0.0
1.04;7.25;14.5;3.5;12.25;2.0;1.25;0.0;0.5;2.25;3.5;0.25;0.0;0.25;5.25;0.0;2.0;-0.185547;0.001953;0.988281;-2.66;2.73;-0.56;660.0;-0.182229;-0.059;2.0;0.75;0.75;0.5;0.0;0.0;0.0;0.0;0.0;0.0;0.0;0.0;0.0;0.25;0.0;0.0;-0.171875;-0.069336;0.649902;76.440002;-3.57;14.42;52.0;-0.324815;0.022821
1.05;7.5;13.75;3.25;12.25;1.5;0.75;0.0;0.5;2.25;3.25;0.25;0.0;0.25;5.5;0.25;2.0;-0.182129;0.0;0.988281;-2.8;3.08;-0.63;640.0;-0.177538;-0.056408;2.25;1.25;1.0;0.5;0.0;0.0;0.0;0.0;0.0;0.0;0.0;0.0;0.0;0.25;0.0;0.0;-0.077148;0.317383;1.275391;93.940002;5.18;20.370001;64.0;-0.333433;0.014161
1.06;6.75;14.0;3.25;11.5;1.25;0.5;0.0;0.5;1.75;3.25;0.25;0.0;0.25;5.5;0.25;2.0;-0.179688;-0.006836;0.983398;-3.22;3.01;-0.77;610.0;-0.17939;-0.060426;2.75;1.5;1.0;0.5;0.0;0.0;0.0;0.0;0.0;0.0;0.0;0.0;0.0;0.25;0.0;0.0;-0.242676;0.015137;1.192871;29.120001;-1.05;6.02;73.0;-0.342512;0.015381
1.07;6.25;13.5;3.25;11.0;1.25;0.5;0.0;0.25;2.25;3.5;0.25;0.0;0.0;5.75;0.25;2.0;-0.180664;-0.00293;0.986328;-3.22;3.01;-0.98;598.0;-0.166063;-0.049114;3.5;1.75;1.25;0.5;0.0;0.0;0.0;0.0;0.0;0.0;0.0;0.0;0.0;0.25;0.0;0.0;-0.200684;0.055176;0.999512;15.47;-2.31;0.63;88.0;-0.348316;0.022327
1.08;6.5;12.75;3.0;10.5;1.25;0.5;0.0;0.25;2.0;3.5;0.25;0.0;0.0;5.75;0.25;2.0;-0.181641;-0.006836;0.990723;-3.08;3.01;-0.98;579.0;-0.164651;-0.047586;4.25;1.75;1.5;0.5;0.0;0.0;0.0;0.0;0.0;0.0;0.0;0.0;0.0;0.0;0.0;0.0;-0.183594;-0.02002;1.001465;11.48;2.73;2.73;99.0;-0.370275;0.028761
1.09;7.0;12.25;3.0;10.25;1.25;0.25;0.0;0.25;2.25;2.75;0.25;0.0;0.0;5.75;0.0;2.5;-0.175781;-0.000488;0.986816;-2.94;3.08;-0.91;568.0;-0.168081;-0.043343;4.75;2.5;1.75;0.75;0.0;0.0;0.0;0.0;0.0;0.0;0.0;0.0;0.0;0.25;0.0;0.0;-0.195801;-0.026855;0.956543;11.55;2.38;2.45;122.0;-0.353776;0.01754
1.1;6.0;12.25;2.5;10.0;1.25;0.25;0.0;0.5;2.25;3.0;0.25;0.0;0.0;5.75;0.0;2.0;-0.182129;-0.003906;0.984375;-2.66;2.73;-0.84;550.0;-0.16039;-0.047994;4.0;2.5;1.5;0.75;0.0;0.0;0.0;0.0;0.0;0.0;0.0;0.0;0.0;0.5;0.0;0.0;-0.203613;-0.01709;0.958496;16.379999;5.95;2.52;112.0;-0.33496;0.011452
1.11;6.0;12.0;2.5;9.75;1.25;0.25;0.0;0.25;2.25;3.0;0.25;0.0;0.0;5.75;0.25;2.0;-0.1875;-0.00293;0.98584;-2.59;3.01;-0.7;542.0;-0.156284;-0.04363;4.0;2.5;1.75;0.75;0.25;0.0;0.0;0.0;0.0;0.0;0.0;0.0;0.0;0.75;0.0;0.0;-0.20166;-0.000488;1.008789;16.799999;6.58;2.73;121.0;-0.311738;0.018424
1.12;6.0;11.25;2.5;9.25;1.0;0.5;0.0;0.25;2.25;3.0;0.25;0.0;0.0;6.0;0.25;2.0;-0.181152;-0.001465;0.98584;-2.59;3.22;-0.7;530.0;-0.148035;-0.04047;3.75;2.5;1.75;0.75;0.25;0.0;0.0;0.0;0.0;0.25;0.0;0.0;0.0;0.75;0.0;0.0;-0.208984;-0.015625;0.95459;14.56;5.74;2.52;121.0;-0.295241;0.017278
1.13;5.5;11.0;2.5;8.75;1.0;0.5;0.0;0.25;2.25;3.5;0.25;0.0;0.0;6.25;0.0;2.0;-0.1875;-0.004395;0.98291;-2.73;3.57;-0.63;520.0;-0.137775;-0.036693;4.25;2.5;1.75;1.0;0.25;0.0;0.0;0.0;0.0;0.0;0.0;0.0;0.0;1.0;0.0;0.0;-0.214355;0.011719;1.049805;19.040001;7.0;2.24;130.0;-0.299202;0.017545
1.14;5.5;10.75;2.5;8.25;1.0;0.25;0.0;0.25;2.25;3.5;0.0;0.0;0.0;5.75;0.0;2.25;-0.182617;-0.006836;0.98877;-2.73;3.71;-0.7;501.0;-0.140417;-0.034546;4.25;2.5;1.75;0.5;0.25;0.0;0.0;0.0;0.0;0.0;0.0;0.0;0.0;1.25;0.0;0.0;-0.219238;-0.007812;1.023438;10.08;0.77;2.1;126.0;-0.2855;0.033384
1.15;5.5;10.5;2.5;8.25;1.0;0.0;0.0;0.25;2.5;3.0;0.0;0.0;0.0;5.75;0.25;2.25;-0.186523;-0.005859;0.98291;-2.94;3.85;-0.7;496.0;-0.136986;-0.031345;4.25;2.5;2.0;0.5;0.25;0.0;0.0;0.0;0.25;0.25;0.0;0.0;0.0;2.0;0.0;0.0;-0.213379;-0.000977;0.963379;9.24;0.63;2.31;144.0;-0.22212;0.049504
1.16;5.0;10.5;2.5;8.0;1.0;0.0;0.0;0.25;2.75;3.0;0.25;0.0;0.0;5.75;0.25;2.0;-0.189941;-0.005371;0.986816;-3.15;3.99;-0.77;492.0;-0.128822;-0.028997;4.5;2.5;2.0;0.75;0.25;0.0;0.0;0.0;0.25;0.25;0.0;0.0;0.0;2.25;0.0;0.0;-0.21582;-0.001953;1.001953;10.01;0.49;2.52;153.0;-0.216675;0.046946
1.17;5.25;9.75;2.25;7.0;1.0;0.25;0.0;0.0;1.75;3.0;0.0;0.0;0.0;5.75;0.25;1.75;-0.189453;-0.007324;0.983887;-3.43;4.34;-0.84;448.0;-0.138773;-0.027698;5.0;2.5;2.75;0.5;0.25;0.0;0.0;0.0;0.25;0.0;0.0;0.0;0.0;2.75;0.0;0.0;-0.213867;0.003418;0.982422;9.24;-0.7;2.59;168.0;-0.214546;0.060708
1.18;5.25;9.5;2.25;6.5;1.0;0.25;0.0;0.0;2.0;3.0;0.0;0.0;0.25;5.75;0.5;1.75;-0.186523;-0.003418;0.989258;-3.64;4.34;-0.91;449.0;-0.125869;-0.024184;5.0;2.75;2.5;1.0;0.5;0.0;0.0;0.0;0.25;0.25;0.0;0.0;0.0;3.0;0.0;0.0;-0.219727;0.012207;1.0;9.73;-0.91;2.66;183.0;-0.201252;0.048194
1.19;5.25;8.5;2.0;6.5;0.75;0.0;0.0;0.25;2.25;2.75;0.0;0.0;0.0;5.75;0.25;2.0;-0.188965;0.001465;0.986328;-3.99;5.04;-1.12;429.0;-0.118886;-0.020054;5.5;2.75;2.25;1.25;0.5;0.0;0.0;0.0;0.25;0.25;0.0;0.0;0.0;3.5;0.0;0.0;-0.217773;0.004395;0.989746;7.84;-1.61;2.59;194.0;-0.192013;0.048195
1.2;5.0;8.25;2.25;5.25;0.75;0.0;0.0;0.0;2.25;2.75;0.25;0.0;0.0;5.75;0.25;2.0;-0.188477;0.001465;0.983887;-4.27;5.74;-0.91;409.0;-0.107695;-0.007514;5.5;2.75;3.25;1.25;0.5;0.0;0.0;0.0;0.0;0.25;0.0;0.0;0.0;3.75;0.0;0.0;-0.210449;0.006348;0.989746;7.7;-2.17;2.59;206.0;-0.197857;0.048153
1.21;5.0;6.25;2.0;4.5;0.5;0.25;0.0;0.0;2.25;2.75;0.0;0.0;0.0;5.75;0.5;1.75;-0.189941;-0.006836;0.993164;-4.62;6.44;-1.05;372.0;-0.083895;0.005481;6.75;3.0;3.5;1.5;0.75;0.0;0.0;0.0;0.0;0.25;0.0;0.0;0.0;3.75;0.0;0.0;-0.209961;0.010742;0.981934;7.14;-2.59;2.52;234.0;-0.215233;0.04659
1.22;4.0;5.75;1.5;3.5;0.5;0.0;0.0;0.0;2.0;2.75;0.0;0.0;0.0;5.75;0.5;1.75;-0.196289;-0.008301;0.991211;-5.11;7.91;-1.12;327.0;-0.057676;0.011556;6.5;3.25;4.0;2.0;0.75;0.0;0.0;0.0;0.25;0.25;0.0;0.0;0.0;4.25;0.0;0.0;-0.208984;0.012207;0.976562;7.14;-2.94;2.52;256.0;-0.19865;0.043772
1.23;3.75;4.5;1.25;3.0;0.25;0.0;0.0;0.0;2.0;2.75;0.0;0.0;0.0;5.5;0.5;1.25;-0.18457;-0.004395;0.98877;-5.81;9.87;-1.19;291.0;-0.037374;0.024993;7.0;3.75;4.0;1.5;1.0;0.0;0.0;0.0;0.5;0.25;0.0;0.0;0.0;4.5;0.0;0.0;-0.212891;0.01123;0.990723;7.56;-3.22;2.38;271.0;-0.192435;0.052292
1.24;3.5;3.75;1.0;2.0;0.25;0.0;0.0;0.0;1.5;2.25;0.0;0.0;0.0;5.25;0.25;1.25;-0.190918;-0.010742;0.995117;-6.72;12.04;-1.26;243.0;-0.030142;0.033797;8.0;4.25;4.5;2.25;1.0;0.0;0.0;0.0;0.25;0.25;0.0;0.0;0.0;4.5;0.0;0.0;-0.211426;0.013184;1.00293;5.88;-3.78;2.31;301.0;-0.215768;0.039497
1.25;4.0;2.75;1.0;1.5;0.0;0.0;0.0;0.0;1.5;1.75;0.0;0.0;0.0;4.75;0.25;1.25;-0.177246;0.018066;1.006348;-8.19;15.12;-1.4;217.0;-0.029995;0.049262;8.75;4.0;5.0;2.5;1.25;0.0;0.0;0.0;0.25;0.25;0.0;0.0;0.0;5.25;0.0;0.0;-0.205078;0.016113;0.98291;3.71;-4.97;2.1;329.0;-0.205667;0.044975
1.26;3.25;2.25;0.75;1.0;0.0;0.0;0.0;0.0;1.0;1.5;0.25;0.0;0.0;4.0;0.25;1.0;-0.208984;-0.012207;1.01123;-9.45;15.89;-1.47;176.0;-0.01975;0.046911;8.75;4.75;5.75;2.25;1.5;0.0;0.0;0.0;0.25;0.5;0.0;0.0;0.0;5.5;0.0;0.0;-0.20752;0.015137;0.978516;2.1;-6.51;2.17;353.0;-0.202436;0.045059
1.27;2.25;1.75;0.5;0.75;0.0;0.0;0.0;0.0;0.75;1.25;0.0;0.0;0.0;3.75;0.25;1.0;-0.200195;-0.012695;0.997559;-10.78;15.61;-1.54;139.0;0.015515;0.04975;9.0;5.25;6.0;2.75;2.0;0.0;0.0;0.0;0.25;0.5;0.0;0.0;0.0;6.0;0.0;0.0;-0.205566;0.010742;0.987305;1.75;-7.21;2.03;383.0;-0.199692;0.040323
1.28;2.25;1.25;0.5;0.25;0.0;0.0;0.0;0.0;0.25;1.0;0.0;0.0;0.0;2.75;0.0;0.5;-0.251465;0.011719;1.008301;-9.66;13.79;-1.89;99.0;-0.030684;0.064712;10.0;5.25;6.25;3.25;2.0;0.25;0.0;0.0;0.25;0.75;0.0;0.0;0.0;6.5;0.0;0.0;-0.200195;0.018555;0.988281;0.7;-7.42;2.1;416.0;-0.196551;0.037977
1.29;2.25;0.75;0.25;0.25;0.25;0.0;0.0;0.0;0.25;0.5;0.25;0.0;0.0;2.25;0.25;0.5;-0.156738;-0.023438;0.971191;-8.19;12.6;-2.45;88.0;-0.021129;0.060073;10.5;5.25;6.25;3.5;2.25;0.25;0.0;0.0;0.5;1.0;0.0;0.0;0.0;7.0;0.0;0.0;-0.205566;0.018066;0.991211;-0.07;-7.07;1.96;441.0;-0.185508;0.041077
1.3;2.0;0.25;0.25;0.25;0.0;0.0;0.0;0.0;0.25;0.25;0.0;0.0;0.0;1.25;0.0;0.75;-0.1875;-0.001953;0.980469;-5.53;11.48;-3.15;59.0;-0.072294;0.064825;10.0;6.0;7.25;4.25;3.0;0.25;0.25;0.0;0.75;0.75;0.0;0.0;0.0;7.25;0.25;0.0;-0.206055;0.018066;0.994629;-0.63;-6.23;1.68;487.0;-0.179512;0.03655
1.31;1.5;0.25;0.25;0.25;0.25;0.0;0.0;0.0;0.25;0.0;0.0;0.0;0.0;0.5;0.0;0.25;-0.208008;0.060059;0.939453;-1.89;9.94;-5.53;42.0;0.0;0.0;10.0;6.5;7.25;4.25;3.0;0.25;0.25;0.0;0.75;0.75;0.0;0.0;0.0;8.25;0.25;0.25;-0.202148;0.02002;0.991699;-1.12;-5.32;1.54;505.0;-0.168482;0.036048
1.32;1.0;0.25;0.25;0.25;0.25;0.0;0.0;0.0;0.0;0.25;0.0;0.0;0.0;0.5;0.0;0.25;-0.225098;0.183594;0.927734;0.56;7.63;-14.21;35.0;0.0;0.0;10.0;6.0;7.25;3.75;3.0;0.25;0.25;0.0;1.0;0.75;0.0;0.0;0.0;8.75;0.25;0.25;-0.196777;0.018555;0.990723;-1.68;-3.99;1.19;502.0;-0.155003;0.04498
1.33;0.25;0.25;0.25;0.25;0.0;0.0;0.0;0.0;0.25;0.5;0.0;0.0;0.0;0.75;0.0;0.5;-0.199707;-0.040039;0.956543;3.99;4.41;-28.91;33.0;0.0;0.0;10.0;6.0;7.25;4.0;3.0;0.25;0.25;0.0;1.0;1.0;0.0;0.0;0.0;9.0;0.0;0.0;-0.200195;0.011719;0.984375;-1.89;-3.57;1.05;506.0;-0.155714;0.045943
1.34;0.25;0.5;0.0;0.25;0.0;0.0;0.0;0.0;0.0;0.0;0.0;0.0;0.0;0.5;0.0;0.75;-0.149414;-0.054688;0.961426;4.27;3.43;-28.91;22.0;0.0;0.0;10.5;5.75;7.0;4.25;3.25;0.25;0.25;0.0;1.25;1.0;0.25;0.0;0.0;10.0;0.0;0.0;-0.20166;0.017578;0.993164;-1.54;-3.36;1.12;530.0;-0.141004;0.049186
1.35;0.25;0.5;0.0;0.25;0.0;0.0;0.0;0.0;0.25;0.25;0.0;0.0;0.0;0.25;0.0;0.25;-0.174805;-0.099121;0.960938;2.94;2.87;-24.15;23.0;0.0;0.0;10.5;5.75;6.5;4.25;3.25;0.25;0.5;0.0;1.25;1.0;0.0;0.0;0.0;11.25;0.25;0.0;-0.196289;0.018066;0.989746;-1.61;-3.15;1.19;540.0;-0.123581;0.053509
1.36;0.0;0.0;0.25;0.25;0.0;0.0;0.0;0.0;0.25;0.25;0.0;0.0;0.0;0.5;0.0;0.25;-0.150391;-0.064453;0.955566;2.94;4.69;-17.5;20.0;0.0;0.0;10.5;5.5;7.25;4.0;3.5;0.25;0.5;0.0;1.25;1.0;0.0;0.25;0.0;11.5;0.25;0.0;-0.193848;0.009766;0.987793;-1.47;-2.8;1.12;553.0;-0.119375;0.05553
1.37;0.25;0.0;0.0;0.25;0.0;0.0;0.0;0.0;0.0;0.5;0.0;0.0;0.0;0.25;0.0;0.25;-0.193359;-0.096191;0.961914;0.28;4.2;-11.13;17.0;0.0;0.0;10.5;5.25;7.25;3.75;3.25;0.25;0.5;0.0;1.25;1.5;0.0;0.0;0.0;11.5;0.25;0.25;-0.200195;0.015137;0.98584;-1.4;-2.59;1.12;548.0;-0.113228;0.059317
1.38;0.0;0.25;0.25;0.25;0.0;0.0;0.0;0.0;0.25;0.5;0.0;0.0;0.0;0.25;0.0;0.25;-0.219727;-0.074219;0.973145;-0.35;4.62;-5.81;24.0;0.0;0.0;9.0;5.25;7.25;3.5;3.25;0.25;0.5;0.0;1.5;1.75;0.0;0.0;0.0;11.5;0.0;0.25;-0.200195;0.012207;0.983887;-1.33;-2.24;1.12;530.0;-0.100262;0.061784
1.39;0.25;0.0;0.0;0.25;0.0;0.0;0.0;0.0;0.0;0.5;0.0;0.0;0.0;0.75;0.0;0.75;-0.232422;-0.062988;0.959473;-1.75;3.92;-1.96;25.0;0.0;0.0;8.75;5.25;6.75;3.25;3.25;0.25;0.5;0.0;1.5;1.25;0.0;0.0;0.0;10.5;0.25;0.25;-0.205078;0.022461;0.987793;-1.26;-2.1;1.05;504.0;-0.10636;0.059744
1.4;0.25;0.0;0.0;0.25;0.0;0.0;0.0;0.0;0.0;0.5;0.0;0.0;0.0;1.5;0.0;0.5;-0.205566;-0.016113;0.971191;-2.59;2.94;-0.77;31.0;0.0;0.0;9.0;4.75;6.25;3.25;3.25;0.25;0.5;0.0;1.75;1.5;0.0;0.0;0.0;11.25;0.25;0.25;-0.200195;0.018066;0.984863;-1.33;-1.89;1.12;510.0;-0.090071;0.065539
1.41;0.25;0.25;0.25;0.25;0.0;0.0;0.0;0.0;0.25;0.5;0.0;0.0;0.0;2.75;0.0;0.5;-0.202637;-0.010742;0.960449;-3.15;-0.07;-0.91;54.0;0.203756;0.090344;8.75;4.25;6.0;3.25;3.25;0.25;0.5;0.0;1.75;1.75;0.0;0.0;0.0;11.25;0.25;0.25;-0.200195;0.01123;0.985352;-1.33;-1.61;0.91;501.0;-0.081311;0.067657
1.42;0.5;0.25;0.0;0.25;0.0;0.0;0.0;0.0;0.25;0.75;0.0;0.0;0.0;4.0;0.0;0.75;-0.20459;-0.010742;0.963867;-3.71;-2.52;-1.12;71.0;0.241946;0.096484;8.75;4.25;6.0;3.0;3.25;0.25;0.5;0.0;1.75;2.0;0.25;0.0;0.0;11.75;0.75;0.25;-0.201172;0.016113;0.987793;-1.4;-1.33;0.98;515.0;-0.065387;0.06765
1.43;0.5;0.25;0.25;0.25;0.0;0.0;0.0;0.0;0.25;0.75;0.0;0.0;0.0;4.75;0.25;0.75;-0.210938;-0.021973;0.962891;-3.78;-4.48;-1.26;85.0;0.243425;0.096905;7.75;4.5;6.0;3.0;3.25;0.25;0.5;0.0;1.75;2.25;0.0;0.0;0.0;11.25;0.25;0.25;-0.203613;0.021484;0.990234;-1.54;-1.19;0.84;494.0;-0.069697;0.067212
1.44;1.0;0.25;0.25;0.25;0.0;0.0;0.0;0.0;0.25;1.0;0.25;0.0;0.0;5.75;0.25;0.75;-0.20459;-0.019531;0.962891;-3.64;-6.51;-1.19;107.0;0.221583;0.098091;7.0;4.25;5.75;2.75;3.25;0.25;0.5;0.0;1.75;2.25;0.0;0.0;0.0;11.25;0.0;0.5;-0.204102;0.013184;0.990723;-1.54;-0.91;0.98;474.0;-0.059935;0.069307
1.45;1.5;0.25;0.25;0.25;0.0;0.0;0.0;0.0;0.5;0.75;0.0;0.0;0.0;7.25;0.25;1.0;-0.201172;-0.013184;0.969238;-2.8;-7.28;-1.12;128.0;0.216339;0.114317;7.25;4.25;5.75;2.75;3.0;0.0;0.5;0.0;1.75;2.0;0.0;0.0;0.0;11.25;0.25;0.25;-0.198242;0.015137;0.991699;-1.68;-0.84;1.12;469.0;-0.061423;0.072346
1.46;1.75;0.75;0.25;0.25;0.0;0.0;0.0;0.0;0.75;1.0;0.0;0.0;0.0;8.5;0.25;1.0;-0.207031;-0.024414;0.984375;-1.05;-7.7;-0.91;156.0;0.19915;0.11246;7.0;4.25;5.5;2.5;3.0;0.0;0.5;0.0;2.0;1.75;0.0;0.0;0.0;11.25;0.25;0.0;-0.207031;0.016113;0.986816;-1.61;-0.84;0.98;458.0;-0.056828;0.077246
1.47;2.0;1.0;0.5;0.5;0.25;0.0;0.0;0.0;0.75;1.0;0.0;0.0;0.0;9.5;0.25;0.5;-0.193359;-0.018066;0.988281;-0.14;-7.63;-0.84;179.0;0.164935;0.111948;6.75;4.25;5.75;2.75;3.0;0.25;0.5;0.0;2.25;2.0;0.0;0.0;0.0;11.5;0.25;0.25;-0.207031;0.016113;0.987305;-1.68;-0.63;1.05;476.0;-0.049854;0.07339
1.48;2.5;1.25;0.5;0.75;0.25;0.0;0.0;0.0;0.5;1.25;0.25;0.0;0.0;10.25;0.25;0.5;-0.19873;-0.020996;0.997559;1.96;-5.88;-0.49;201.0;0.14181;0.0976;6.5;3.75;5.75;2.75;3.0;0.25;0.5;0.0;2.0;2.25;0.0;0.0;0.0;11.25;0.25;0.25;-0.205078;0.01416;0.977051;-1.68;-0.63;0.98;464.0;-0.046298;0.073675
1.49;3.0;1.5;0.5;1.0;0.25;0.0;0.0;0.0;0.5;1.0;0.0;0.0;0.0;11.0;0.5;1.0;-0.19873;-0.02002;0.992676;2.1;-5.11;-0.07;221.0;0.126897;0.087539;6.5;3.75;5.25;2.5;3.0;0.0;0.5;0.0;2.25;1.75;0.0;0.0;0.0;11.25;0.25;0.25;-0.207031;0.011719;0.981445;-1.61;-0.63;1.12;449.0;-0.041838;0.080024
1.5;3.25;1.5;0.75;1.25;0.0;0.0;0.0;0.0;1.0;1.0;0.25;0.0;0.0;11.5;0.5;1.0;-0.195312;-0.020508;0.987305;2.45;-4.41;-0.07;244.0;0.123977;0.089246;6.5;3.75;5.0;2.5;2.75;0.0;0.5;0.0;2.25;2.25;0.0;0.0;0.0;11.0;0.25;0.25;-0.20166;0.015137;0.98291;-1.54;-0.63;1.19;446.0;-0.038197;0.079313
1.51;3.0;1.75;0.75;1.25;0.0;0.0;0.0;0.0;1.0;1.5;0.25;0.0;0.0;11.75;0.5;1.0;-0.201172;-0.016602;0.98877;2.73;-3.57;0.0;252.0;0.130312;0.086473;5.5;3.75;4.75;2.25;2.25;0.0;0.5;0.0;2.25;2.25;0.0;0.0;0.0;11.5;0.5;0.25;-0.20166;0.014648;0.988281;-1.61;-0.14;0.98;428.0;-0.014043;0.08097
1.52;3.0;2.25;1.0;1.5;0.0;0.0;0.0;0.0;1.0;1.75;0.25;0.0;0.0;11.75;0.75;1.25;-0.197266;-0.011719;0.985352;3.08;-3.29;0.07;272.0;0.115123;0.073051;5.0;3.0;4.75;2.25;2.25;0.0;0.5;0.0;2.25;2.25;0.0;0.0;0.0;11.75;0.5;0.25;-0.207031;0.017578;0.983398;-1.75;0.14;0.84;417.0;0.002345;0.086056
1.53;3.25;2.25;1.0;1.5;0.25;0.0;0.0;0.0;1.0;1.5;0.25;0.0;0.0;11.75;0.75;1.5;-0.194824;-0.013184;0.987305;2.73;-2.94;0.0;277.0;0.106498;0.07116;4.0;3.0;3.5;2.0;2.25;0.25;0.5;0.0;2.5;2.25;0.0;0.0;0.0;11.5;0.25;0.25;-0.200195;0.012695;0.987793;-1.82;0.14;0.7;386.0;0.024713;0.087469
1.54;3.75;2.5;1.25;1.5;0.25;0.0;0.0;0.0;1.0;1.75;0.25;0.0;0.0;11.5;1.0;1.5;-0.197754;-0.008301;0.98877;2.45;-2.94;0.14;293.0;0.088542;0.067292;4.0;2.75;3.5;1.75;2.25;0.25;0.25;0.0;2.5;2.25;0.0;0.0;0.0;11.5;0.5;0.25;-0.207031;0.015137;0.987793;-1.96;0.35;0.7;378.0;0.03315;0.08879
1.55;3.75;2.5;1.25;2.0;0.25;0.0;0.0;0.0;1.25;2.0;0.25;0.0;0.0;11.75;0.5;1.75;-0.199219;-0.013672;0.981934;2.1;-3.01;0.07;304.0;0.08172;0.065587;3.5;2.5;3.5;1.5;2.0;0.0;0.25;0.0;2.25;2.25;0.0;0.0;0.0;11.5;0.5;0.25;-0.203125;0.020508;0.986328;-2.03;0.49;0.56;356.0;0.047902;0.094834
1.56;3.5;2.75;1.25;2.0;0.25;0.0;0.0;0.0;1.25;2.0;0.25;0.0;0.25;11.75;0.5;2.0;-0.19043;-0.012207;0.973633;2.52;-3.29;0.21;308.0;0.084315;0.056707;3.25;2.5;2.75;1.5;2.0;0.25;0.25;0.0;2.5;2.0;0.0;0.0;0.0;11.5;0.5;0.25;-0.203613;0.01416;0.98877;-2.1;0.63;0.49;347.0;0.059735;0.093719
1.57;3.75;2.75;1.25;2.25;0.5;0.0;0.0;0.0;1.25;2.0;0.25;0.0;0.0;11.75;0.75;2.0;-0.186035;-0.015137;0.985352;2.8;-3.01;0.35;318.0;0.076075;0.057167;3.0;2.0;2.25;1.5;1.75;0.25;0.25;0.0;2.25;2.25;0.0;0.0;0.0;12.0;0.75;0.25;-0.20166;0.013672;0.983398;-2.1;0.7;0.56;335.0;0.088101;0.095512
1.58;4.0;2.75;1.25;2.25;0.5;0.0;0.0;0.0;1.0;2.25;0.25;0.0;0.0;10.75;1.0;2.0;-0.185059;-0.01416;0.993164;2.17;-2.31;0.35;314.0;0.063151;0.049751;2.75;2.0;2.25;1.25;1.5;0.0;0.25;0.0;2.25;2.25;0.0;0.0;0.0;12.25;0.75;0.25;-0.205566;0.019531;0.981934;-2.1;0.7;0.42;325.0;0.103668;0.103295
1.59;3.75;3.0;1.25;2.25;0.5;0.0;0.0;0.0;1.0;2.5;0.25;0.25;0.0;10.75;1.5;2.0;-0.189453;-0.004395;0.995117;1.4;-1.12;0.21;326.0;0.073219;0.041622;3.0;2.25;2.25;1.25;1.5;0.0;0.25;0.0;2.5;2.25;0.0;0.0;0.0;12.0;0.75;0.5;-0.203613;0.01416;0.984375;-2.1;0.77;0.49;334.0;0.095345;0.100539
1.6;3.75;3.0;1.25;2.25;0.75;0.0;0.0;0.0;1.0;2.5;0.0;0.25;0.0;10.75;1.75;2.0;-0.187012;-0.006348;0.98877;0.56;-0.49;0.0;329.0;0.072968;0.04214;2.5;1.5;1.75;1.25;1.5;0.0;0.25;0.0;2.5;2.5;0.0;0.0;0.0;12.0;1.0;0.25;-0.204102;0.01416;0.983398;-2.1;0.91;0.56;317.0;0.129186;0.107525
1.61;4.0;2.75;1.25;2.25;0.25;0.25;0.0;0.0;1.0;2.5;0.0;0.25;0.0;10.75;1.0;2.0;-0.187988;-0.008789;0.98584;-0.42;0.63;-0.14;317.0;0.064459;0.044651;2.25;1.25;1.5;0.75;1.25;0.0;0.25;0.0;2.25;2.5;0.0;0.0;0.0;12.0;0.75;0.0;-0.206055;0.013672;0.987305;-2.03;1.05;0.42;290.0;0.150943;0.120528
1.62;3.75;2.75;1.5;2.25;0.75;0.25;0.0;0.25;1.0;2.5;0.0;0.0;0.0;10.75;0.75;2.25;-0.187988;-0.005371;0.986328;-0.56;0.77;-0.07;324.0;0.057361;0.041442;1.75;1.25;1.25;0.75;1.75;0.0;0.25;0.0;3.0;2.5;0.0;0.0;0.0;12.0;0.5;0.25;-0.208984;0.016113;0.984863;-2.24;0.98;0.49;297.0;0.16367;0.125664
1.63;3.5;3.0;1.25;2.25;1.0;0.0;0.0;0.25;1.25;2.25;0.0;0.0;0.0;10.75;1.0;2.25;-0.19043;-0.010254;0.985352;-0.7;0.49;-0.14;324.0;0.065339;0.043301;1.5;0.75;1.5;0.75;1.25;0.0;0.25;0.0;2.5;2.25;0.0;0.0;0.0;12.25;0.75;0.25;-0.205078;0.01416;0.986328;-2.24;0.49;0.56;280.0;0.184593;0.127358
1.64;3.75;3.0;1.25;2.25;0.25;0.0;0.0;0.25;1.25;2.75;0.25;0.0;0.0;11.0;1.5;1.75;-0.185059;-0.010254;0.981934;-0.91;0.49;-0.14;332.0;0.077656;0.044402;1.75;1.5;1.25;0.5;1.0;0.0;0.25;0.0;2.5;2.25;0.0;0.0;0.0;12.25;0.5;0.25;-0.208008;0.017578;0.98584;-2.17;0.14;0.7;278.0;0.172266;0.126161
1.65;4.0;3.0;1.5;2.25;0.25;0.0;0.0;0.25;1.5;3.0;0.25;0.25;0.25;11.25;1.75;2.0;-0.184082;-0.010742;0.980957;-0.98;0.21;0.0;358.0;0.081991;0.039673;1.5;2.0;1.25;0.5;1.0;0.0;0.25;0.0;2.5;2.5;0.0;0.0;0.0;12.0;0.75;0.25;-0.200195;0.013672;0.980957;-2.24;-0.21;0.91;284.0;0.168287;0.117238
1.66;3.75;3.0;1.5;2.25;0.75;0.0;0.0;0.25;1.0;3.25;0.25;0.0;0.0;11.25;1.5;2.0;-0.189453;-0.01123;0.98291;-1.26;0.28;-0.07;348.0;0.075191;0.042227;1.5;0.75;1.5;0.5;1.25;0.0;0.25;0.0;2.75;2.25;0.0;0.0;0.0;12.25;0.5;0.25;-0.20166;0.016113;0.978516;-2.1;-0.49;0.91;277.0;0.188673;0.135962
1.67;3.75;3.0;1.25;2.75;1.0;0.0;0.0;0.0;1.75;3.25;0.0;0.0;0.0;11.0;1.75;2.25;-0.186523;-0.008301;0.991211;-1.4;0.56;-0.07;361.0;0.077396;0.047882;1.5;0.75;1.5;0.5;1.25;0.0;0.25;0.0;2.5;2.5;0.0;0.0;0.0;12.0;0.5;0.25;-0.206055;0.015137;0.987305;-2.17;-0.63;0.84;274.0;0.186221;0.132782
1.68;4.25;3.25;1.25;2.5;1.0;0.0;0.0;0.0;1.5;3.0;0.25;0.25;0.0;11.0;1.75;2.5;-0.187012;-0.01416;0.986816;-1.26;0.42;-0.07;368.0;0.069185;0.041264;1.75;0.75;1.25;0.5;1.25;0.0;0.25;0.0;2.75;2.5;0.0;0.0;0.0;12.75;0.75;0.25;-0.208008;0.013184;0.98291;-2.1;-0.42;0.84;288.0;0.194458;0.133809
1.69;4.25;3.25;1.5;2.25;1.0;0.25;0.0;0.0;1.75;2.75;0.25;0.0;0.0;10.75;2.0;2.25;-0.191895;-0.004883;0.982422;-1.4;0.84;-0.07;368.0;0.065961;0.046042;2.0;0.25;1.25;0.5;1.25;0.0;0.25;0.0;2.5;2.5;0.0;0.0;0.0;12.25;0.5;0.25;-0.203613;0.015137;0.98584;-2.03;-0.14;0.91;274.0;0.192658;0.13922
1.7;4.0;3.25;1.75;2.5;1.25;0.25;0.0;0.25;1.75;3.0;0.25;0.0;0.0;11.0;1.75;2.0;-0.19043;-0.006836;0.983398;-1.26;0.84;0.07;380.0;0.060907;0.042059;1.5;0.25;1.25;0.5;1.25;0.0;0.25;0.0;2.5;2.25;0.0;0.0;0.0;12.0;0.5;0.25;-0.205078;0.012207;0.978027;-2.1;-0.21;0.84;262.0;0.204039;0.140453
1.71;3.75;3.25;1.25;2.5;1.0;0.25;0.0;0.25;2.0;3.25;0.0;0.0;0.0;10.75;1.75;2.0;-0.180176;-0.009277;0.98877;-1.19;1.4;0.0;368.0;0.072157;0.043529;1.25;0.75;1.5;0.5;1.25;0.0;0.0;0.0;2.75;2.75;0.0;0.0;0.0;12.0;0.5;0.25;-0.214844;0.007812;0.979004;-2.03;-0.42;0.91;273.0;0.196249;0.132493
1.72;4.0;3.25;1.75;2.75;1.0;0.25;0.0;0.25;2.25;3.5;0.0;0.0;0.0;10.75;1.5;2.0;-0.184082;-0.004395;0.987793;-1.4;1.75;0.0;385.0;0.05992;0.04609;1.25;0.5;1.25;0.5;1.25;0.0;0.0;0.0;2.25;2.0;0.0;0.0;0.0;12.25;0.5;0.25;-0.206055;0.019531;0.983887;-1.96;-0.42;0.91;253.0;0.207725;0.13492
1.73;4.0;3.25;1.75;3.0;1.0;0.25;0.0;0.25;2.25;3.5;0.25;0.0;0.0;10.75;1.5;2.0;-0.182617;-0.001953;0.983398;-1.4;1.89;-0.07;392.0;0.058334;0.042525;1.5;0.5;1.25;0.5;1.25;0.0;0.0;0.0;3.0;2.25;0.0;0.0;0.0;12.0;0.75;0.0;-0.210938;0.016113;0.982422;-2.03;-0.56;0.98;270.0;0.202687;0.139641
1.74;3.75;3.5;1.75;2.75;1.0;0.0;0.0;0.25;2.0;3.5;0.25;0.25;0.0;10.75;1.75;2.0;-0.186523;-0.006348;0.982422;-1.4;2.1;0.0;387.0;0.06538;0.039319;1.25;0.5;1.25;0.5;1.25;0.0;0.0;0.0;2.75;2.25;0.0;0.0;0.0;12.0;0.75;0.0;-0.205078;0.011719;0.981934;-1.96;-0.84;0.91;263.0;0.209031;0.137996
1.75;3.75;3.25;1.75;2.75;1.0;0.0;0.0;0.25;2.0;3.5;0.25;0.0;0.0;10.75;0.75;2.0;-0.182617;-0.004395;0.978516;-1.33;2.17;-0.21;369.0;0.056152;0.047846;1.25;0.25;1.5;0.5;1.25;0.0;0.0;0.0;3.0;2.5;0.25;0.0;0.0;12.0;0.25;0.25;-0.207031;0.010254;0.976074;-1.82;-0.91;1.05;269.0;0.207087;0.141095
1.76;3.75;3.0;2.0;3.0;1.0;0.0;0.0;0.25;2.25;3.5;0.25;0.0;0.0;11.75;0.75;2.25;-0.1875;-0.004883;0.982422;-1.33;2.1;-0.07;388.0;0.066441;0.05159;1.5;0.75;1.5;0.5;1.0;0.0;0.0;0.0;3.0;2.25;0.0;0.0;0.0;11.5;0.25;0.25;-0.213379;0.007324;0.980469;-2.1;-1.05;1.05;263.0;0.186345;0.138516
1.77;3.75;3.0;1.75;2.75;1.25;0.0;0.0;0.0;2.25;3.75;0.25;0.0;0.0;11.75;1.25;2.0;-0.189453;-0.007812;0.984863;-1.61;2.52;-0.07;388.0;0.077273;0.05836;1.5;0.75;1.5;0.5;1.25;0.25;0.25;0.0;3.0;2.5;0.0;0.0;0.0;11.75;0.25;0.25;-0.206055;0.018555;0.977539;-1.96;-1.19;1.12;279.0;0.179701;0.134015
1.78;3.75;3.25;1.75;2.75;1.0;0.25;0.0;0.0;2.75;3.75;0.25;0.25;0.0;11.75;1.25;2.0;-0.186523;-0.005859;0.984375;-1.47;1.96;-0.14;402.0;0.078182;0.055535;1.5;0.75;1.25;0.5;1.5;0.0;0.0;0.0;2.5;3.0;0.0;0.0;0.0;11.75;0.0;0.25;-0.204102;0.012207;0.98584;-1.96;-1.26;1.05;267.0;0.183736;0.133609
1.79;4.0;3.5;1.75;2.75;1.0;0.0;0.0;0.25;2.75;3.75;0.25;0.25;0.0;11.75;1.5;2.0;-0.186523;-0.006836;0.984375;-1.33;1.96;-0.07;412.0;0.074572;0.051053;1.5;0.5;1.25;0.5;1.5;0.0;0.0;0.0;2.75;2.5;0.0;0.0;0.0;11.75;0.25;0.25;-0.20752;0.011719;0.983887;-1.82;-0.98;1.05;265.0;0.192376;0.137898
1.8;3.75;3.5;1.75;2.75;1.0;0.0;0.0;0.0;2.5;3.75;0.25;0.0;0.0;11.5;1.75;2.0;-0.185059;-0.005371;0.978027;-1.4;1.89;0.0;398.0;0.076908;0.054374;1.5;0.5;1.25;0.5;1.25;0.0;0.0;0.0;2.75;2.25;0.0;0.0;0.0;11.5;0.5;0.25;-0.091797;0.092773;0.981934;-1.89;-1.26;1.33;259.0;0.196263;0.136708
1.81;4.5;3.5;1.5;3.0;1.0;0.25;0.0;0.0;2.5;4.25;0.5;0.0;0.0;11.5;1.25;2.0;-0.188477;-0.009766;0.984375;-1.47;1.68;-0.07;413.0;0.062771;0.051446;1.5;1.0;1.5;0.5;1.25;0.0;0.0;0.0;2.75;2.5;0.0;0.0;0.0;11.75;0.75;0.5;-0.214844;0.012207;0.984375;-1.82;-0.91;0.98;278.0;0.18436;0.12462
1.82;4.0;3.75;1.5;3.0;0.25;0.0;0.0;0.0;2.5;4.25;0.25;0.0;0.0;11.5;1.0;2.0;-0.188965;-0.01123;0.979492;-1.61;1.82;-0.07;391.0;0.06923;0.053857;1.5;1.0;1.75;0.5;1.25;0.0;0.0;0.0;3.0;2.75;0.0;0.0;0.0;12.0;0.75;0.5;-0.209473;0.01709;0.977539;-1.82;-0.84;1.12;291.0;0.182758;0.126041
1.83;3.75;3.75;1.75;3.0;1.0;0.0;0.0;0.0;2.5;4.25;0.25;0.25;0.0;11.5;1.25;1.5;-0.18457;-0.006836;0.981934;-1.75;1.89;-0.14;404.0;0.066721;0.053069;1.75;0.5;1.25;0.5;1.25;0.0;0.0;0.0;3.25;2.75;0.0;0.0;0.0;12.0;0.75;0.5;-0.208496;0.010254;0.980957;-1.82;-0.84;1.12;286.0;0.199456;0.134384
1.84;3.75;3.75;1.75;3.0;1.0;0.25;0.0;0.0;2.5;3.75;0.25;0.25;0.0;11.5;1.25;1.25;-0.183594;-0.01123;0.981934;-1.61;1.68;0.0;399.0;0.061044;0.051726;1.5;0.25;1.25;0.5;1.0;0.0;0.25;0.0;3.0;3.25;0.0;0.0;0.0;11.75;1.0;0.25;-0.206055;0.01123;0.984863;-1.68;-0.91;0.98;283.0;0.213552;0.136453
1.85;4.25;4.0;1.75;3.0;1.5;0.0;0.0;0.0;2.75;3.75;0.25;0.25;0.0;11.5;1.75;2.0;-0.184082;-0.015137;0.980957;-1.4;1.61;-0.07;426.0;0.060243;0.049699;1.0;0.25;1.25;0.25;1.0;0.0;0.0;0.0;3.25;3.0;0.0;0.0;0.0;11.75;0.25;0.25;-0.204102;0.01123;0.984375;-1.75;-0.77;1.12;260.0;0.230151;0.150654
1.86;3.75;3.75;1.75;3.25;1.25;0.0;0.0;0.0;2.75;4.0;0.25;0.25;0.25;11.5;1.5;1.0;-0.186523;-0.005371;0.980469;-1.4;1.47;-0.07;414.0;0.063804;0.051597;1.25;0.25;1.5;0.5;1.0;0.0;0.0;0.0;3.5;2.75;0.0;0.0;0.0;11.5;0.25;0.25;-0.202637;0.007812;0.980957;-1.75;-0.84;1.19;268.0;0.208865;0.147364
1.87;3.5;4.0;1.75;3.25;1.25;0.25;0.0;0.25;3.0;4.0;0.5;0.0;0.0;11.5;1.25;1.75;-0.179688;-0.01123;0.982422;-1.33;1.54;0.0;424.0;0.063718;0.04582;1.25;0.5;1.25;0.25;1.25;0.0;0.0;0.0;3.25;2.75;0.0;0.0;0.0;11.25;0.25;0.25;-0.212891;0.01416;0.979004;-1.68;-0.91;1.19;261.0;0.207665;0.146193
1.88;3.75;4.25;1.25;3.0;1.25;0.25;0.0;0.25;2.5;4.0;0.5;0.0;0.0;11.5;1.5;2.0;-0.188477;-0.003418;0.985352;-1.54;1.68;0.07;417.0;0.06522;0.039679;1.25;0.25;1.25;0.25;1.25;0.0;0.0;0.0;3.0;2.75;0.0;0.0;0.0;11.5;0.5;0.5;-0.208984;0.013672;0.983398;-1.75;-1.05;1.19;262.0;0.21884;0.142311
1.89;4.5;4.75;1.25;3.25;1.0;0.0;0.0;0.25;3.0;4.0;0.5;0.25;0.25;11.5;0.75;2.0;-0.187012;-0.005371;0.987305;-1.54;1.75;0.07;433.0;0.047102;0.040193;1.5;0.25;1.25;0.5;1.0;0.0;0.0;0.0;3.5;2.5;0.0;0.0;0.0;11.75;0.25;0.25;-0.208008;0.015137;0.980469;-1.68;-0.98;1.19;267.0;0.209268;0.148905
1.9;4.0;4.25;1.75;3.25;1.25;0.0;0.0;0.25;3.25;4.25;0.5;0.25;0.25;11.5;0.75;2.0;-0.187012;-0.005859;0.983398;-1.61;2.1;-0.07;438.0;0.056501;0.044989;1.0;0.25;1.0;0.25;1.0;0.0;0.0;0.0;3.25;2.5;0.0;0.0;0.0;11.75;0.5;0.0;-0.214844;0.013672;0.981934;-1.61;-0.98;1.12;252.0;0.237836;0.153696
1.91;3.75;4.0;1.75;2.5;1.5;0.25;0.0;0.25;2.5;4.0;0.5;0.25;0.0;11.5;1.5;2.0;-0.186035;-0.005859;0.979492;-1.54;2.1;-0.07;421.0;0.068216;0.043598;1.0;0.5;1.25;0.25;1.0;0.0;0.0;0.0;3.5;2.5;0.0;0.0;0.0;11.75;0.25;0.25;-0.208984;0.009277;0.982422;-1.75;-0.98;1.33;261.0;0.223443;0.151222
1.92;3.75;4.25;1.75;3.25;1.25;0.25;0.0;0.25;2.25;3.5;0.5;0.25;0.0;11.5;0.5;1.75;-0.185059;-0.008789;0.984375;-1.68;2.1;0.0;406.0;0.041769;0.038276;1.0;0.25;1.25;0.25;1.0;0.0;0.0;0.0;3.5;3.0;0.0;0.0;0.0;11.75;0.25;0.25;-0.208984;0.01416;0.981445;-1.68;-1.05;1.19;264.0;0.230538;0.152486
1.93;4.0;4.75;1.75;3.25;1.0;0.0;0.0;0.25;3.0;4.0;0.25;0.25;0.0;11.5;0.25;2.0;-0.184082;-0.005859;0.980469;-1.75;2.24;-0.07;421.0;0.041336;0.045986;1.25;0.25;1.5;0.25;1.0;0.0;0.0;0.0;2.75;3.0;0.0;0.0;0.0;11.25;0.75;0.25;-0.210938;0.007812;0.980469;-1.61;-1.12;1.12;260.0;0.216168;0.139517
1.94;3.75;4.5;1.75;3.5;1.0;0.0;0.0;0.25;3.0;4.0;0.25;0.0;0.0;11.5;0.75;2.0;-0.182129;-0.005859;0.981934;-1.82;2.24;-0.14;422.0;0.049231;0.04546;1.25;0.75;1.5;0.5;1.0;0.0;0.0;0.0;3.5;2.5;0.0;0.0;0.0;11.25;0.25;0.0;-0.210938;0.015137;0.980957;-1.54;-1.33;1.26;266.0;0.192677;0.144347
1.95;4.0;4.25;1.75;4.0;1.0;0.0;0.0;0.0;3.0;4.25;0.25;0.0;0.0;11.5;1.0;2.0;-0.175781;-0.002441;0.983398;-1.89;2.31;-0.28;430.0;0.048468;0.046987;1.0;0.5;1.25;0.25;1.0;0.0;0.0;0.0;3.5;2.5;0.0;0.0;0.0;11.25;0.0;0.25;-0.210938;0.013184;0.988281;-1.54;-1.47;1.26;252.0;0.217351;0.153577
1.96;3.75;4.0;1.75;3.5;1.25;0.25;0.0;0.25;2.75;4.0;0.25;0.0;0.0;11.5;0.75;2.0;-0.183594;-0.007324;0.978027;-1.82;2.45;-0.28;419.0;0.050506;0.043762;1.0;0.25;1.0;0.25;1.0;0.0;0.0;0.0;3.25;2.75;0.0;0.0;0.0;11.25;0.25;0.25;-0.214355;0.015625;0.98291;-1.61;-1.47;1.4;249.0;0.232948;0.152008
1.97;3.75;3.75;1.75;3.25;1.25;0.25;0.0;0.0;3.0;4.25;0.25;0.0;0.25;11.5;0.75;2.0;-0.188965;-0.009277;0.98291;-1.68;2.31;-0.28;418.0;0.061004;0.05122;1.0;0.25;1.0;0.25;1.0;0.0;0.0;0.0;3.5;3.25;0.0;0.0;0.0;11.5;0.5;0.25;-0.216309;0.01416;0.981445;-1.61;-1.61;1.4;264.0;0.237269;0.149228
1.98;4.0;3.75;1.5;3.5;1.25;0.25;0.0;0.0;3.25;4.25;0.25;0.0;0.0;11.5;1.0;2.0;-0.186523;-0.001465;0.981445;-1.82;2.38;-0.21;425.0;0.061191;0.053372;1.5;0.0;1.25;0.25;1.0;0.0;0.0;0.0;3.5;3.0;0.0;0.0;0.0;11.75;0.5;0.25;-0.212402;0.015137;0.979492;-1.47;-1.61;1.26;271.0;0.224692;0.152032
1.99;4.0;4.0;1.75;3.5;1.25;0.25;0.0;0.25;3.0;4.25;0.25;0.0;0.0;11.5;1.25;2.0;-0.18457;-0.005859;0.987793;-1.61;2.38;-0.14;435.0;0.055621;0.044633;1.0;0.25;1.0;0.25;1.0;0.0;0.0;0.0;3.5;2.75;0.0;0.0;0.0;11.25;0.75;0.25;-0.210449;0.015137;0.98584;-1.61;-1.61;1.26;259.0;0.237529;0.1482
2.0;3.75;4.25;1.75;4.0;1.25;0.25;0.0;0.0;3.0;4.25;0.25;0.0;0.0;11.0;1.25;2.0;-0.183594;-0.005859;0.983887;-1.75;2.24;-0.21;432.0;0.047198;0.04177;1.0;0.0;1.0;0.25;1.0;0.0;0.0;0.0;3.5;2.75;0.0;0.0;0.0;11.25;0.75;0.25;-0.210449;0.016602;0.977539;-1.54;-1.68;1.33;256.0;0.244582;0.151589
2.01;3.75;3.75;1.75;3.25;1.25;0.25;0.0;0.0;3.0;4.25;0.0;0.25;0.0;11.5;1.0;1.5;-0.186035;-0.008789;0.981445;-1.75;2.31;-0.14;415.0;0.060492;0.054843;1.25;0.25;1.25;0.25;1.0;0.0;0.0;0.0;3.5;3.25;0.0;0.0;0.0;11.75;0.5;0.25;-0.210449;0.016602;0.98877;-1.61;-1.61;1.26;273.0;0.225506;0.148305
2.02;4.0;3.75;1.75;2.75;1.0;0.0;0.0;0.25;3.0;4.25;0.25;0.0;0.0;11.5;1.0;2.0;-0.189941;-0.005371;0.977539;-1.75;2.31;-0.28;413.0;0.067368;0.055798;1.0;0.25;1.25;0.5;1.0;0.0;0.0;0.0;3.5;3.0;0.0;0.0;0.0;11.75;0.5;0.25;-0.209473;0.012207;0.985352;-1.54;-1.47;1.33;270.0;0.226304;0.145196
2.03;3.75;3.75;1.5;3.25;1.0;0.0;0.0;0.0;3.0;4.0;0.25;0.0;0.25;11.5;1.5;2.0;-0.186035;-0.007812;0.986328;-1.82;2.38;-0.14;414.0;0.073296;0.050265;0.75;0.25;1.25;0.5;1.0;0.0;0.0;0.0;3.25;2.75;0.0;0.0;0.0;11.75;0.75;0.25;-0.209961;0.01709;0.979004;-1.61;-1.54;1.26;263.0;0.235242;0.141965
2.04;3.75;3.75;1.5;3.25;1.25;0.0;0.0;0.0;3.0;4.25;0.0;0.25;0.25;11.5;1.75;2.0;-0.186035;-0.004883;0.974121;-1.75;2.17;-0.28;424.0;0.075326;0.048125;1.0;0.25;1.25;0.25;1.0;0.0;0.0;0.0;3.25;3.0;0.0;0.0;0.0;12.0;0.75;0.25;-0.208984;0.016113;0.98291;-1.47;-1.54;1.33;269.0;0.236009;0.145499
2.05;4.0;4.0;1.5;3.25;1.25;0.0;0.0;0.25;3.0;4.25;0.25;0.0;0.25;11.0;1.0;2.0;-0.182129;-0.006348;0.984863;-1.82;2.17;-0.21;420.0;0.056228;0.045096;1.0;0.25;1.0;0.0;1.0;0.0;0.0;0.0;3.5;3.25;0.0;0.0;0.0;11.5;0.25;0.25;-0.212891;0.010254;0.988281;-1.47;-1.54;1.33;258.0;0.241874;0.156789
2.06;3.75;3.75;1.75;2.75;1.0;0.0;0.0;0.0;3.0;4.25;0.25;0.0;0.0;11.0;0.75;2.0;-0.185059;-0.010254;0.977539;-1.89;2.45;-0.14;397.0;0.064859;0.060049;1.0;0.25;1.25;0.25;1.0;0.0;0.25;0.0;3.5;3.25;0.0;0.0;0.0;11.5;0.25;0.25;-0.211914;0.012207;0.980469;-1.61;-1.54;1.33;269.0;0.226438;0.152727
2.07;3.75;4.0;1.75;2.5;1.0;0.25;0.0;0.0;2.5;4.25;0.25;0.0;0.25;11.0;1.0;2.0;-0.186523;-0.008301;0.978516;-1.75;2.24;-0.21;398.0;0.062252;0.04941;1.0;0.0;1.25;0.5;1.25;0.0;0.0;0.0;3.5;2.5;0.0;0.0;0.0;11.5;0.5;0.25;-0.208008;0.009766;0.980957;-1.61;-1.82;1.26;262.0;0.22653;0.149034
2.08;3.75;4.0;1.75;3.0;1.25;0.25;0.0;0.0;3.0;4.5;0.0;0.0;0.25;11.5;1.25;2.0;-0.191406;-0.004883;0.983887;-1.75;2.24;-0.28;423.0;0.065812;0.0513;1.0;0.25;1.5;0.5;1.25;0.0;0.0;0.0;3.25;3.25;0.0;0.0;0.0;11.75;0.5;0.25;-0.208008;0.015137;0.98291;-1.61;-1.82;1.33;276.0;0.215922;0.140783
2.09;4.0;3.75;2.25;3.25;1.0;0.25;0.0;0.25;3.0;4.25;0.0;0.25;0.25;11.5;1.25;1.75;-0.184082;-0.003418;0.983398;-1.75;2.24;-0.21;434.0;0.057066;0.045602;1.0;0.25;1.0;0.5;1.25;0.0;0.0;0.0;3.0;3.0;0.0;0.0;0.0;12.0;0.5;0.25;-0.213379;0.013672;0.985352;-1.61;-1.89;1.33;265.0;0.229047;0.141366
2.1;3.75;4.0;1.5;3.0;1.25;0.0;0.0;0.0;3.0;4.25;0.25;0.0;0.0;10.75;1.25;1.75;-0.186035;-0.008301;0.984863;-1.82;2.24;-0.21;405.0;0.061849;0.05453;1.0;0.25;1.0;0.25;1.25;0.0;0.0;0.0;3.5;3.0;0.0;0.0;0.0;11.75;0.5;0.25;-0.206543;0.013672;0.984375;-1.61;-1.82;1.33;267.0;0.234444;0.149412
2.11;3.75;3.75;1.25;3.0;1.25;0.0;0.0;0.0;3.0;4.25;0.25;0.0;0.0;11.0;1.25;1.75;-0.185547;-0.008301;0.980957;-1.82;2.31;-0.28;402.0;0.070075;0.056537;1.0;0.25;1.5;0.5;1.25;0.0;0.0;0.0;3.5;3.0;0.0;0.0;0.0;11.75;0.75;0.25;-0.210938;0.004883;0.987305;-1.68;-1.96;1.33;280.0;0.218354;0.141012
2.12;3.75;4.25;1.75;3.0;1.0;0.25;0.0;0.0;3.0;4.5;0.25;0.0;0.0;10.75;0.75;1.75;-0.185547;-0.009766;0.979004;-1.82;2.24;-0.21;408.0;0.051788;0.05282;1.0;0.5;1.5;0.5;1.25;0.0;0.25;0.0;3.25;2.5;0.0;0.0;0.0;12.0;0.75;0.25;-0.208984;0.010742;0.980957;-1.68;-1.96;1.4;280.0;0.210622;0.139791
2.13;4.0;4.5;1.75;3.0;1.0;0.0;0.0;0.0;3.0;4.25;0.25;0.25;0.0;10.75;1.0;2.0;-0.1875;-0.007324;0.98584;-1.75;2.17;-0.21;415.0;0.050531;0.049166;1.75;0.5;1.25;0.25;1.25;0.0;0.0;0.0;3.5;3.25;0.0;0.0;0.0;12.0;1.0;0.25;-0.210449;0.01709;0.981934;-1.54;-1.96;1.47;294.0;0.207844;0.138922
2.14;4.0;4.25;1.5;3.0;1.0;0.0;0.0;0.0;3.0;4.5;0.5;0.25;0.0;11.0;0.75;1.5;-0.185059;-0.004395;0.981934;-1.82;2.45;-0.21;412.0;0.056083;0.053779;1.0;0.75;1.25;0.25;1.5;0.0;0.25;0.0;3.5;3.75;0.0;0.0;0.0;11.75;1.0;0.25;-0.204102;0.013184;0.979492;-1.47;-2.03;1.4;299.0;0.214428;0.135853
2.15;4.0;3.5;1.25;3.0;1.0;0.0;0.0;0.0;3.0;4.5;0.5;0.25;0.0;10.75;0.75;1.75;-0.184082;-0.009277;0.979492;-1.75;2.24;-0.21;399.0;0.067542;0.05577;0.75;0.75;1.5;0.5;1.5;0.0;0.25;0.0;3.25;3.25;0.0;0.0;0.0;11.75;0.5;0.25;-0.212402;0.012695;0.980469;-1.68;-1.75;1.26;286.0;0.204395;0.135895
2.16;3.75;3.5;1.25;2.75;1.0;0.0;0.0;0.0;3.0;4.75;0.25;0.25;0.0;10.5;1.25;2.0;-0.187012;-0.006836;0.98291;-1.68;2.24;-0.14;398.0;0.078566;0.054639;1.25;0.25;1.25;0.5;1.5;0.0;0.25;0.0;3.5;3.25;0.0;0.0;0.0;12.0;0.25;0.25;-0.205078;0.016602;0.983887;-1.61;-1.68;1.33;287.0;0.209032;0.146296
2.17;4.0;4.0;1.75;2.75;1.0;0.25;0.0;0.0;3.0;4.5;0.25;0.25;0.0;10.75;1.75;1.75;-0.183594;-0.004395;0.978027;-1.89;2.31;-0.14;421.0;0.065911;0.050212;0.75;0.5;1.5;0.5;1.5;0.0;0.25;0.0;3.75;3.25;0.0;0.0;0.0;11.75;0.5;0.5;-0.206543;0.011719;0.978027;-1.54;-1.61;1.33;293.0;0.212481;0.139954
2.18;3.75;3.75;1.75;2.5;1.0;0.0;0.0;0.25;3.5;4.5;0.25;0.25;0.0;10.75;1.25;1.75;-0.186035;-0.007812;0.981934;-1.89;2.38;-0.14;415.0;0.074715;0.057297;0.75;0.5;1.5;0.5;1.5;0.0;0.25;0.0;3.75;3.25;0.0;0.0;0.0;11.75;0.5;0.5;-0.211914;0.01709;0.98291;-1.68;-1.68;1.26;293.0;0.212481;0.139954
2.19;3.75;3.75;1.5;2.75;1.0;0.0;0.0;0.25;3.25;4.25;0.25;0.25;0.0;11.0;1.0;0.75;-0.18457;-0.007812;0.982422;-1.82;2.38;-0.07;400.0;0.066462;0.060386;0.75;0.5;1.5;0.5;1.5;0.0;0.25;0.0;3.5;3.0;0.0;0.0;0.0;12.0;0.5;0.25;-0.211426;0.014648;0.984863;-1.54;-1.33;1.26;287.0;0.212524;0.141835
2.2;3.75;3.75;1.5;3.0;1.0;0.0;0.0;0.0;3.5;4.25;0.5;0.25;0.0;11.0;0.75;1.25;-0.182617;-0.007812;0.981934;-1.68;2.31;-0.21;406.0;0.067246;0.061979;1.25;0.75;1.5;0.25;1.5;0.0;0.25;0.0;3.5;3.25;0.0;0.0;0.0;12.0;0.75;0.25;-0.209961;0.01123;0.981934;-1.61;-1.4;1.33;299.0;0.201788;0.139185
2.21;3.75;3.75;1.5;3.0;1.0;0.0;0.0;0.0;3.0;4.25;0.5;0.0;0.0;10.75;1.0;1.5;-0.185059;-0.006348;0.986328;-1.89;2.38;-0.21;397.0;0.064076;0.057238;1.25;0.25;1.25;0.25;1.25;0.0;0.0;0.0;3.5;3.25;0.0;0.0;0.0;11.75;0.5;0.5;-0.212402;0.012207;0.981934;-1.47;-1.4;1.33;278.0;0.222147;0.144597
2.22;3.75;3.75;1.5;3.0;1.0;0.0;0.0;0.0;3.0;4.25;0.25;0.0;0.0;10.75;0.5;1.75;-0.191895;-0.006836;0.983398;-1.82;2.38;-0.14;390.0;0.058485;0.059325;1.0;0.25;1.5;0.5;1.25;0.25;0.25;0.0;3.5;3.25;0.0;0.0;0.0;11.75;0.5;0.5;-0.208008;0.013672;0.980469;-1.61;-1.47;1.33;290.0;0.211033;0.136975
2.23;3.5;3.75;1.25;3.0;1.0;0.0;0.0;0.0;3.25;4.25;0.25;0.0;0.0;10.75;0.25;1.5;-0.186035;-0.008301;0.982422;-1.82;2.24;-0.14;382.0;0.062946;0.063594;0.75;0.5;1.5;0.5;1.25;0.0;0.25;0.0;3.5;3.25;0.0;0.0;0.0;11.75;0.5;0.25;-0.209473;0.012695;0.977539;-1.47;-1.54;1.4;284.0;0.214942;0.141591
2.24;4.0;3.75;1.75;3.0;1.25;0.0;0.0;0.0;3.5;4.25;0.25;0.0;0.0;10.75;0.75;1.5;-0.192871;-0.008301;0.979492;-1.89;2.24;-0.28;409.0;0.056137;0.06447;0.75;0.25;1.5;0.25;1.25;0.0;0.0;0.0;3.75;3.0;0.0;0.0;0.0;11.75;0.75;0.25;-0.20752;0.018555;0.984863;-1.61;-1.75;1.33;278.0;0.231791;0.147568
2.25;4.0;3.75;1.75;2.75;1.25;0.0;0.0;0.0;3.0;4.5;0.5;0.0;0.0;10.5;0.75;1.75;-0.182129;-0.007812;0.982422;-1.82;2.31;-0.14;403.0;0.056761;0.059119;0.75;0.5;1.0;0.25;1.25;0.0;0.0;0.0;3.25;3.0;0.0;0.0;0.0;11.5;0.5;0.25;-0.211914;0.01709;0.982422;-1.54;-1.75;1.4;260.0;0.233056;0.144393
2.26;3.75;3.75;1.5;2.75;1.0;0.0;0.0;0.25;3.25;4.5;0.25;0.0;0.0;10.5;0.5;1.75;-0.181641;-0.003906;0.979492;-1.82;2.24;-0.21;395.0;0.061658;0.05789;0.75;0.5;1.0;0.25;1.5;0.0;0.0;0.0;4.0;3.25;0.0;0.0;0.0;11.75;0.75;0.25;-0.204102;0.012207;0.981445;-1.54;-1.89;1.33;284.0;0.233489;0.145727
2.27;3.75;3.75;1.25;2.75;1.25;0.0;0.0;0.0;3.5;4.5;0.5;0.0;0.25;10.5;0.5;1.5;-0.189453;-0.012695;0.974609;-1.82;2.31;-0.21;399.0;0.066388;0.061724;1.0;0.75;1.25;0.25;1.5;0.0;0.0;0.0;3.75;3.25;0.0;0.0;0.0;12.0;0.25;0.25;-0.210449;0.009766;0.978516;-1.54;-1.82;1.33;286.0;0.21194;0.145167
2.28;4.0;3.75;1.5;3.0;1.25;0.0;0.0;0.0;3.5;4.5;0.25;0.0;0.0;10.5;0.75;1.75;-0.1875;-0.008301;0.984375;-1.75;2.1;-0.14;408.0;0.059162;0.062059;1.0;0.25;1.25;0.25;1.5;0.0;0.0;0.0;3.5;3.75;0.0;0.0;0.0;12.0;0.25;0.0;-0.206543;0.015137;0.983398;-1.68;-1.75;1.26;281.0;0.223466;0.150332
2.29;4.0;3.5;1.5;3.0;1.0;0.0;0.0;0.0;3.0;4.75;0.25;0.0;0.0;10.25;1.0;1.75;-0.182617;-0.007324;0.980469;-1.75;2.1;-0.21;397.0;0.062014;0.057613;1.0;0.0;1.5;0.25;1.5;0.0;0.25;0.0;4.0;3.75;0.0;0.0;0.0;12.0;0.5;0.25;-0.205566;0.012695;0.979004;-1.61;-1.68;1.4;298.0;0.225297;0.152263
2.3;4.0;4.0;1.75;3.25;1.0;0.0;0.0;0.25;3.0;4.75;0.25;0.0;0.0;10.25;0.5;1.5;-0.191895;-0.009277;0.984375;-1.75;2.03;-0.07;406.0;0.042654;0.051138;1.0;0.25;1.5;0.25;1.75;0.25;0.25;0.0;3.5;3.25;0.25;0.0;0.0;12.0;0.25;0.25;-0.206055;0.012695;0.981934;-1.54;-1.75;1.33;294.0;0.20808;0.141802
2.31;4.0;3.75;1.75;3.0;1.0;0.0;0.0;0.0;3.25;4.5;0.25;0.0;0.0;10.25;0.25;1.75;-0.188477;-0.008301;0.977539;-1.68;2.1;-0.28;395.0;0.048206;0.061732;1.5;0.5;1.5;0.25;1.75;0.0;0.25;0.0;3.25;3.25;0.0;0.0;0.0;11.75;0.5;0.25;-0.215332;0.01416;0.983398;-1.61;-1.61;1.33;293.0;0.192806;0.141094
2.32;3.75;3.75;1.75;2.75;1.0;0.0;0.0;0.0;3.25;4.25;0.25;0.25;0.25;10.75;0.75;2.0;-0.189453;-0.007812;0.980957;-1.68;2.1;-0.14;404.0;0.066307;0.055303;1.0;0.5;1.25;0.5;1.75;0.0;0.0;0.0;3.5;4.0;0.0;0.0;0.0;11.75;0.75;0.25;-0.205078;0.016113;0.983398;-1.54;-1.47;1.4;299.0;0.21127;0.133795
2.33;3.75;3.5;1.25;2.75;1.0;0.0;0.0;0.0;3.25;4.5;0.0;0.25;0.0;10.5;1.0;2.0;-0.189941;-0.004883;0.980469;-1.75;2.24;-0.14;393.0;0.07526;0.059201;1.0;0.5;1.25;0.25;1.5;0.0;0.0;0.0;3.75;3.75;0.0;0.0;0.0;11.25;0.75;0.25;-0.205078;0.015137;0.983398;-1.47;-1.4;1.33;288.0;0.217535;0.140597
2.34;3.625;3.5;1.25;2.75;1.0;0.0;0.0;0.125;3.125;4.5;0.125;0.125;0.0;10.625;1.125;2.0;-0.18920900000000002;-0.0075685;0.9794925000000001;-1.75;2.205;-0.175;394.5;0.07819499999999999;0.055892;0.75;0.5;1.5;0.25;1.5;0.0;0.25;0.0;3.75;3.25;0.0;0.0;0.0;12.0;0.5;0.25;-0.205078;0.013672;0.988281;-1.61;-1.33;1.26;291.0;0.219055;0.146923
2.35;3.5;3.5;1.25;2.75;1.0;0.0;0.0;0.25;3.0;4.5;0.25;0.0;0.0;10.75;1.25;2.0;-0.188477;-0.010254;0.978516;-1.75;2.17;-0.21;396.0;0.08113;0.052583;0.75;0.5;1.5;0.25;1.25;0.0;0.25;0.0;3.75;3.75;0.0;0.0;0.0;11.75;0.5;0.25;-0.205566;0.01416;0.98584;-1.47;-1.4;1.26;291.0;0.221707;0.145847
2.36;3.5;3.5;1.5;3.0;1.0;0.0;0.0;0.25;3.0;4.5;0.25;0.0;0.0;10.5;1.25;1.75;-0.183105;-0.005859;0.976562;-1.96;2.38;-0.14;398.0;0.071949;0.051293;0.75;0.5;1.25;0.0;1.25;0.0;0.0;0.0;3.25;3.25;0.0;0.0;0.0;12.0;0.25;0.5;-0.208984;0.013672;0.984375;-1.54;-1.54;1.4;267.0;0.235438;0.147819
2.37;3.75;3.5;1.25;2.5;1.0;0.0;0.0;0.25;3.0;4.5;0.25;0.0;0.0;10.5;1.0;1.75;-0.187988;-0.006348;0.985352;-1.82;2.24;-0.21;388.0;0.074432;0.057167;1.25;0.25;1.5;0.25;1.5;0.0;0.25;0.0;3.5;3.25;0.0;0.0;0.0;12.0;0.5;0.25;-0.20752;0.012207;0.990234;-1.68;-1.47;1.19;290.0;0.211329;0.147375
2.38;3.75;3.5;1.5;2.5;1.25;0.0;0.0;0.0;3.0;4.5;0.25;0.0;0.0;10.25;0.75;1.75;-0.186035;-0.00293;0.979492;-1.89;2.31;-0.14;385.0;0.065868;0.063134;1.5;0.0;1.5;0.5;1.5;0.0;0.25;0.0;3.5;4.0;0.0;0.0;0.0;12.0;0.5;0.25;-0.20752;0.013672;0.983887;-1.54;-1.4;1.26;303.0;0.206275;0.143245
2.39;3.75;3.5;1.5;2.75;1.25;0.0;0.0;0.0;3.25;4.5;0.25;0.0;0.0;10.5;0.75;2.0;-0.187988;-0.010742;0.980469;-1.68;2.03;-0.21;396.0;0.06824;0.062031;1.5;0.25;1.25;0.25;1.25;0.0;0.0;0.0;3.5;3.25;0.0;0.0;0.0;11.75;0.75;0.25;-0.206543;0.009766;0.989258;-1.61;-1.54;1.19;283.0;0.216575;0.14432
2.4;3.75;3.75;1.5;2.75;1.0;0.0;0.0;0.0;3.25;4.5;0.25;0.0;0.0;10.5;1.0;1.75;-0.188477;-0.009766;0.981934;-1.75;2.1;-0.21;397.0;0.067957;0.060844;1.0;0.25;1.25;0.25;1.5;0.0;0.0;0.0;3.5;3.75;0.0;0.0;0.0;11.75;0.5;0.25;-0.20459;0.015625;0.983398;-1.54;-1.47;1.33;283.0;0.224581;0.144868
2.41;3.75;3.75;1.5;2.75;1.0;0.0;0.0;0.0;3.25;4.75;0.0;0.0;0.0;10.25;0.25;1.5;-0.186523;-0.007812;0.983398;-1.82;2.24;-0.21;384.0;0.056248;0.06661;1.25;0.25;1.25;0.0;1.5;0.0;0.0;0.0;3.5;4.0;0.0;0.0;0.0;12.0;0.25;0.25;-0.209961;0.010254;0.979004;-1.61;-1.68;1.47;285.0;0.223499;0.150629
2.42;4.0;3.5;1.5;2.5;1.0;0.0;0.0;0.0;3.0;4.5;0.25;0.0;0.0;10.5;0.25;1.75;-0.186523;-0.008301;0.986816;-1.75;2.17;-0.21;381.0;0.060397;0.066669;1.25;0.25;1.5;0.0;1.5;0.0;0.0;0.0;3.75;3.25;0.0;0.0;0.0;11.75;0.25;0.25;-0.206055;0.013672;0.981445;-1.54;-1.54;1.4;281.0;0.215863;0.154253
2.43;3.75;3.5;1.25;2.75;1.0;0.0;0.0;0.0;3.75;4.5;0.25;0.0;0.0;10.75;0.5;1.75;-0.186523;-0.006348;0.977051;-1.75;2.24;-0.21;395.0;0.074722;0.069429;1.0;0.25;1.5;0.25;1.5;0.0;0.25;0.0;3.5;3.25;0.0;0.0;0.0;11.5;0.5;0.5;-0.210449;0.013672;0.976562;-1.54;-1.68;1.4;284.0;0.215272;0.144622
2.44;3.75;3.5;1.25;2.75;1.0;0.0;0.0;0.0;3.5;4.75;0.25;0.25;0.0;11.0;0.5;1.75;-0.182617;-0.000977;0.984375;-1.82;2.24;-0.21;400.0;0.077423;0.065191;1.0;0.25;1.5;0.5;1.75;0.0;0.25;0.0;3.5;3.75;0.0;0.0;0.0;12.0;0.5;0.5;-0.213379;0.01123;0.98584;-1.61;-1.68;1.26;302.0;0.209943;0.138594
2.45;3.5;3.25;1.5;2.75;1.0;0.0;0.0;0.0;3.25;4.5;0.25;0.25;0.0;10.75;1.0;1.75;-0.18457;-0.006836;0.982422;-1.68;2.03;-0.28;394.0;0.081776;0.061544;1.25;0.5;1.5;0.5;1.5;0.0;0.25;0.0;3.75;3.75;0.0;0.0;0.0;12.0;0.75;0.25;-0.212891;0.011719;0.981445;-1.54;-1.61;1.33;310.0;0.203584;0.138246
2.46;3.75;3.5;1.75;2.5;1.0;0.25;0.0;0.0;3.25;4.5;0.5;0.25;0.0;10.5;0.5;1.75;-0.18457;-0.008301;0.98584;-1.82;2.17;-0.21;398.0;0.066656;0.060315;1.5;0.25;1.5;0.25;1.5;0.0;0.25;0.0;3.5;3.25;0.25;0.0;0.0;12.0;0.25;0.25;-0.20752;0.012695;0.977051;-1.61;-1.61;1.47;293.0;0.202907;0.146611
2.47;3.75;3.5;1.5;2.5;1.0;0.25;0.0;0.0;3.0;4.75;0.5;0.25;0.0;10.5;0.25;1.75;-0.186035;-0.009766;0.982422;-1.75;1.96;-0.28;391.0;0.066247;0.059093;1.25;0.25;1.5;0.25;1.25;0.0;0.25;0.0;3.75;3.75;0.0;0.0;0.0;12.0;0.25;0.25;-0.205566;0.016602;0.98291;-1.54;-1.4;1.33;294.0;0.214211;0.150701
2.48;3.75;3.5;1.25;2.5;1.0;0.0;0.0;0.0;3.25;4.5;0.25;0.0;0.0;10.5;0.75;1.75;-0.187012;-0.003418;0.984375;-1.82;1.96;-0.21;385.0;0.074598;0.065826;0.75;0.5;1.5;0.25;1.25;0.0;0.25;0.0;3.5;3.75;0.0;0.0;0.0;12.0;0.25;0.25;-0.207031;0.012695;0.97998;-1.61;-1.54;1.12;287.0;0.220896;0.146863
2.49;3.75;4.25;1.25;2.5;1.0;0.25;0.0;0.0;3.0;4.5;0.25;0.0;0.0;10.75;0.5;2.0;-0.193848;-0.004395;0.982422;-1.89;2.17;-0.21;393.0;0.06127;0.056403;1.0;0.75;1.5;0.25;1.25;0.0;0.25;0.0;3.5;3.75;0.0;0.0;0.0;12.0;0.25;0.25;-0.208984;0.015137;0.981445;-1.61;-1.47;1.26;293.0;0.208276;0.143509
2.5;4.25;3.75;1.5;3.0;1.0;0.0;0.0;0.0;3.0;4.5;0.25;0.0;0.0;11.0;0.5;2.0;-0.189941;-0.004883;0.986816;-1.75;2.03;-0.21;403.0;0.056232;0.059373;1.0;0.5;1.5;0.5;1.5;0.0;0.25;0.0;3.75;3.75;0.0;0.0;0.0;12.0;0.5;0.5;-0.208984;0.010742;0.983398;-1.61;-1.47;1.33;305.0;0.208472;0.138407
2.51;3.75;3.5;1.25;2.75;1.0;0.0;0.0;0.0;3.0;4.0;0.25;0.0;0.0;11.0;0.75;1.5;-0.186035;-0.003418;0.978516;-1.96;2.31;-0.21;381.0;0.070201;0.064312;1.0;0.5;1.5;0.5;2.0;0.0;0.25;0.0;3.75;3.25;0.0;0.0;0.0;12.0;0.25;0.25;-0.20166;0.01123;0.976074;-1.54;-1.47;1.26;301.0;0.197637;0.142989
2.52;4.0;3.5;1.25;2.5;1.0;0.25;0.0;0.0;3.25;4.5;0.25;0.0;0.0;11.0;1.0;2.0;-0.186523;-0.006348;0.987305;-1.82;2.24;-0.07;401.0;0.077092;0.06214;0.5;0.5;1.0;0.5;1.75;0.0;0.0;0.0;3.75;3.25;0.0;0.0;0.0;12.0;0.25;0.25;-0.20459;0.013184;0.983398;-1.54;-1.33;1.19;280.0;0.227628;0.144385
2.53;4.0;3.5;1.5;2.5;1.0;0.0;0.0;0.0;3.5;4.25;0.25;0.0;0.0;11.0;1.0;1.75;-0.179688;-0.008789;0.98584;-1.82;2.03;-0.28;400.0;0.075441;0.068671;1.25;0.25;1.25;0.5;1.25;0.0;0.25;0.0;3.75;3.25;0.0;0.0;0.0;12.0;0.5;0.25;-0.20459;0.015137;0.983398;-1.54;-1.47;1.33;291.0;0.215576;0.14652
2.54;4.25;3.5;1.25;2.5;1.0;0.0;0.0;0.0;3.25;4.25;0.25;0.0;0.0;10.75;1.25;1.75;-0.190918;-0.007324;0.974121;-1.89;2.24;-0.21;397.0;0.073255;0.064897;1.5;0.25;1.5;0.5;2.0;0.0;0.25;0.0;3.75;3.75;0.0;0.0;0.0;11.75;0.75;0.25;-0.208008;0.009277;0.981934;-1.54;-1.61;1.4;314.0;0.194491;0.138708
2.55;3.75;3.25;1.25;2.75;1.0;0.0;0.0;0.0;3.0;4.5;0.25;0.0;0.0;10.75;1.5;1.5;-0.186523;-0.008301;0.984863;-1.89;2.17;-0.21;392.0;0.082209;0.061688;1.5;0.25;1.5;0.5;1.75;0.0;0.25;0.0;3.75;3.75;0.25;0.0;0.0;11.75;0.25;0.25;-0.209961;0.016113;0.981445;-1.61;-1.54;1.26;308.0;0.193883;0.141435
2.56;3.5;3.25;1.25;2.5;1.0;0.0;0.0;0.0;3.0;4.25;0.25;0.0;0.0;10.75;0.75;1.25;-0.188477;-0.013184;0.982422;-1.89;2.1;-0.21;371.0;0.078762;0.069079;1.75;0.25;1.5;0.5;1.75;0.0;0.25;0.0;3.5;3.25;0.0;0.0;0.0;12.0;0.25;0.25;-0.210938;0.015137;0.982422;-1.54;-1.4;1.26;300.0;0.187455;0.143962
2.57;3.75;3.5;1.75;2.5;1.0;0.0;0.0;0.0;3.25;4.5;0.25;0.0;0.0;10.75;0.5;2.0;-0.188477;-0.009277;0.982422;-1.96;2.17;-0.21;392.0;0.069513;0.066564;1.5;0.25;1.5;0.5;1.75;0.0;0.25;0.0;3.5;3.25;0.0;0.0;0.0;12.0;0.5;0.25;-0.206543;0.010254;0.982422;-1.75;-1.4;1.4;300.0;0.195848;0.141966
2.58;3.75;3.5;1.25;2.25;1.0;0.25;0.0;0.0;3.5;4.5;0.25;0.0;0.25;10.75;0.75;2.0;-0.187012;-0.005859;0.980469;-1.89;2.1;-0.21;395.0;0.081485;0.063263;1.5;0.25;1.5;0.5;1.5;0.0;0.25;0.0;3.5;3.75;0.0;0.0;0.0;12.0;0.75;0.25;-0.204102;0.01416;0.984375;-1.47;-1.33;1.33;306.0;0.202367;0.138957
2.59;3.75;3.5;1.5;2.25;1.25;0.0;0.0;0.0;3.0;4.5;0.25;0.0;0.0;11.5;1.25;1.5;-0.188965;-0.005371;0.981934;-2.03;2.31;-0.21;399.0;0.083973;0.068395;1.5;0.25;1.25;0.5;1.75;0.0;0.25;0.0;3.5;4.0;0.0;0.0;0.0;12.0;1.0;0.25;-0.209473;0.010742;0.984375;-1.68;-1.4;1.19;312.0;0.206367;0.135713
2.6;3.75;3.25;1.25;2.5;1.25;0.0;0.0;0.0;3.25;4.5;0.5;0.0;0.0;11.5;1.25;1.25;-0.191895;-0.006348;0.98584;-1.89;2.17;-0.14;401.0;0.088962;0.069548;1.0;0.5;1.0;0.5;1.75;0.0;0.25;0.0;3.75;3.75;0.0;0.0;0.0;11.25;0.5;0.25;-0.210938;0.015625;0.97998;-1.47;-1.4;1.33;292.0;0.2094;0.140139
2.61;3.25;3.25;1.25;2.25;1.0;0.0;0.0;0.0;2.75;4.5;0.25;0.0;0.0;11.0;1.25;1.5;-0.187988;-0.013184;0.984375;-1.82;2.1;-0.21;374.0;0.094419;0.065696;1.0;0.25;1.25;0.5;1.75;0.0;0.25;0.0;4.0;3.75;0.0;0.0;0.0;11.75;0.5;0.25;-0.209961;0.010254;0.983398;-1.61;-1.4;1.26;302.0;0.213897;0.144748
2.62;3.75;3.5;1.25;2.25;1.0;0.0;0.0;0.0;3.0;4.75;0.25;0.0;0.0;11.0;0.75;1.5;-0.19043;-0.012695;0.983398;-1.82;2.17;-0.14;384.0;0.08045;0.069245;1.0;0.25;1.5;0.25;1.75;0.0;0.25;0.0;3.5;4.25;0.25;0.0;0.0;12.0;0.75;0.25;-0.211914;0.016602;0.978516;-1.54;-1.4;1.26;309.0;0.217224;0.13851
2.63;3.75;3.5;1.25;2.5;1.0;0.0;0.0;0.0;3.25;4.5;0.5;0.0;0.0;11.0;0.75;1.75;-0.183594;-0.003418;0.980957;-1.75;2.03;-0.21;393.0;0.080168;0.065825;1.0;0.5;1.5;0.5;1.75;0.0;0.25;0.0;3.75;4.0;0.0;0.0;0.0;12.0;0.25;0.5;-0.214355;0.016113;0.986816;-1.61;-1.54;1.26;308.0;0.20322;0.139073
2.64;3.75;3.75;1.25;2.25;0.75;0.0;0.0;0.0;3.5;4.5;0.5;0.0;0.25;10.75;1.0;1.75;-0.185547;-0.007324;0.981445;-1.75;2.17;-0.07;396.0;0.08423;0.063418;1.25;0.5;1.5;0.5;1.75;0.0;0.25;0.0;3.75;4.0;0.0;0.0;0.0;11.75;0.5;0.25;-0.206055;0.01416;0.980957;-1.61;-1.4;1.33;310.0;0.196708;0.138586
2.65;3.75;3.5;1.25;2.25;1.0;0.0;0.0;0.0;3.0;4.5;0.5;0.0;0.0;11.5;1.25;1.75;-0.189941;-0.006836;0.982422;-1.75;2.03;-0.28;397.0;0.090882;0.065272;1.5;0.5;1.5;0.5;1.75;0.0;0.25;0.0;3.75;4.0;0.0;0.0;0.0;11.75;0.75;0.25;-0.205078;0.015625;0.981445;-1.61;-1.54;1.26;317.0;0.192928;0.136117
2.66;3.75;3.25;1.5;2.25;1.0;0.0;0.0;0.25;3.0;4.25;0.5;0.0;0.0;11.5;1.5;1.5;-0.186035;-0.013672;0.984375;-1.68;1.89;-0.21;401.0;0.090465;0.062255;1.25;0.25;1.5;0.5;1.75;0.0;0.25;0.0;3.75;4.0;0.0;0.0;0.0;11.75;0.75;0.25;-0.203125;0.010254;0.985352;-1.75;-1.54;1.26;311.0;0.204284;0.139073
2.67;3.75;3.25;1.75;2.25;1.0;0.0;0.0;0.0;3.0;4.25;0.5;0.0;0.0;11.5;1.25;2.0;-0.187012;-0.003906;0.982422;-1.82;2.24;-0.21;399.0;0.088354;0.065749;1.0;0.5;1.5;0.5;1.75;0.0;0.25;0.0;3.75;4.0;0.0;0.0;0.0;12.0;0.75;0.25;-0.204102;0.015137;0.985352;-1.61;-1.54;1.26;313.0;0.206506;0.136992
2.68;3.75;3.0;1.5;2.25;1.0;0.0;0.0;0.0;3.25;4.25;0.75;0.0;0.0;11.5;1.25;2.0;-0.181152;-0.010254;0.978027;-1.89;2.03;-0.14;400.0;0.097503;0.067772;1.0;0.25;1.5;0.25;1.5;0.0;0.25;0.0;3.5;4.0;0.0;0.0;0.0;12.0;0.75;0.25;-0.209961;0.01123;0.97998;-1.68;-1.47;1.26;300.0;0.220639;0.142782
2.69;3.5;3.0;1.25;2.25;1.0;0.0;0.0;0.0;3.0;4.5;0.5;0.0;0.0;11.5;1.25;2.0;-0.183594;-0.006348;0.98877;-1.82;1.82;-0.14;390.0;0.103102;0.066631;1.25;0.25;1.5;0.25;1.5;0.0;0.0;0.0;3.75;4.0;0.0;0.0;0.0;12.0;0.75;0.5;-0.20459;0.011719;0.985352;-1.61;-1.54;1.4;304.0;0.217546;0.14023
2.7;3.75;2.5;1.25;2.25;1.0;0.0;0.0;0.0;3.25;4.5;0.5;0.0;0.0;11.5;1.5;2.0;-0.189941;-0.001953;0.978027;-1.89;2.03;-0.28;395.0;0.110336;0.071101;1.5;0.0;1.25;0.25;1.5;0.0;0.25;0.0;3.75;4.0;0.0;0.0;0.0;12.25;0.5;0.5;-0.209473;0.015137;0.978027;-1.61;-1.4;1.33;305.0;0.219935;0.147348
2.71;3.75;3.0;1.25;2.25;1.25;0.0;0.0;0.0;3.0;4.25;0.5;0.0;0.25;11.5;1.5;1.75;-0.193359;-0.005859;0.980957;-1.96;2.03;-0.28;397.0;0.097982;0.06391;1.5;0.25;1.25;0.5;1.5;0.0;0.25;0.0;4.0;3.75;0.0;0.0;0.0;12.25;0.75;0.25;-0.202637;0.010742;0.982422;-1.68;-1.4;1.19;313.0;0.21041;0.143185
2.72;3.75;3.5;1.5;2.5;1.0;0.0;0.0;0.0;3.0;4.25;0.75;0.0;0.0;11.5;1.0;1.5;-0.183594;-0.007812;0.978516;-1.82;2.1;-0.21;399.0;0.081105;0.064366;1.5;0.25;1.25;0.5;1.75;0.0;0.25;0.0;3.75;3.75;0.0;0.0;0.0;11.75;0.75;0.25;-0.209473;0.01709;0.985352;-1.61;-1.47;1.26;307.0;0.202902;0.140071
2.73;3.75;3.5;1.25;2.25;1.0;0.25;0.0;0.0;3.0;4.75;0.25;0.0;0.0;11.5;1.25;1.5;-0.188477;-0.01123;0.984863;-1.82;2.1;-0.21;399.0;0.087914;0.065457;1.5;0.5;1.5;0.5;1.75;0.0;0.25;0.0;3.75;4.0;0.0;0.0;0.0;12.0;0.75;0.25;-0.211426;0.015625;0.984863;-1.61;-1.4;1.26;319.0;0.194676;0.136449
2.74;3.75;3.5;1.25;2.25;1.0;0.25;0.0;0.0;3.0;4.5;0.25;0.0;0.0;11.5;1.75;1.5;-0.186035;-0.007812;0.98291;-1.68;1.82;-0.14;402.0;0.091714;0.063171;1.5;0.5;1.5;0.5;1.75;0.0;0.25;0.0;3.75;4.0;0.0;0.0;0.0;12.0;0.5;0.5;-0.212402;0.016113;0.979492;-1.54;-1.54;1.33;318.0;0.193414;0.136309
2.75;3.5;3.0;1.25;2.25;1.0;0.25;0.0;0.0;3.0;4.75;0.25;0.0;0.0;11.5;1.25;1.75;-0.185059;-0.007812;0.98291;-1.82;2.24;-0.14;392.0;0.100031;0.066814;1.5;0.5;1.5;0.5;1.75;0.0;0.25;0.0;3.75;4.0;0.0;0.0;0.0;12.0;0.5;0.25;-0.211914;0.013184;0.986816;-1.68;-1.4;1.33;316.0;0.192566;0.138611
2.76;3.5;3.25;1.25;2.25;0.75;0.0;0.0;0.0;3.0;4.25;0.25;0.0;0.0;11.5;1.0;1.5;-0.185059;-0.009277;0.981934;-1.82;1.89;-0.21;377.0;0.094403;0.071003;1.5;0.75;1.25;0.5;1.75;0.0;0.0;0.0;4.0;4.25;0.0;0.0;0.0;12.0;0.75;0.25;-0.207031;0.013184;0.984375;-1.61;-1.26;1.33;321.0;0.196994;0.133834
2.77;3.25;3.0;1.25;2.25;1.0;0.0;0.0;0.0;3.25;4.5;0.5;0.0;0.25;11.5;1.25;1.5;-0.189941;-0.008789;0.98291;-1.75;1.82;-0.21;390.0;0.10697;0.068061;1.5;0.5;1.0;0.5;1.75;0.0;0.25;0.0;3.5;4.25;0.0;0.0;0.0;11.5;0.75;0.25;-0.211426;0.015137;0.980957;-1.61;-1.47;1.33;307.0;0.20077;0.134299
2.78;3.75;3.0;1.25;2.25;1.0;0.0;0.0;0.0;3.75;4.5;0.25;0.0;0.0;11.5;1.5;2.0;-0.186035;-0.007812;0.98584;-1.75;2.03;-0.14;405.0;0.105077;0.073237;1.0;0.25;1.25;0.5;1.75;0.0;0.25;0.0;3.5;4.0;0.0;0.0;0.0;12.5;0.75;0.25;-0.20459;0.015625;0.983398;-1.68;-1.61;1.26;308.0;0.219977;0.139155
2.79;3.75;3.0;1.5;2.5;1.0;0.0;0.0;0.0;3.25;4.75;0.25;0.0;0.0;11.5;1.75;2.0;-0.190918;-0.005371;0.984375;-1.82;2.17;-0.14;410.0;0.099365;0.065885;1.0;0.5;1.25;0.5;1.75;0.0;0.25;0.0;4.0;3.75;0.0;0.0;0.0;12.5;0.75;0.5;-0.207031;0.017578;0.982422;-1.68;-1.54;1.33;317.0;0.215836;0.138261
2.8;3.75;3.0;1.75;2.25;1.0;0.0;0.0;0.0;3.25;4.5;0.25;0.0;0.0;11.5;1.75;2.0;-0.188477;-0.009766;0.979492;-1.89;2.24;-0.14;407.0;0.098413;0.068437;1.0;0.5;1.25;0.5;1.75;0.0;0.0;0.0;3.75;3.75;0.25;0.0;0.0;12.0;1.0;0.25;-0.20752;0.019043;0.984375;-1.75;-1.4;1.33;308.0;0.215349;0.131922
2.81;3.75;3.0;1.5;2.25;1.25;0.25;0.0;0.0;3.5;4.25;0.25;0.0;0.0;11.5;1.25;1.75;-0.185059;-0.006836;0.979004;-1.82;2.24;-0.14;403.0;0.092169;0.071353;1.5;0.25;1.25;0.5;2.0;0.0;0.0;0.0;3.75;4.0;0.25;0.0;0.0;12.25;0.5;0.5;-0.205566;0.012695;0.979004;-1.61;-1.33;1.19;316.0;0.20397;0.135001
2.82;3.75;3.0;1.25;2.25;1.0;0.0;0.0;0.0;3.25;4.5;0.5;0.0;0.0;11.5;1.0;1.5;-0.183594;-0.009277;0.981934;-1.68;1.89;-0.21;391.0;0.096063;0.073384;1.5;0.5;1.25;0.5;1.75;0.0;0.0;0.0;4.0;4.0;0.0;0.0;0.0;12.25;0.5;0.25;-0.209961;0.010254;0.983887;-1.54;-1.26;1.19;315.0;0.201592;0.139658
2.83;3.5;3.0;1.5;2.25;1.0;0.0;0.0;0.0;3.25;4.5;0.5;0.25;0.0;11.5;1.25;1.5;-0.1875;-0.009277;0.980957;-1.82;2.24;-0.14;397.0;0.100254;0.069084;1.25;0.75;1.5;0.25;1.5;0.0;0.0;0.0;4.0;4.0;0.0;0.25;0.0;12.25;0.5;0.25;-0.211426;0.013184;0.980957;-1.54;-1.54;1.26;314.0;0.205731;0.136988
2.84;3.25;3.0;1.5;2.25;1.0;0.25;0.0;0.0;3.25;4.5;0.5;0.0;0.0;11.5;1.5;1.75;-0.191406;-0.007812;0.982422;-1.68;1.89;-0.14;399.0;0.104716;0.066132;1.0;0.5;1.5;0.5;1.75;0.0;0.25;0.0;4.0;4.25;0.0;0.0;0.0;12.25;0.75;0.25;-0.20752;0.01416;0.984375;-1.61;-1.47;1.33;322.0;0.209061;0.138275
2.85;3.75;3.0;1.5;2.25;1.0;0.0;0.0;0.0;3.25;4.75;0.25;0.25;0.25;11.5;1.75;1.75;-0.189941;-0.00293;0.990234;-1.82;1.96;-0.14;411.0;0.102701;0.063635;1.5;0.25;1.5;0.5;1.75;0.0;0.25;0.0;3.75;4.25;0.0;0.0;0.0;12.0;1.25;0.25;-0.210938;0.013184;0.977539;-1.61;-1.4;1.26;326.0;0.204391;0.134125
2.86;3.75;2.75;1.25;2.25;1.0;0.0;0.0;0.0;3.0;4.75;0.5;0.25;0.25;11.5;1.0;2.0;-0.183594;-0.009766;0.981445;-1.75;1.96;-0.14;396.0;0.102701;0.063436;1.5;0.5;1.5;0.25;1.75;0.0;0.25;0.0;3.75;4.0;0.0;0.0;0.0;12.25;1.0;0.5;-0.209961;0.01123;0.981445;-1.61;-1.47;1.26;323.0;0.204173;0.136076
2.87;3.75;3.25;1.25;2.25;1.0;0.0;0.0;0.0;3.25;4.5;0.25;0.0;0.0;11.5;1.0;2.0;-0.186523;-0.005371;0.986816;-1.75;2.03;-0.07;394.0;0.093597;0.070028;1.5;0.25;1.5;0.25;1.75;0.0;0.25;0.0;3.75;3.25;0.0;0.0;0.0;12.25;0.75;0.5;-0.206055;0.015625;0.98291;-1.68;-1.54;1.26;308.0;0.206567;0.143185
2.88;3.75;3.5;1.25;2.5;1.0;0.0;0.0;0.0;3.5;4.5;0.25;0.0;0.0;11.5;0.75;2.0;-0.186035;-0.007812;0.984375;-1.75;2.03;-0.14;400.0;0.08609;0.069167;1.5;0.5;1.5;0.5;1.75;0.0;0.25;0.0;3.75;3.75;0.0;0.0;0.0;12.25;0.75;0.25;-0.210938;0.018066;0.980469;-1.54;-1.4;1.19;319.0;0.195965;0.137485
2.89;3.75;3.5;1.25;2.25;1.0;0.0;0.0;0.0;3.75;4.5;0.25;0.0;0.0;11.75;0.75;1.75;-0.185059;-0.006836;0.984375;-1.82;1.89;-0.21;402.0;0.09176;0.07579;1.5;0.25;1.5;0.5;1.75;0.0;0.25;0.0;3.75;4.0;0.25;0.0;0.0;12.25;1.25;0.25;-0.214844;0.016602;0.980957;-1.61;-1.54;1.26;328.0;0.205865;0.132746
2.9;3.5;3.0;1.25;2.25;1.0;0.0;0.0;0.0;3.5;4.5;0.0;0.0;0.0;11.5;1.5;1.75;-0.186035;-0.004883;0.979492;-1.75;1.82;-0.21;393.0;0.105567;0.074049;1.5;0.0;1.5;0.5;1.75;0.25;0.25;0.0;3.75;3.75;0.0;0.0;0.0;12.25;0.25;0.25;-0.20752;0.012695;0.982422;-1.75;-1.47;1.19;310.0;0.198944;0.143014
2.91;3.75;3.0;1.25;2.5;1.0;0.25;0.0;0.0;3.0;4.5;0.25;0.0;0.0;11.5;1.5;2.0;-0.187012;-0.009277;0.988281;-1.89;1.96;-0.28;400.0;0.095316;0.062063;1.5;0.5;1.0;0.25;1.75;0.25;0.0;0.0;3.75;4.0;0.0;0.0;0.0;12.25;0.25;0.25;-0.210938;0.014648;0.984863;-1.68;-1.33;1.19;304.0;0.205384;0.140276
2.92;3.5;3.0;1.5;2.25;1.0;0.0;0.0;0.0;3.0;4.75;0.25;0.25;0.0;11.5;1.75;2.0;-0.18457;-0.008789;0.983887;-1.75;1.89;-0.28;403.0;0.105702;0.063067;1.5;0.5;1.0;0.5;2.0;0.0;0.0;0.0;3.5;4.5;0.0;0.0;0.0;12.0;0.25;0.5;-0.208008;0.008301;0.98291;-1.61;-1.4;1.33;309.0;0.19957;0.133996
2.93;3.25;3.25;1.25;2.25;1.25;0.0;0.0;0.0;3.0;4.5;0.25;0.25;0.0;11.75;1.5;2.0;-0.182617;-0.004883;0.981934;-1.75;1.89;-0.14;399.0;0.105776;0.062752;1.5;0.25;1.25;0.25;1.75;0.0;0.0;0.0;3.75;4.25;0.0;0.0;0.0;12.0;0.25;0.5;-0.211914;0.015137;0.978516;-1.61;-1.47;1.26;304.0;0.209141;0.143418
2.94;4.0;3.5;1.25;2.25;1.25;0.0;0.0;0.0;3.75;4.5;0.25;0.25;0.0;11.5;1.5;2.0;-0.189941;-0.006836;0.990723;-1.75;1.82;-0.07;420.0;0.093438;0.067489;1.25;0.5;1.25;0.25;1.75;0.0;0.25;0.0;3.75;4.0;0.0;0.0;0.0;12.0;0.5;0.25;-0.206543;0.012695;0.983887;-1.61;-1.54;1.26;306.0;0.208726;0.143344
2.95;4.25;3.25;1.25;2.25;1.25;0.0;0.0;0.0;3.25;4.75;0.25;0.0;0.0;11.5;1.25;2.0;-0.1875;-0.005859;0.983887;-1.68;1.82;-0.07;409.0;0.087843;0.069339;1.0;0.5;1.25;0.5;1.75;0.0;0.25;0.0;3.5;4.25;0.0;0.0;0.0;12.0;0.25;0.25;-0.205078;0.011719;0.983398;-1.54;-1.54;1.26;302.0;0.207258;0.139522
2.96;4.0;3.25;1.5;2.25;1.25;0.0;0.0;0.0;3.5;4.75;0.25;0.0;0.0;11.5;1.25;2.0;-0.18457;-0.015137;0.979492;-1.68;1.89;-0.07;413.0;0.090262;0.071143;0.75;0.25;1.0;0.5;1.75;0.0;0.0;0.0;3.5;4.0;0.0;0.0;0.0;12.25;0.25;0.25;-0.208008;0.013184;0.980957;-1.54;-1.61;1.4;288.0;0.228685;0.142909
2.97;3.75;3.25;1.25;2.5;1.25;0.0;0.0;0.0;3.75;4.5;0.25;0.25;0.0;11.5;1.75;2.0;-0.185059;-0.005371;0.98584;-1.68;1.75;-0.07;420.0;0.099809;0.065323;1.0;0.25;1.0;0.25;1.75;0.0;0.0;0.0;3.75;3.75;0.0;0.0;0.0;12.25;0.5;0.25;-0.208008;0.010742;0.982422;-1.61;-1.54;1.33;292.0;0.22995;0.146874
2.98;3.75;3.25;1.75;2.25;1.0;0.0;0.0;0.0;3.0;4.75;0.5;0.0;0.0;11.5;1.75;1.75;-0.186523;-0.006348;0.982422;-1.68;1.61;-0.07;410.0;0.094462;0.064962;1.0;0.25;1.0;0.5;2.0;0.25;0.0;0.0;3.5;4.0;0.0;0.0;0.0;12.25;0.75;0.25;-0.203613;0.010254;0.985352;-1.54;-1.61;1.4;304.0;0.218044;0.132607
2.99;4.0;3.25;1.75;2.75;1.0;0.0;0.0;0.0;3.0;4.5;0.5;0.0;0.0;11.5;1.75;1.75;-0.187012;-0.010254;0.981445;-1.68;1.68;-0.21;417.0;0.083662;0.060732;0.75;0.0;1.0;0.5;1.75;0.0;0.25;0.0;3.5;3.75;0.0;0.0;0.0;12.25;0.5;0.0;-0.207031;0.014648;0.98291;-1.68;-1.68;1.12;288.0;0.233644;0.148388
3.0;4.0;3.25;1.5;2.5;1.0;0.25;0.0;0.25;3.0;4.5;0.5;0.0;0.0;11.5;1.75;1.75;-0.181641;-0.006348;0.984375;-1.61;1.68;-0.14;418.0;0.086482;0.055216;0.75;0.25;1.0;0.5;1.75;0.0;0.25;0.0;3.75;3.25;0.0;0.0;0.0;12.25;0.5;0.0;-0.217773;0.012695;0.983887;-1.61;-1.68;1.26;289.0;0.227585;0.148904
3.01;4.0;3.25;1.5;2.25;1.0;0.0;0.0;0.25;3.25;4.5;0.25;0.0;0.0;11.5;1.75;1.75;-0.187012;-0.005859;0.984863;-1.61;1.96;-0.07;412.0;0.091898;0.063413;1.0;0.25;1.0;0.5;1.5;0.0;0.25;0.0;3.75;4.0;0.25;0.0;0.0;12.25;0.75;0.25;-0.208008;0.016602;0.979492;-1.68;-1.54;1.33;306.0;0.227907;0.139336
3.02;4.25;3.5;1.75;3.0;1.25;0.0;0.0;0.0;3.25;4.5;0.25;0.0;0.0;11.5;1.5;2.0;-0.188965;-0.006836;0.987793;-1.75;2.1;-0.21;429.0;0.071691;0.060307;0.75;0.0;1.0;0.25;1.5;0.0;0.25;0.0;4.0;4.25;0.0;0.0;0.0;12.0;0.5;0.25;-0.207031;0.015137;0.985352;-1.61;-1.68;1.4;295.0;0.243329;0.152284
3.03;3.75;3.25;1.5;2.75;1.25;0.25;0.0;0.0;3.25;4.5;0.25;0.25;0.0;11.5;1.5;2.0;-0.191406;-0.006836;0.979004;-1.68;2.03;-0.07;419.0;0.086696;0.057816;0.75;0.0;1.0;0.0;1.75;0.0;0.25;0.0;3.75;4.25;0.0;0.0;0.0;12.0;0.25;0.25;-0.206055;0.009766;0.983887;-1.61;-1.47;1.26;288.0;0.243215;0.156434
3.04;3.75;3.25;1.5;2.75;1.0;0.0;0.0;0.25;3.0;4.5;0.25;0.0;0.0;10.75;1.5;2.0;-0.185547;-0.009766;0.979004;-1.75;2.24;-0.21;403.0;0.080483;0.053773;0.75;0.0;1.0;0.0;1.75;0.0;0.25;0.0;3.75;3.75;0.25;0.0;0.0;12.25;0.5;0.25;-0.204102;0.016602;0.980957;-1.47;-1.47;1.4;290.0;0.24634;0.153101
3.05;3.75;3.25;1.75;2.25;1.0;0.0;0.0;0.25;3.25;4.5;0.25;0.0;0.0;11.0;1.5;2.0;-0.185547;-0.008789;0.980469;-1.68;2.1;-0.21;406.0;0.087357;0.06147;1.0;0.5;1.25;0.25;1.5;0.0;0.25;0.0;3.75;4.0;0.0;0.0;0.0;12.0;0.75;0.0;-0.204102;0.016113;0.987305;-1.47;-1.4;1.4;301.0;0.219907;0.144702
3.06;3.25;3.5;1.25;2.25;1.0;0.0;0.0;0.0;3.0;4.5;0.25;0.0;0.0;11.5;1.75;2.0;-0.185059;-0.008301;0.981934;-1.68;1.96;-0.14;396.0;0.103657;0.062141;1.0;0.5;1.0;0.25;1.75;0.0;0.25;0.0;4.0;4.0;0.0;0.0;0.0;12.0;0.75;0.0;-0.206543;0.01416;0.97998;-1.54;-1.47;1.33;305.0;0.221973;0.146074
3.07;3.75;3.5;1.25;2.5;1.0;0.0;0.0;0.0;3.0;4.5;0.25;0.0;0.25;11.5;1.75;1.75;-0.18457;-0.003418;0.984863;-1.68;1.96;0.0;406.0;0.092163;0.058727;1.0;0.0;1.25;0.25;1.75;0.0;0.25;0.0;3.5;4.0;0.0;0.0;0.0;11.75;0.75;0.25;-0.206055;0.010742;0.985352;-1.61;-1.47;1.47;294.0;0.226619;0.145078
3.08;4.0;3.75;1.5;2.75;1.25;0.0;0.0;0.0;3.0;4.5;0.25;0.25;0.25;11.5;1.75;1.75;-0.189941;-0.013184;0.984863;-1.68;1.96;-0.14;425.0;0.078681;0.05307;1.0;0.25;1.0;0.25;1.75;0.0;0.25;0.0;3.5;4.25;0.0;0.0;0.0;11.75;0.75;0.25;-0.20752;0.015137;0.98291;-1.54;-1.47;1.33;297.0;0.226319;0.141963
3.09;4.5;3.75;1.75;2.75;1.25;0.0;0.0;0.0;3.0;4.5;0.25;0.0;0.0;11.5;1.75;2.0;-0.187988;-0.008789;0.982422;-1.75;2.03;-0.21;430.0;0.068645;0.058398;1.0;0.25;1.5;0.5;1.5;0.0;0.25;0.0;3.5;4.0;0.0;0.0;0.0;12.0;0.75;0.25;-0.20752;0.012695;0.980469;-1.61;-1.54;1.33;303.0;0.215135;0.1388
3.1;4.5;3.5;1.5;2.75;1.25;0.25;0.0;0.0;3.0;4.75;0.25;0.0;0.0;10.5;1.5;2.0;-0.189453;-0.001953;0.976074;-1.68;2.03;-0.21;417.0;0.063182;0.055246;1.0;0.25;1.25;0.25;2.0;0.0;0.25;0.0;3.5;4.5;0.0;0.0;0.0;12.0;1.0;0.25;-0.211426;0.013184;0.980469;-1.54;-1.47;1.26;312.0;0.220841;0.137823
3.11;4.0;3.5;1.5;2.5;1.0;0.0;0.0;0.0;3.25;4.75;0.25;0.0;0.0;11.5;1.5;1.5;-0.19043;-0.009277;0.987305;-1.75;2.38;-0.14;412.0;0.084296;0.0672;1.0;0.25;1.25;0.25;1.75;0.0;0.25;0.0;3.75;4.25;0.25;0.0;0.0;11.75;0.75;0.25;-0.210449;0.016602;0.983887;-1.61;-1.4;1.33;307.0;0.221352;0.140451
3.12;4.5;3.5;1.5;2.75;1.0;0.0;0.0;0.0;3.25;4.75;0.25;0.25;0.0;11.5;1.75;1.75;-0.183594;-0.010742;0.981445;-1.82;2.52;-0.21;429.0;0.078722;0.060385;1.0;0.25;1.0;0.5;1.75;0.0;0.0;0.0;3.5;4.0;0.0;0.0;0.0;12.0;0.75;0.25;-0.212891;0.013184;0.981934;-1.54;-1.26;1.33;295.0;0.224272;0.137484
3.13;3.75;3.5;1.5;2.75;1.0;0.0;0.0;0.0;3.0;4.5;0.25;0.25;0.0;11.0;1.75;1.5;-0.182129;-0.01123;0.979492;-1.82;2.31;-0.14;406.0;0.081503;0.057212;1.0;0.0;1.0;0.5;1.75;0.0;0.0;0.0;3.5;3.25;0.0;0.0;0.0;11.75;0.75;0.25;-0.205566;0.018066;0.980957;-1.54;-1.33;1.33;280.0;0.228332;0.142552
3.14;4.0;3.5;1.5;2.75;1.0;0.25;0.0;0.0;3.25;4.75;0.25;0.25;0.0;11.5;1.75;1.5;-0.18457;-0.004883;0.97998;-1.75;2.31;-0.14;425.0;0.082907;0.058547;1.0;0.25;1.0;0.5;1.5;0.0;0.0;0.0;3.5;3.75;0.0;0.0;0.0;11.75;0.75;0.25;-0.209961;0.015137;0.982422;-1.54;-1.26;1.33;286.0;0.226431;0.138797
3.15;3.75;3.25;1.75;2.5;1.0;0.0;0.0;0.0;3.25;4.5;0.25;0.0;0.0;11.5;1.5;1.5;-0.19043;-0.008301;0.979004;-1.75;2.1;-0.07;406.0;0.087343;0.068673;1.0;0.5;1.0;0.5;1.75;0.0;0.0;0.0;4.0;4.0;0.25;0.0;0.0;11.5;0.75;0.25;-0.208496;0.011719;0.984863;-1.61;-1.26;1.33;304.0;0.216139;0.134967
3.16;3.75;3.5;1.75;2.5;1.0;0.0;0.0;0.0;3.25;4.5;0.25;0.0;0.0;11.5;1.75;1.5;-0.185059;-0.004883;0.980469;-1.75;2.17;-0.14;412.0;0.086399;0.065957;1.25;0.25;1.0;0.5;1.75;0.0;0.0;0.0;4.0;3.75;0.25;0.25;0.0;11.75;1.0;0.5;-0.205078;0.016113;0.983887;-1.61;-1.19;1.19;311.0;0.219526;0.129563
3.17;3.75;3.5;1.5;2.5;1.0;0.0;0.0;0.0;3.25;4.75;0.25;0.0;0.0;11.5;1.75;1.5;-0.187012;-0.013184;0.979492;-1.82;2.24;-0.14;412.0;0.090413;0.065753;1.0;0.0;1.0;0.5;1.5;0.0;0.25;0.0;3.75;3.75;0.0;0.0;0.0;12.0;1.0;0.25;-0.208008;0.015137;0.978516;-1.54;-1.4;1.26;297.0;0.234092;0.142985
3.18;3.75;3.5;1.25;2.5;1.0;0.0;0.0;0.0;3.25;4.75;0.25;0.0;0.0;11.5;1.5;1.75;-0.189941;-0.01123;0.983887;-1.68;2.17;0.0;407.0;0.09196;0.065191;0.75;0.25;1.25;0.5;1.5;0.0;0.0;0.0;4.0;3.75;0.0;0.0;0.0;11.75;0.25;0.25;-0.208496;0.010742;0.982422;-1.47;-1.4;1.33;288.0;0.224364;0.147022
3.19;3.5;3.5;1.5;2.5;1.0;0.0;0.0;0.0;3.25;4.5;0.5;0.0;0.0;11.5;0.75;1.75;-0.188965;-0.007812;0.983398;-1.75;2.31;-0.21;398.0;0.085263;0.067111;0.75;0.5;1.25;0.5;1.5;0.0;0.0;0.0;3.75;4.0;0.0;0.0;0.0;11.75;0.25;0.25;-0.207031;0.012695;0.98291;-1.61;-1.4;1.33;290.0;0.218004;0.141432
3.2;3.75;3.5;1.5;2.5;1.0;0.25;0.0;0.0;3.75;4.75;0.5;0.0;0.0;11.5;1.0;2.0;-0.185547;-0.009277;0.980469;-1.75;2.31;-0.14;420.0;0.087614;0.066046;0.75;0.25;1.25;0.5;1.75;0.0;0.0;0.0;3.75;4.25;0.0;0.0;0.0;12.0;0.75;0.25;-0.210938;0.016113;0.982422;-1.61;-1.54;1.4;302.0;0.22587;0.138257
3.21;3.75;3.5;1.5;2.5;1.0;0.25;0.0;0.0;3.75;4.5;0.5;0.25;0.0;11.5;1.0;1.5;-0.186035;-0.006836;0.974609;-1.68;2.1;-0.07;417.0;0.085273;0.066268;0.75;0.0;1.0;0.5;1.75;0.0;0.0;0.0;3.75;4.0;0.0;0.0;0.0;12.0;0.75;0.25;-0.207031;0.015625;0.978516;-1.61;-1.47;1.26;293.0;0.237361;0.14247
3.22;4.0;3.25;1.5;2.5;1.25;0.25;0.0;0.0;3.0;4.5;0.5;0.25;0.25;11.5;1.0;1.75;-0.188477;-0.007324;0.98291;-1.61;2.17;-0.21;413.0;0.08003;0.057431;0.75;0.25;1.0;0.5;1.5;0.0;0.0;0.0;3.75;4.75;0.0;0.0;0.0;11.75;0.75;0.25;-0.213379;0.019043;0.985352;-1.61;-1.4;1.33;299.0;0.23392;0.137769
3.23;3.75;3.25;1.5;2.5;1.0;0.0;0.0;0.0;3.0;4.5;0.5;0.5;0.25;11.0;0.5;1.75;-0.19043;-0.008789;0.981934;-1.75;2.17;-0.14;395.0;0.078993;0.057562;0.75;0.5;1.0;0.5;1.5;0.0;0.25;0.0;3.75;4.25;0.25;0.0;0.0;11.5;0.75;0.25;-0.20752;0.012207;0.987793;-1.68;-1.33;1.33;301.0;0.223941;0.135095
3.24;3.75;3.5;1.5;2.5;1.0;0.0;0.0;0.0;3.25;4.75;0.5;0.0;0.0;11.5;0.5;1.75;-0.18457;-0.01123;0.98291;-1.82;2.31;-0.14;401.0;0.080183;0.068572;0.75;0.25;0.75;0.5;1.25;0.0;0.0;0.0;3.75;3.25;0.25;0.0;0.0;12.0;1.25;0.25;-0.209961;0.017578;0.981934;-1.75;-1.4;1.26;286.0;0.248738;0.136799
3.25;3.75;3.5;1.5;2.5;1.0;0.25;0.0;0.0;3.25;4.25;0.75;0.0;0.25;11.5;1.0;1.75;-0.192383;-0.004883;0.981934;-1.82;2.31;-0.21;410.0;0.082575;0.05892;1.0;0.25;0.75;0.5;1.25;0.0;0.0;0.0;3.75;3.25;0.25;0.0;0.0;11.75;0.5;0.25;-0.206055;0.015625;0.982422;-1.68;-1.33;1.26;277.0;0.23457;0.14352
3.26;4.5;3.5;1.75;2.5;1.0;0.0;0.0;0.0;3.25;4.5;0.25;0.0;0.0;11.0;1.0;1.5;-0.192383;-0.010742;0.984863;-1.68;2.38;-0.07;407.0;0.063763;0.068957;1.0;0.25;0.75;0.25;1.5;0.0;0.25;0.0;3.75;3.75;0.0;0.0;0.0;12.0;0.5;0.25;-0.210449;0.009277;0.984863;-1.68;-1.26;1.33;287.0;0.235818;0.14974
3.27;4.0;3.25;1.75;2.5;1.0;0.0;0.0;0.0;3.25;4.5;0.25;0.0;0.0;11.0;1.0;1.5;-0.183105;-0.008789;0.985352;-1.96;2.38;-0.21;398.0;0.074353;0.069965;1.0;0.0;0.75;0.0;1.5;0.0;0.25;0.0;3.75;4.0;0.0;0.0;0.0;12.0;0.75;0.25;-0.205078;0.018066;0.989258;-1.54;-1.33;1.26;288.0;0.249979;0.1536
3.28;3.75;3.25;1.5;2.5;1.0;0.0;0.0;0.25;3.0;4.5;0.25;0.0;0.0;11.0;1.0;1.5;-0.186523;-0.01123;0.978516;-1.82;2.38;-0.21;392.0;0.078191;0.062095;1.0;0.25;0.75;0.25;1.5;0.0;0.0;0.0;3.75;2.75;0.0;0.0;0.0;12.0;0.75;0.25;-0.210449;0.01709;0.983398;-1.68;-1.33;1.26;274.0;0.240112;0.149466
3.29;3.5;3.5;1.5;2.5;1.0;0.0;0.0;0.0;3.25;4.5;0.25;0.0;0.0;11.0;0.5;2.0;-0.186035;-0.006348;0.983398;-1.61;1.96;0.0;388.0;0.078399;0.066757;1.0;0.25;0.75;0.5;1.5;0.0;0.0;0.0;3.5;3.75;0.0;0.0;0.0;12.0;1.0;0.25;-0.211426;0.011719;0.983887;-1.47;-1.26;1.26;288.0;0.235732;0.13732
3.3;3.75;3.5;1.5;2.75;1.0;0.0;0.0;0.0;3.25;4.5;0.25;0.0;0.0;11.5;0.5;2.0;-0.187012;-0.006348;0.984863;-1.82;2.03;-0.14;400.0;0.075908;0.066098;1.0;0.25;1.0;0.25;1.5;0.0;0.0;0.0;3.5;3.75;0.0;0.0;0.0;11.75;0.75;0.25;-0.209961;0.014648;0.983398;-1.54;-1.26;1.47;283.0;0.232393;0.143016
3.31;3.75;3.5;1.5;2.5;1.0;0.0;0.0;0.25;3.0;4.75;0.25;0.0;0.0;11.5;0.75;1.5;-0.185547;-0.008301;0.97998;-1.75;2.03;-0.07;400.0;0.077702;0.063127;1.25;0.25;1.0;0.5;2.0;0.0;0.25;0.0;3.75;4.75;0.0;0.0;0.0;12.0;0.5;0.25;-0.20752;0.010254;0.982422;-1.68;-1.33;1.4;316.0;0.211519;0.139604
3.32;3.75;3.5;1.5;2.25;1.0;0.0;0.0;0.0;3.0;4.75;0.25;0.25;0.0;11.5;1.0;2.0;-0.186523;-0.006348;0.987305;-1.82;2.1;-0.14;402.0;0.087556;0.06366;0.75;0.0;1.0;0.5;1.75;0.0;0.25;0.0;4.0;4.5;0.0;0.0;0.0;12.25;0.5;0.25;-0.208496;0.016113;0.98584;-1.54;-1.4;1.33;307.0;0.235093;0.146601
3.33;3.75;3.25;1.5;2.25;1.0;0.0;0.0;0.0;3.0;4.5;0.5;0.25;0.0;11.5;0.25;2.0;-0.186523;-0.007324;0.979004;-1.75;2.24;-0.21;390.0;0.083309;0.067353;0.75;0.0;0.75;0.25;1.75;0.0;0.25;0.0;3.75;4.0;0.0;0.0;0.0;12.0;0.5;0.25;-0.20752;0.015137;0.980469;-1.61;-1.54;1.4;288.0;0.244883;0.151275
3.34;4.0;3.5;1.5;2.25;0.75;0.0;0.0;0.0;3.25;4.25;0.25;0.0;0.0;11.0;0.5;1.75;-0.188965;-0.011719;0.979004;-1.68;2.24;-0.14;383.0;0.072997;0.071607;0.5;0.0;0.75;0.0;1.75;0.0;0.25;0.0;3.5;4.0;0.0;0.0;0.0;12.0;0.75;0.25;-0.206543;0.011719;0.978027;-1.61;-1.4;1.33;281.0;0.259912;0.151824
3.35;4.0;3.25;1.5;2.25;1.0;0.0;0.0;0.0;3.0;4.25;0.25;0.0;0.25;11.0;0.75;1.75;-0.189941;-0.007812;0.982422;-1.82;2.38;-0.14;386.0;0.076313;0.066378;0.75;0.5;1.0;0.25;1.5;0.0;0.0;0.0;3.75;4.0;0.0;0.0;0.0;12.0;0.75;0.25;-0.202637;0.016602;0.985352;-1.68;-1.47;1.33;292.0;0.234969;0.141674
3.36;3.75;3.0;1.5;2.25;1.0;0.0;0.0;0.0;3.0;4.75;0.25;0.0;0.25;11.5;0.75;2.0;-0.190918;0.00293;0.983398;-1.89;2.24;-0.21;393.0;0.091667;0.067512;0.75;0.25;1.0;0.25;1.5;0.0;0.0;0.0;4.0;3.75;0.0;0.25;0.0;12.0;0.5;0.25;-0.210938;0.016602;0.982422;-1.75;-1.33;1.19;290.0;0.239226;0.144878
3.37;3.75;3.0;1.25;2.25;1.0;0.0;0.0;0.0;3.25;4.5;0.25;0.0;0.0;11.5;1.0;2.0;-0.185547;-0.006348;0.978516;-1.82;2.1;-0.21;391.0;0.097202;0.071697;0.75;0.0;1.0;0.0;1.25;0.0;0.25;0.0;4.0;4.25;0.0;0.0;0.0;11.75;0.75;0.25;-0.209961;0.015625;0.98584;-1.75;-1.33;1.26;289.0;0.253835;0.154838
3.38;3.75;3.25;1.25;2.25;1.0;0.0;0.0;0.0;3.25;4.25;0.0;0.25;0.0;11.5;1.25;1.75;-0.187988;-0.000977;0.983887;-1.82;2.24;-0.14;392.0;0.093703;0.068984;0.75;0.0;0.75;0.0;1.5;0.0;0.0;0.0;3.75;4.25;0.0;0.0;0.0;12.0;1.0;0.25;-0.206055;0.013184;0.979492;-1.61;-1.4;1.26;286.0;0.261322;0.14914
3.39;3.75;3.25;1.25;2.25;1.0;0.0;0.0;0.0;3.25;4.5;0.25;0.0;0.0;11.5;1.5;1.75;-0.188965;-0.006836;0.980469;-1.96;2.24;-0.21;398.0;0.097455;0.069196;0.75;0.25;1.0;0.5;1.75;0.0;0.0;0.0;3.75;4.0;0.0;0.0;0.0;11.75;1.25;0.25;-0.208984;0.015625;0.987305;-1.68;-1.33;1.26;300.0;0.23341;0.13464
3.4;3.25;3.25;1.5;2.25;1.0;0.0;0.0;0.25;3.0;4.75;0.0;0.0;0.0;11.5;0.75;1.75;-0.191406;-0.004883;0.982422;-1.89;2.17;-0.14;387.0;0.092015;0.066348;0.75;0.25;1.0;0.5;1.75;0.0;0.25;0.0;4.0;4.75;0.0;0.0;0.0;12.0;0.25;0.25;-0.205078;0.015137;0.98584;-1.68;-1.26;1.26;307.0;0.226069;0.145025
3.41;3.25;3.0;1.25;2.25;1.0;0.0;0.0;0.0;3.0;4.5;0.0;0.0;0.0;11.0;0.75;1.75;-0.19043;-0.006836;0.98291;-1.75;2.31;-0.14;368.0;0.094694;0.072047;0.75;0.25;0.5;0.25;1.5;0.0;0.25;0.0;3.5;4.5;0.0;0.0;0.0;12.0;0.25;0.25;-0.217773;0.011719;0.979492;-1.54;-1.12;1.26;283.0;0.246689;0.148915
3.42;3.75;3.5;1.25;2.25;1.0;0.0;0.0;0.0;3.25;4.75;0.0;0.0;0.0;11.5;1.0;1.75;-0.186523;-0.009277;0.980957;-1.75;1.89;0.0;395.0;0.089047;0.071372;0.75;0.5;0.5;0.25;1.75;0.0;0.25;0.0;3.5;4.5;0.25;0.0;0.0;12.0;0.5;0.25;-0.205566;0.01709;0.98584;-1.54;-1.19;1.26;295.0;0.237849;0.139752
3.43;3.75;3.25;1.25;2.25;1.0;0.25;0.0;0.0;3.5;4.75;0.0;0.0;0.0;11.5;1.5;2.0;-0.181641;-0.00293;0.983398;-1.89;2.24;-0.14;407.0;0.098131;0.068293;0.75;0.0;0.75;0.25;1.5;0.0;0.25;0.0;3.75;4.25;0.25;0.0;0.0;12.0;0.25;0.25;-0.208496;0.01709;0.981934;-1.54;-1.4;1.26;288.0;0.247081;0.15099
3.44;3.75;3.0;1.25;2.25;1.0;0.0;0.0;0.0;2.75;4.25;0.25;0.0;0.0;11.5;0.75;2.0;-0.186523;-0.009277;0.979004;-1.82;2.1;-0.07;377.0;0.090135;0.068828;1.0;0.0;0.75;0.0;1.5;0.0;0.25;0.0;3.75;4.0;0.0;0.0;0.0;12.0;0.25;0.25;-0.207031;0.009277;0.981445;-1.61;-1.54;1.4;281.0;0.246467;0.158841
3.45;4.0;3.0;1.5;2.25;1.0;0.0;0.0;0.0;3.0;4.25;0.25;0.0;0.0;11.5;1.0;1.5;-0.186035;-0.011719;0.985352;-1.82;1.96;-0.14;387.0;0.085118;0.073379;1.0;0.0;0.75;0.25;1.5;0.0;0.25;0.0;3.75;4.25;0.0;0.0;0.0;12.0;0.75;0.25;-0.205566;0.014648;0.977539;-1.54;-1.4;1.26;294.0;0.243879;0.148427
3.46;3.75;3.25;1.5;2.5;1.0;0.0;0.0;0.0;3.0;4.5;0.25;0.0;0.0;11.5;0.75;1.5;-0.186035;-0.005371;0.983887;-1.75;2.03;-0.21;390.0;0.080956;0.070061;1.0;0.25;1.0;0.25;1.5;0.0;0.25;0.0;3.5;4.0;0.0;0.0;0.0;11.75;0.75;0.25;-0.208496;0.018555;0.986328;-1.54;-1.47;1.33;290.0;0.230138;0.143708
3.47;3.5;3.25;1.5;2.5;1.0;0.0;0.0;0.0;3.0;4.5;0.25;0.0;0.0;11.5;0.5;1.75;-0.187988;-0.008789;0.984375;-1.68;1.89;-0.14;385.0;0.083362;0.069374;1.0;0.0;1.0;0.0;1.5;0.0;0.25;0.0;3.75;4.0;0.0;0.0;0.0;12.0;0.75;0.25;-0.209473;0.021973;0.981445;-1.47;-1.26;1.33;291.0;0.244062;0.152861
3.48;4.0;3.0;1.5;2.5;1.0;0.0;0.0;0.0;3.0;4.5;0.25;0.0;0.0;11.0;0.5;1.5;-0.188965;-0.004395;0.977539;-1.82;2.03;-0.14;382.0;0.073548;0.0719;1.0;0.0;1.0;0.25;1.5;0.0;0.25;0.0;3.75;4.0;0.0;0.0;0.0;12.0;0.75;0.25;-0.210938;0.013672;0.984863;-1.47;-1.47;1.4;294.0;0.238131;0.148647
3.49;3.75;3.0;1.5;2.25;1.0;0.0;0.0;0.25;3.0;4.5;0.25;0.0;0.0;11.5;1.25;1.5;-0.190918;-0.006348;0.983398;-1.68;1.89;-0.14;395.0;0.091606;0.066422;1.0;0.25;0.75;0.25;1.5;0.0;0.25;0.0;3.75;3.75;0.0;0.0;0.0;12.0;1.0;0.5;-0.211426;0.015625;0.983398;-1.61;-1.33;1.33;295.0;0.24014;0.142291
3.5;3.75;3.25;1.5;2.25;1.0;0.0;0.0;0.0;3.5;4.5;0.5;0.0;0.0;11.5;1.5;1.5;-0.188477;-0.01416;0.980469;-1.75;1.89;0.0;407.0;0.095951;0.071431;0.75;0.25;1.0;0.5;1.75;0.0;0.25;0.0;4.0;4.25;0.0;0.0;0.0;12.0;1.0;0.5;-0.212402;0.01123;0.978027;-1.47;-1.54;1.33;312.0;0.231934;0.137438
3.51;3.5;3.25;1.5;2.25;1.0;0.0;0.0;0.0;3.0;4.5;0.5;0.25;0.0;11.5;0.5;1.5;-0.185547;-0.006836;0.985352;-1.82;2.17;-0.14;387.0;0.087521;0.068996;0.75;0.25;0.75;0.5;1.5;0.0;0.25;0.0;3.75;4.25;0.0;0.0;0.0;12.0;1.0;0.0;-0.212891;0.012695;0.984863;-1.61;-1.47;1.33;298.0;0.239732;0.141908
3.52;3.25;3.25;1.25;2.25;1.0;0.0;0.0;0.0;3.0;4.5;0.25;0.5;0.25;11.0;0.5;1.75;-0.186035;-0.006348;0.984375;-1.82;2.03;-0.14;379.0;0.091854;0.060317;0.75;0.0;0.5;0.25;1.25;0.0;0.25;0.0;3.75;4.0;0.0;0.0;0.0;12.25;1.25;0.25;-0.204102;0.014648;0.983887;-1.54;-1.33;1.33;290.0;0.265889;0.146705
3.53;3.5;3.25;1.25;2.25;1.0;0.0;0.0;0.0;3.0;4.75;0.25;0.25;0.0;11.5;1.25;1.75;-0.186523;-0.007324;0.979492;-1.75;2.1;-0.14;394.0;0.099355;0.065087;0.75;0.0;0.5;0.25;1.5;0.0;0.25;0.0;3.5;4.0;0.0;0.0;0.0;12.25;1.0;0.25;-0.209473;0.017578;0.978516;-1.54;-1.33;1.4;286.0;0.259982;0.146482
3.54;4.0;3.5;1.25;2.5;1.0;0.0;0.0;0.0;3.0;4.75;0.5;0.0;0.0;11.5;0.75;1.75;-0.188477;-0.005371;0.97998;-1.89;2.1;-0.21;400.0;0.080166;0.065524;0.75;0.0;0.5;0.5;1.5;0.0;0.25;0.0;4.0;4.0;0.0;0.0;0.0;12.0;1.0;0.25;-0.20459;0.016113;0.983398;-1.54;-1.4;1.26;295.0;0.25247;0.145471
3.55;3.75;3.25;1.25;2.25;1.0;0.0;0.0;0.0;3.0;4.5;0.5;0.0;0.0;11.5;0.75;2.0;-0.187988;-0.011719;0.987305;-1.75;1.96;-0.21;390.0;0.090504;0.067706;0.75;0.0;0.25;0.5;1.5;0.0;0.25;0.0;4.0;2.5;0.0;0.0;0.0;12.25;0.25;0.25;-0.206543;0.012695;0.984375;-1.54;-1.4;1.4;266.0;0.255851;0.160232
3.56;3.75;3.25;1.25;2.25;1.0;0.0;0.0;0.0;3.0;4.5;0.25;0.0;0.0;11.5;0.5;2.0;-0.187988;-0.004883;0.983887;-1.82;2.1;-0.21;383.0;0.08681;0.070425;0.75;0.0;0.5;0.25;1.5;0.0;0.0;0.0;3.75;3.75;0.0;0.0;0.0;12.5;0.25;0.25;-0.206543;0.017578;0.980469;-1.54;-1.47;1.33;276.0;0.259437;0.155732
3.57;3.75;3.5;1.25;2.25;1.0;0.0;0.0;0.0;3.0;4.5;0.25;0.25;0.0;11.5;0.5;1.75;-0.188477;-0.012695;0.980957;-1.89;2.17;-0.21;388.0;0.083069;0.067363;0.5;0.0;0.75;0.25;1.5;0.0;0.0;0.0;4.0;4.25;0.0;0.0;0.0;12.75;0.5;0.25;-0.212891;0.019043;0.987793;-1.47;-1.47;1.4;292.0;0.262944;0.152744
3.58;4.0;3.5;1.25;2.25;0.75;0.0;0.0;0.0;3.0;4.5;0.25;0.25;0.0;11.5;0.75;1.5;-0.18457;-0.01416;0.982422;-1.89;2.1;-0.21;389.0;0.082418;0.068125;0.5;0.0;0.75;0.25;1.5;0.0;0.0;0.0;4.0;4.0;0.0;0.0;0.0;12.25;0.75;0.25;-0.208008;0.015137;0.981934;-1.54;-1.47;1.4;287.0;0.262113;0.1507
3.59;3.75;3.5;1.75;2.25;1.0;0.0;0.0;0.0;3.0;4.5;0.25;0.0;0.0;11.5;0.75;1.5;-0.186035;-0.010254;0.984375;-1.89;2.31;-0.21;393.0;0.077591;0.071028;0.75;0.0;0.5;0.0;1.5;0.0;0.0;0.0;3.5;4.0;0.0;0.0;0.0;12.0;0.5;0.25;-0.206543;0.013184;0.981445;-1.54;-1.61;1.47;270.0;0.264758;0.154412
3.6;3.75;3.5;1.5;2.25;1.0;0.0;0.0;0.0;3.0;4.25;0.25;0.0;0.0;11.5;0.75;1.75;-0.185547;-0.012207;0.982422;-1.89;2.31;-0.14;388.0;0.080414;0.069326;0.75;0.0;0.5;0.25;1.5;0.0;0.25;0.0;3.5;4.5;0.0;0.0;0.0;12.0;0.5;0.25;-0.208008;0.020508;0.98291;-1.47;-1.54;1.26;284.0;0.254926;0.149435
3.61;3.75;3.5;1.25;2.25;1.0;0.0;0.0;0.0;3.0;4.25;0.25;0.0;0.0;11.5;0.25;1.75;-0.185547;-0.006348;0.98291;-1.82;2.24;-0.21;378.0;0.078053;0.071654;0.75;0.0;0.5;0.25;1.5;0.0;0.25;0.0;3.5;4.5;0.0;0.0;0.0;12.25;0.75;0.25;-0.209961;0.014648;0.983398;-1.47;-1.54;1.4;289.0;0.257967;0.14718
3.62;4.0;3.5;1.75;2.0;1.0;0.0;0.0;0.0;3.0;4.75;0.25;0.0;0.0;11.5;0.5;1.75;-0.186035;-0.006836;0.981445;-1.82;2.24;-0.21;394.0;0.076675;0.073372;0.75;0.0;0.75;0.0;1.75;0.0;0.25;0.0;3.75;4.5;0.0;0.0;0.0;12.25;0.25;0.25;-0.205566;0.015625;0.982422;-1.4;-1.54;1.33;290.0;0.250523;0.156405
3.63;3.75;3.5;1.5;2.0;1.0;0.0;0.0;0.0;3.0;4.75;0.25;0.0;0.25;11.5;1.0;1.5;-0.185059;-0.010254;0.983398;-1.82;2.17;-0.14;395.0;0.088023;0.06861;0.75;0.0;1.0;0.25;1.5;0.0;0.25;0.0;3.5;4.25;0.0;0.0;0.0;12.25;0.25;0.25;-0.212891;0.013184;0.983887;-1.47;-1.54;1.33;287.0;0.24268;0.151736
3.64;3.5;3.25;1.25;2.25;1.0;0.0;0.0;0.0;3.5;4.75;0.25;0.25;0.25;11.5;1.25;1.75;-0.1875;-0.007812;0.983398;-1.89;2.17;-0.21;405.0;0.102835;0.0658;0.75;0.0;0.5;0.25;1.75;0.0;0.25;0.0;3.5;4.0;0.0;0.0;0.0;12.25;0.25;0.25;-0.209961;0.012207;0.986328;-1.54;-1.61;1.4;280.0;0.250511;0.153143
3.65;3.5;3.0;1.5;2.25;1.0;0.0;0.0;0.0;3.25;4.5;0.0;0.0;0.0;11.5;0.75;1.5;-0.185547;-0.009277;0.984375;-1.89;2.24;-0.07;382.0;0.092265;0.07761;0.75;0.0;0.5;0.5;1.75;0.0;0.25;0.0;3.75;4.0;0.0;0.0;0.0;12.5;0.25;0.25;-0.210938;0.012207;0.983887;-1.47;-1.61;1.4;290.0;0.245917;0.150714
3.66;4.25;3.0;1.5;2.25;1.0;0.0;0.0;0.0;3.0;4.5;0.25;0.25;0.0;11.0;0.75;1.75;-0.187012;-0.006836;0.981934;-1.61;1.89;-0.21;390.0;0.077753;0.068883;0.75;0.0;0.5;0.5;1.75;0.0;0.25;0.0;4.0;4.5;0.0;0.0;0.0;12.25;0.25;0.25;-0.203125;0.015137;0.979492;-1.54;-1.61;1.4;297.0;0.244518;0.150295
3.67;3.75;3.5;1.25;2.25;1.0;0.0;0.0;0.0;3.0;4.5;0.25;0.0;0.0;11.0;1.0;1.25;-0.189941;-0.010254;0.987793;-1.68;2.03;-0.14;382.0;0.080647;0.069669;0.75;0.0;0.5;0.25;1.75;0.0;0.0;0.0;3.25;4.5;0.0;0.0;0.0;12.25;0.5;0.5;-0.206543;0.021484;0.980469;-1.61;-1.75;1.4;283.0;0.255273;0.142811
3.68;3.25;3.5;1.25;2.25;1.0;0.0;0.0;0.0;3.0;4.5;0.25;0.0;0.0;11.0;1.25;1.5;-0.1875;-0.003418;0.981934;-1.75;1.96;-0.14;381.0;0.092379;0.066158;0.75;0.25;0.75;0.25;1.5;0.0;0.0;0.0;3.5;4.5;0.25;0.0;0.0;12.0;0.5;0.25;-0.208984;0.015137;0.981445;-1.61;-1.68;1.26;288.0;0.244865;0.141389
3.69;4.5;3.5;1.25;2.5;1.0;0.0;0.0;0.0;3.0;4.5;0.25;0.0;0.0;11.0;1.25;1.75;-0.192871;-0.005859;0.984863;-1.68;1.89;-0.14;401.0;0.071235;0.063901;0.75;0.0;0.75;0.5;1.75;0.0;0.0;0.0;3.75;4.0;0.25;0.0;0.0;12.0;0.5;0.25;-0.208496;0.01123;0.983398;-1.68;-1.54;1.33;290.0;0.241193;0.14272
3.7;4.25;3.5;1.75;2.25;1.0;0.0;0.0;0.0;3.0;4.5;0.25;0.0;0.0;11.0;1.5;1.5;-0.189941;-0.001953;0.984375;-1.68;1.89;-0.14;403.0;0.073677;0.066705;1.0;0.0;0.75;0.5;1.75;0.0;0.0;0.0;4.5;4.0;0.25;0.0;0.0;12.0;0.75;0.25;-0.206543;0.018066;0.980957;-1.61;-1.47;1.19;308.0;0.23698;0.145115
3.71;3.25;3.5;1.5;2.25;1.0;0.0;0.0;0.0;3.0;4.25;0.25;0.0;0.0;11.0;1.0;1.5;-0.185547;-0.009277;0.98584;-1.61;1.96;-0.14;378.0;0.085391;0.067607;1.0;0.25;0.5;0.25;1.5;0.0;0.0;0.0;4.0;4.0;0.0;0.0;0.0;11.5;0.75;0.25;-0.205566;0.013672;0.983887;-1.68;-1.54;1.26;285.0;0.243213;0.146715
3.72;3.75;3.5;1.25;2.0;1.0;0.25;0.0;0.0;3.0;4.25;0.5;0.25;0.0;11.0;0.5;1.75;-0.188965;-0.003906;0.98291;-1.54;2.03;-0.14;383.0;0.079764;0.064041;1.0;0.0;0.5;0.25;1.75;0.0;0.0;0.0;3.75;4.25;0.25;0.0;0.0;12.0;0.5;0.25;-0.208984;0.018066;0.98584;-1.54;-1.61;1.4;289.0;0.246135;0.146299
3.73;3.75;3.5;1.5;2.25;1.0;0.0;0.0;0.0;2.75;4.5;0.25;0.0;0.0;11.5;0.75;1.5;-0.185059;-0.01123;0.980469;-1.61;1.82;-0.07;385.0;0.078749;0.068807;1.0;0.0;0.75;0.5;1.5;0.0;0.0;0.0;3.5;3.0;0.25;0.0;0.0;12.0;0.5;0.25;-0.20459;0.014648;0.979492;-1.54;-1.54;1.33;273.0;0.238104;0.145013
3.74;3.75;3.75;1.75;2.5;1.0;0.0;0.0;0.0;3.0;4.5;0.25;0.0;0.0;10.75;1.0;1.25;-0.183105;-0.011719;0.985352;-1.68;1.96;-0.14;393.0;0.066041;0.065183;1.0;0.0;1.0;0.25;1.5;0.0;0.0;0.0;3.5;3.0;0.0;0.0;0.0;12.0;0.75;0.5;-0.208984;0.014648;0.98584;-1.61;-1.68;1.33;275.0;0.241041;0.146437
3.75;3.75;3.5;1.25;2.5;1.0;0.0;0.0;0.0;3.0;4.5;0.25;0.25;0.0;11.0;0.5;1.5;-0.190918;-0.007812;0.985352;-1.75;2.03;-0.14;384.0;0.07439;0.065013;1.0;0.0;0.75;0.0;1.5;0.0;0.0;0.0;3.5;3.75;0.25;0.0;0.0;12.0;0.75;0.5;-0.207031;0.014648;0.977051;-1.61;-1.54;1.33;281.0;0.253062;0.145798
3.76;3.75;3.5;1.5;2.75;1.0;0.0;0.0;0.0;3.0;4.75;0.25;0.25;0.0;11.0;0.5;1.25;-0.189941;-0.006348;0.983887;-1.68;2.03;-0.07;392.0;0.068613;0.064345;0.75;0.0;0.75;0.25;1.75;0.0;0.0;0.0;3.0;3.75;0.0;0.0;0.0;12.0;0.75;0.25;-0.203613;0.015625;0.97998;-1.61;-1.54;1.19;272.0;0.249028;0.142764
3.77;3.5;3.5;1.75;2.25;1.0;0.0;0.0;0.0;3.0;4.5;0.25;0.25;0.0;10.75;1.0;1.5;-0.187012;-0.005371;0.982422;-1.82;2.1;-0.14;388.0;0.078573;0.064422;1.0;0.0;1.0;0.5;1.75;0.0;0.25;0.0;3.25;4.0;0.0;0.0;0.0;12.0;1.0;0.25;-0.210449;0.019043;0.979004;-1.54;-1.47;1.26;296.0;0.229591;0.13778
3.78;4.0;3.5;1.25;2.25;1.0;0.0;0.0;0.0;3.0;4.5;0.25;0.0;0.0;10.5;1.0;1.75;-0.191895;-0.006348;0.982422;-1.75;2.1;-0.14;384.0;0.074703;0.065329;1.0;0.25;1.0;0.5;1.75;0.0;0.0;0.0;3.5;3.75;0.0;0.0;0.0;12.0;0.75;0.5;-0.205566;0.007324;0.981934;-1.68;-1.54;1.26;294.0;0.224842;0.135778
3.79;3.5;3.5;1.25;2.25;1.0;0.0;0.0;0.0;3.0;4.75;0.25;0.0;0.0;10.25;1.0;1.75;-0.184082;-0.014648;0.979492;-1.68;2.03;-0.14;378.0;0.081626;0.063849;1.0;0.25;1.0;0.25;1.75;0.0;0.0;0.0;4.0;4.0;0.0;0.0;0.0;12.0;0.75;0.5;-0.207031;0.01123;0.97998;-1.54;-1.54;1.26;301.0;0.231402;0.142564
3.8;3.75;3.25;1.25;2.75;1.0;0.0;0.0;0.25;3.0;4.5;0.25;0.0;0.0;10.5;1.0;1.5;-0.18457;-0.007812;0.98291;-1.75;2.1;-0.07;387.0;0.073676;0.057916;1.0;0.25;1.0;0.25;1.75;0.0;0.0;0.0;3.75;4.0;0.0;0.0;0.0;12.0;0.5;0.5;-0.205078;0.016113;0.983887;-1.68;-1.54;1.26;294.0;0.229195;0.1432
3.81;3.75;3.5;1.5;2.75;1.0;0.0;0.0;0.25;3.0;4.5;0.25;0.0;0.0;10.5;0.5;1.75;-0.185059;-0.008789;0.986328;-1.61;2.03;-0.07;389.0;0.063095;0.057302;1.0;0.25;1.0;0.5;1.75;0.0;0.25;0.0;3.5;3.75;0.0;0.0;0.0;12.0;0.75;0.5;-0.209961;0.014648;0.981934;-1.61;-1.4;1.33;298.0;0.222672;0.137385
3.82;3.75;3.5;1.5;2.5;1.0;0.0;0.0;0.0;3.0;4.5;0.5;0.0;0.0;10.5;0.75;1.75;-0.186035;-0.005371;0.98291;-1.68;1.96;-0.07;387.0;0.071052;0.062454;1.0;0.25;1.0;0.5;1.75;0.0;0.25;0.0;3.5;3.75;0.0;0.0;0.0;12.0;0.75;0.25;-0.208008;0.015137;0.98291;-1.54;-1.47;1.33;296.0;0.221928;0.139844
3.83;3.75;3.5;1.5;2.5;1.0;0.0;0.0;0.0;3.0;4.5;0.25;0.0;0.0;10.75;1.0;1.75;-0.184082;-0.004883;0.981934;-1.61;1.89;-0.07;390.0;0.074734;0.063475;1.0;0.0;1.0;0.5;1.75;0.0;0.25;0.0;3.5;4.0;0.25;0.0;0.0;12.0;0.75;0.5;-0.20752;0.015625;0.978516;-1.61;-1.47;1.33;302.0;0.228745;0.136781
3.84;4.0;3.5;1.5;2.5;1.0;0.0;0.0;0.25;3.25;4.25;0.25;0.0;0.0;10.75;1.25;1.75;-0.183594;-0.008789;0.980957;-1.54;1.89;-0.07;401.0;0.073141;0.059574;1.0;0.0;1.0;0.5;1.75;0.0;0.25;0.0;3.5;4.0;0.0;0.0;0.0;12.0;0.25;0.25;-0.206055;0.014648;0.984375;-1.61;-1.47;1.4;291.0;0.224191;0.146718
3.85;3.75;3.5;1.25;2.5;1.0;0.0;0.0;0.0;3.25;4.5;0.25;0.0;0.0;10.75;1.5;1.25;-0.186035;-0.004883;0.981445;-1.68;1.96;-0.14;393.0;0.082385;0.066137;1.0;0.25;1.0;0.5;1.5;0.0;0.0;0.0;4.0;4.25;0.0;0.0;0.0;12.0;0.25;0.25;-0.210449;0.012695;0.981934;-1.68;-1.54;1.26;296.0;0.225282;0.145799
3.86;4.0;3.75;1.5;2.5;1.0;0.0;0.0;0.0;3.25;4.25;0.25;0.0;0.0;10.5;0.25;1.0;-0.185059;-0.010742;0.987305;-1.75;2.03;-0.14;380.0;0.053652;0.071995;1.0;0.25;1.0;0.5;1.75;0.0;0.0;0.0;4.0;4.0;0.0;0.0;0.0;12.0;0.75;0.25;-0.210449;0.010742;0.98291;-1.75;-1.61;1.4;303.0;0.225099;0.141018
3.87;3.75;3.5;1.5;2.5;1.0;0.0;0.0;0.0;3.5;4.25;0.25;0.0;0.0;10.75;0.25;1.25;-0.183594;-0.005859;0.98291;-1.75;2.17;-0.14;382.0;0.066511;0.07456;1.0;0.0;1.0;0.25;1.5;0.0;0.25;0.0;3.75;4.5;0.0;0.0;0.0;12.0;1.0;0.25;-0.210449;0.015625;0.987305;-1.61;-1.54;1.26;303.0;0.239932;0.144535
3.88;3.75;3.5;1.25;2.75;1.0;0.0;0.0;0.0;3.5;4.5;0.25;0.25;0.0;10.75;0.5;1.5;-0.191895;-0.014648;0.979492;-1.68;2.1;-0.07;393.0;0.072807;0.066033;1.0;0.0;1.0;0.25;1.75;0.0;0.25;0.0;4.0;4.5;0.0;0.0;0.0;12.0;0.75;0.25;-0.210938;0.013184;0.980469;-1.54;-1.47;1.26;308.0;0.234535;0.147603
3.89;3.75;3.75;1.75;3.0;1.0;0.0;0.0;0.0;3.5;4.25;0.25;0.0;0.0;10.5;0.25;1.5;-0.190918;-0.007324;0.982422;-1.54;1.96;-0.14;394.0;0.053376;0.065745;1.0;0.0;1.0;0.5;1.25;0.0;0.25;0.0;3.5;4.25;0.0;0.0;0.0;11.75;0.5;0.25;-0.208008;0.016602;0.987793;-1.61;-1.47;1.4;288.0;0.232674;0.145009
3.9;4.5;4.0;1.5;2.5;1.0;0.0;0.0;0.0;3.0;4.25;0.0;0.0;0.0;10.5;0.25;1.5;-0.187012;-0.013184;0.97998;-1.68;1.89;-0.14;385.0;0.042035;0.067112;0.75;0.0;1.0;0.5;1.25;0.0;0.25;0.0;3.5;4.25;0.25;0.0;0.0;12.0;0.25;0.25;-0.208984;0.012695;0.98291;-1.54;-1.4;1.4;287.0;0.239141;0.145319
3.91;3.75;3.5;1.5;2.5;1.0;0.0;0.0;0.0;3.0;4.5;0.25;0.0;0.0;10.25;0.75;1.5;-0.186523;-0.005859;0.987305;-1.68;2.03;-0.07;380.0;0.06627;0.064752;0.75;0.0;1.0;0.5;1.5;0.0;0.25;0.0;3.5;3.75;0.0;0.0;0.0;11.75;0.25;0.5;-0.207031;0.016113;0.979492;-1.54;-1.47;1.4;280.0;0.234105;0.146113
3.92;3.75;3.5;1.5;2.25;1.0;0.0;0.0;0.0;3.0;4.5;0.25;0.0;0.0;10.25;0.5;1.5;-0.1875;-0.010742;0.980469;-1.54;1.96;-0.14;374.0;0.066518;0.068526;1.0;0.25;1.25;0.25;1.25;0.0;0.25;0.0;3.5;3.75;0.0;0.0;0.0;11.5;0.5;0.5;-0.207031;0.009277;0.982422;-1.54;-1.4;1.33;283.0;0.225436;0.14447
3.93;3.25;3.75;1.5;2.5;1.0;0.0;0.0;0.0;3.25;4.5;0.25;0.0;0.0;10.5;0.75;1.5;-0.183105;-0.01123;0.984863;-1.82;1.96;-0.07;383.0;0.074615;0.065262;1.0;0.25;1.25;0.0;1.5;0.0;0.0;0.0;3.75;4.0;0.0;0.0;0.0;11.75;0.5;0.25;-0.212891;0.013184;0.981934;-1.68;-1.33;1.26;287.0;0.231046;0.149987
3.94;3.75;3.75;1.5;2.75;1.0;0.0;0.0;0.0;3.25;4.75;0.5;0.25;0.0;10.5;0.25;1.75;-0.185547;-0.005859;0.980957;-1.68;1.89;-0.21;397.0;0.063631;0.060022;1.0;0.0;1.0;0.25;1.75;0.0;0.25;0.0;3.25;4.25;0.0;0.0;0.0;12.0;0.75;0.25;-0.206543;0.01709;0.987305;-1.54;-1.47;1.4;293.0;0.233599;0.143411
3.95;4.0;3.5;1.25;2.75;1.0;0.0;0.0;0.25;3.25;4.5;0.25;0.0;0.0;10.75;0.25;1.5;-0.183594;-0.001953;0.98584;-1.82;2.03;-0.14;390.0;0.062426;0.06305;1.0;0.0;1.0;0.5;1.75;0.0;0.25;0.0;3.5;4.0;0.0;0.0;0.0;11.75;0.75;0.0;-0.20752;0.019043;0.979004;-1.68;-1.33;1.26;293.0;0.225737;0.144101
3.96;4.0;3.75;1.25;2.75;1.0;0.0;0.0;0.0;3.25;4.5;0.0;0.0;0.0;10.25;0.5;1.25;-0.189941;-0.007812;0.986328;-1.82;2.17;-0.14;382.0;0.055432;0.067169;1.0;0.0;1.0;0.5;1.75;0.0;0.25;0.0;3.5;3.25;0.0;0.0;0.0;12.0;0.75;0.25;-0.206543;0.016113;0.989258;-1.61;-1.4;1.26;287.0;0.227656;0.144423
3.97;4.0;3.75;1.5;2.75;1.0;0.0;0.0;0.0;3.0;4.5;0.25;0.0;0.0;10.5;1.0;1.25;-0.187012;-0.010742;0.984863;-1.68;1.96;-0.14;393.0;0.059974;0.062177;0.75;0.0;1.0;0.5;1.75;0.0;0.25;0.0;3.5;3.75;0.25;0.0;0.0;11.75;1.0;0.25;-0.208496;0.013672;0.981445;-1.68;-1.4;1.26;294.0;0.234867;0.137637
3.98;4.0;3.75;1.25;2.75;1.0;0.0;0.0;0.0;3.0;4.5;0.25;0.25;0.0;9.5;0.5;1.25;-0.185547;-0.01123;0.97998;-1.75;2.17;-0.28;377.0;0.048818;0.058224;1.0;0.0;1.0;0.5;1.75;0.0;0.25;0.0;3.5;4.0;0.25;0.0;0.0;11.75;1.0;0.25;-0.208984;0.014648;0.983887;-1.54;-1.61;1.4;301.0;0.228354;0.13658
3.99;3.25;4.0;1.5;2.25;1.0;0.0;0.0;0.0;3.25;4.5;0.0;0.0;0.0;9.5;0.5;1.5;-0.180664;-0.008301;0.983398;-1.82;2.1;-0.07;366.0;0.060649;0.065807;1.0;0.0;1.0;0.5;1.75;0.0;0.25;0.0;3.5;4.0;0.0;0.0;0.0;11.75;0.5;0.25;-0.202148;0.01416;0.978516;-1.61;-1.54;1.33;291.0;0.224521;0.143989
4.0;3.75;4.0;1.5;2.25;1.0;0.0;0.0;0.0;3.0;4.25;0.25;0.25;0.0;10.0;0.5;1.5;-0.187012;-0.005371;0.97998;-1.75;2.03;-0.21;377.0;0.056848;0.061337;1.0;0.0;1.0;0.5;1.75;0.0;0.25;0.0;3.5;4.0;0.0;0.0;0.0;11.75;0.5;0.25;-0.209473;0.013184;0.985352;-1.61;-1.54;1.33;291.0;0.224521;0.143989
4.01;4.0;3.75;1.5;2.75;1.0;0.25;0.0;0.0;3.0;4.25;0.0;0.0;0.0;10.0;0.5;1.5;-0.180664;-0.009277;0.981445;-1.89;2.24;-0.21;380.0;0.046172;0.059994;1.0;0.0;1.0;0.5;1.75;0.0;0.25;0.0;3.5;4.0;0.0;0.0;0.0;11.75;0.5;0.25;-0.20459;0.012695;0.982422;-1.61;-1.61;1.19;291.0;0.224521;0.143989
4.02;4.0;3.75;1.75;2.75;1.0;0.0;0.0;0.0;3.25;4.25;0.0;0.25;0.0;10.25;0.5;1.75;-0.185059;-0.007324;0.985352;-1.89;2.1;-0.14;392.0;0.052227;0.061507;1.0;0.0;1.0;0.5;1.5;0.0;0.25;0.0;3.5;4.0;0.0;0.0;0.0;11.75;0.75;0.25;-0.211914;0.021484;0.98877;-1.61;-1.4;1.33;291.0;0.230436;0.142491
4.03;4.0;3.75;1.25;2.75;1.0;0.0;0.0;0.0;3.0;4.25;0.25;0.0;0.0;10.5;0.75;1.5;-0.185059;-0.006836;0.982422;-1.89;2.17;-0.14;385.0;0.059772;0.061523;1.0;0.0;1.0;0.5;1.25;0.0;0.25;0.0;3.5;4.0;0.25;0.0;0.0;11.75;0.75;0.25;-0.20752;0.016113;0.977539;-1.61;-1.4;1.33;291.0;0.234402;0.140628
4.04;4.0;3.75;1.5;2.5;1.0;0.0;0.0;0.0;3.0;4.25;0.0;0.0;0.0;10.25;1.25;1.75;-0.189941;-0.007324;0.980469;-1.82;2.17;-0.21;387.0;0.063128;0.060975;0.75;0.5;1.0;0.5;1.75;0.0;0.25;0.0;3.5;4.5;0.25;0.0;0.0;11.75;1.0;0.25;-0.211426;0.017578;0.989746;-1.54;-1.33;1.26;309.0;0.223405;0.12999
4.05;3.75;3.75;1.75;2.75;1.0;0.0;0.0;0.0;3.0;4.75;0.25;0.25;0.0;10.5;0.25;1.5;-0.1875;-0.015625;0.978516;-1.75;2.1;-0.14;392.0;0.056388;0.061076;0.75;0.25;1.0;0.5;1.75;0.0;0.25;0.0;3.5;4.5;0.0;0.0;0.0;12.0;1.0;0.25;-0.20752;0.015625;0.979004;-1.61;-1.47;1.26;306.0;0.230727;0.135574
4.06;4.5;3.75;1.75;2.75;1.0;0.0;0.0;0.0;3.0;4.5;0.25;0.0;0.0;10.25;0.25;1.5;-0.1875;-0.006348;0.985352;-1.82;2.17;-0.21;392.0;0.040532;0.064301;1.0;0.25;0.75;0.25;1.75;0.0;0.0;0.0;3.0;3.75;0.0;0.0;0.0;11.75;0.5;0.25;-0.20752;0.012207;0.978516;-1.61;-1.54;1.33;272.0;0.231485;0.141502
4.07;4.0;3.75;1.5;2.75;1.0;0.0;0.0;0.0;3.25;4.25;0.25;0.0;0.0;10.5;0.5;1.75;-0.1875;-0.002441;0.983887;-1.82;2.1;-0.14;391.0;0.057416;0.063488;1.0;0.25;1.0;0.25;1.75;0.0;0.0;0.0;3.5;3.75;0.0;0.0;0.0;12.0;0.5;0.25;-0.212891;0.014648;0.985352;-1.54;-1.4;1.33;286.0;0.227964;0.144853
4.08;4.0;3.75;1.25;2.5;1.0;0.0;0.0;0.0;3.25;4.25;0.25;0.0;0.0;10.75;0.75;1.75;-0.181641;-0.010254;0.983887;-1.82;2.1;-0.14;390.0;0.068203;0.065269;0.75;0.25;1.0;0.5;1.75;0.0;0.0;0.0;3.75;4.25;0.0;0.25;0.0;12.0;0.5;0.25;-0.209473;0.012695;0.989746;-1.61;-1.47;1.33;299.0;0.229253;0.136529
4.09;3.75;4.0;1.25;3.0;1.0;0.0;0.0;0.0;3.0;4.25;0.25;0.0;0.0;10.5;0.5;1.5;-0.187012;-0.010254;0.980469;-1.89;2.17;-0.21;385.0;0.054291;0.058235;1.0;0.0;0.75;0.25;1.5;0.0;0.25;0.0;3.75;4.25;0.0;0.0;0.0;11.75;0.5;0.25;-0.209961;0.01709;0.981934;-1.61;-1.47;1.19;288.0;0.240612;0.150669
4.1;4.0;3.75;1.5;2.5;1.25;0.0;0.0;0.0;2.75;4.25;0.25;0.0;0.0;10.5;0.5;1.5;-0.185059;-0.010254;0.98584;-1.75;2.17;-0.14;381.0;0.053451;0.063223;1.0;0.25;1.0;0.0;1.5;0.0;0.25;0.0;3.75;4.25;0.0;0.0;0.0;11.75;0.75;0.25;-0.206543;0.021484;0.986328;-1.54;-1.47;1.26;294.0;0.23637;0.148713
4.11;3.75;3.75;1.5;3.0;1.25;0.0;0.0;0.0;3.0;4.75;0.5;0.0;0.25;10.5;0.5;1.5;-0.184082;-0.005371;0.982422;-1.89;2.24;-0.21;401.0;0.058367;0.055472;1.0;0.25;1.0;0.25;2.0;0.0;0.25;0.0;3.75;4.25;0.0;0.0;0.0;11.75;0.5;0.25;-0.213379;0.016113;0.986816;-1.61;-1.54;1.4;301.0;0.220987;0.145133
4.12;4.0;3.5;1.5;2.75;1.0;0.0;0.0;0.25;3.25;4.75;0.25;0.0;0.25;10.25;1.0;1.0;-0.190918;-0.010254;0.979492;-1.75;2.17;-0.14;400.0;0.063018;0.058106;1.0;0.0;1.0;0.5;2.0;0.0;0.0;0.0;3.75;4.5;0.0;0.0;0.0;12.0;0.5;0.25;-0.211914;0.010742;0.986816;-1.61;-1.47;1.26;303.0;0.22518;0.141957
4.13;4.0;3.5;1.5;2.5;1.0;0.0;0.0;0.0;3.25;4.5;0.25;0.0;0.25;10.25;0.5;1.25;-0.186523;-0.005371;0.97998;-1.61;2.17;-0.14;385.0;0.061106;0.066518;1.25;0.0;1.25;0.5;1.5;0.0;0.0;0.0;3.5;4.0;0.25;0.0;0.0;12.0;0.75;0.25;-0.210938;0.016113;0.98584;-1.61;-1.4;1.19;299.0;0.222075;0.137639
4.14;4.0;3.5;1.75;2.5;1.0;0.0;0.0;0.0;3.25;4.5;0.25;0.0;0.0;10.5;0.25;1.25;-0.184082;-0.011719;0.985352;-1.68;2.03;-0.14;385.0;0.05705;0.072168;1.0;0.0;1.0;0.5;1.5;0.0;0.0;0.0;3.5;3.75;0.25;0.0;0.0;12.25;0.75;0.25;-0.206543;0.01709;0.978516;-1.61;-1.47;1.33;292.0;0.235759;0.139633
4.15;3.75;3.5;1.5;2.75;1.0;0.0;0.0;0.0;3.25;4.5;0.25;0.0;0.0;10.5;0.75;1.75;-0.187988;-0.007324;0.98291;-1.75;2.03;-0.21;391.0;0.068659;0.063588;0.75;0.0;1.0;0.25;1.5;0.0;0.0;0.0;3.75;3.25;0.25;0.0;0.0;12.0;0.75;0.25;-0.208984;0.01416;0.978516;-1.75;-1.54;1.4;280.0;0.247514;0.147448
4.16;3.75;3.5;1.25;2.75;1.0;0.0;0.0;0.25;3.0;4.75;0.25;0.0;0.0;10.5;0.75;2.0;-0.187988;-0.007812;0.98291;-1.75;2.03;-0.21;393.0;0.071245;0.054451;0.75;0.0;1.0;0.25;1.75;0.0;0.0;0.0;3.5;3.25;0.0;0.0;0.0;12.0;0.75;0.25;-0.205566;0.012695;0.980957;-1.61;-1.54;1.4;277.0;0.243211;0.147609
4.17;4.0;3.5;1.75;2.5;1.0;0.0;0.0;0.0;3.0;4.5;0.25;0.25;0.0;10.75;0.75;1.75;-0.187012;-0.013672;0.980469;-1.68;2.31;-0.14;396.0;0.06656;0.062337;1.0;0.0;1.0;0.5;2.0;0.0;0.0;0.0;3.5;3.25;0.0;0.0;0.0;11.5;1.0;0.25;-0.20752;0.015625;0.981445;-1.47;-1.54;1.33;284.0;0.22458;0.13883
4.18;4.25;3.75;1.25;2.5;1.0;0.0;0.0;0.0;3.25;4.25;0.0;0.25;0.0;10.25;0.5;1.75;-0.189941;-0.006348;0.985352;-1.68;2.03;-0.14;385.0;0.056972;0.06385;1.0;0.0;1.0;0.5;1.5;0.0;0.25;0.0;3.5;4.25;0.0;0.0;0.0;11.5;0.75;0.25;-0.210449;0.017578;0.982422;-1.68;-1.54;1.33;292.0;0.228958;0.141346
